Username,ID,ExperimentName,Session,Trial,Date,TimeDif,"Condition Number","Stimuli File","Order File","Condition Description","Condition Notes",Stimuli*Cue,Stimuli*Answer,Stimuli*Shuffle,"Stimuli*Stimuli Notes",Stimuli*Value,Procedure*Item,"Procedure*Trial Type","Procedure*Max Time","Procedure*Min Time",Procedure*Text,"Procedure*Procedure Notes",Procedure*Shuffle,Response*RT,Response*Response,Response*Accuracy,Response*RTfirst,Response*RTlast,Response*strictAcc,Response*lenientAcc,Response*focus,Response*Focus
5e1bd786afb7a73f9acf643f,53xbkc9zeo,"Deep vs Shallow",1,1,2020-07-08T14:28:56-07:00,12.606770992279,4,versionC_stim.csv,RLVersionD.csv,"Relational Version D","Relational, read only version D",,,,,,0,Instruct,-,10,"In this section, you will be presented with a series of word pairs. Please study both items in the pair.",,Instruct13,12055,,,-1,-1,,,,1
5e1bd786afb7a73f9acf643f,53xbkc9zeo,"Deep vs Shallow",1,2,2020-07-08T14:29:13-07:00,16.571354866028,4,versionC_stim.csv,RLVersionD.csv,"Relational Version D","Relational, read only version D",,,,,,0,Instruct,-,15,"As you study, please think about how the two concepts are RELATED to each other. For example, if you see the pair TURTLE-CAT, think about how both are alive, they are both animals, and both can be kept as pets.",,Instruct19,15755,,,-1,-1,,,,1
5e1bd786afb7a73f9acf643f,53xbkc9zeo,"Deep vs Shallow",1,3,2020-07-08T14:29:29-07:00,16.437222003937,4,versionC_stim.csv,RLVersionD.csv,"Relational Version D","Relational, read only version D",,,,,,0,FreeRecall,-,10,"What you should think about as you study each item pair? Type your response in the box below.",,CHECK1,15628,"Think about how the two items are related",0,3602,12738,0,0,,1
5e1bd786afb7a73f9acf643f,53xbkc9zeo,"Deep vs Shallow",1,4,2020-07-08T14:29:34-07:00,4.1510720252991,4,versionC_stim.csv,RLVersionD.csv,"Relational Version D","Relational, read only version D",,,,,,0,Instruct,User,-,"You will now begin the experiment. Press ENTER when you are ready to begin.",,Instruct000,3546,,,-1,-1,,,,1
5e1bd786afb7a73f9acf643f,53xbkc9zeo,"Deep vs Shallow",1,5,2020-07-08T14:29:38-07:00,4.5940630435944,4,versionC_stim.csv,RLVersionD.csv,"Relational Version D","Relational, read only version D",STRING,NOODLE,BUFFER3,Buffer,92,94,Study,User,-,,Study/JOL,BUFFER,4011,,,-1,-1,,,,1
5e1bd786afb7a73f9acf643f,53xbkc9zeo,"Deep vs Shallow",1,6,2020-07-08T14:29:42-07:00,3.569207906723,4,versionC_stim.csv,RLVersionD.csv,"Relational Version D","Relational, read only version D",POTATO,CARROT,BUFFER3,Buffer,91,92,Study,User,-,,Study/JOL,BUFFER,2980,,,-1,-1,,,,1
5e1bd786afb7a73f9acf643f,53xbkc9zeo,"Deep vs Shallow",1,7,2020-07-08T14:29:46-07:00,3.9990072250366,4,versionC_stim.csv,RLVersionD.csv,"Relational Version D","Relational, read only version D",ADVENTURE,CAMP,BUFFER3,Buffer,95,93,Study,User,-,,Study/JOL,BUFFER,3407,,,-1,-1,,,,1
5e1bd786afb7a73f9acf643f,53xbkc9zeo,"Deep vs Shallow",1,8,2020-07-08T14:29:50-07:00,4.4640409946442,4,versionC_stim.csv,RLVersionD.csv,"Relational Version D","Relational, read only version D",FROZEN,ICE,BUFFER3,Buffer,94,96,Study,User,-,,Study/JOL,BUFFER,3880,,,-1,-1,,,,1
5e1bd786afb7a73f9acf643f,53xbkc9zeo,"Deep vs Shallow",1,9,2020-07-08T14:29:54-07:00,3.7205309867859,4,versionC_stim.csv,RLVersionD.csv,"Relational Version D","Relational, read only version D",FISH,SHRIMP,BUFFER3,Buffer,93,95,Study,User,-,,Study/JOL,BUFFER,3112,,,-1,-1,,,,1
5e1bd786afb7a73f9acf643f,53xbkc9zeo,"Deep vs Shallow",1,10,2020-07-08T14:30:01-07:00,6.6849060058594,4,versionC_stim.csv,RLVersionD.csv,"Relational Version D","Relational, read only version D",BANKER,MONEY,Study2,F,132,112,Study,User,-,,Study/JOL,"Study Phase",6094,,,-1,-1,,,,1
5e1bd786afb7a73f9acf643f,53xbkc9zeo,"Deep vs Shallow",1,11,2020-07-08T14:30:12-07:00,11.824557781219,4,versionC_stim.csv,RLVersionD.csv,"Relational Version D","Relational, read only version D",CLOTHES,CAKE,Study2,U,166,136,Study,User,-,,Study/JOL,"Study Phase",11019,,,-1,-1,,,,1
5e1bd786afb7a73f9acf643f,53xbkc9zeo,"Deep vs Shallow",1,12,2020-07-08T14:30:20-07:00,7.4458091259003,4,versionC_stim.csv,RLVersionD.csv,"Relational Version D","Relational, read only version D",PAPER,DOCUMENT,Study2,B,109,103,Study,User,-,,Study/JOL,"Study Phase",6846,,,-1,-1,,,,1
5e1bd786afb7a73f9acf643f,53xbkc9zeo,"Deep vs Shallow",1,13,2020-07-08T14:30:25-07:00,4.7832469940186,4,versionC_stim.csv,RLVersionD.csv,"Relational Version D","Relational, read only version D",TICK,FLEA,Study2,S,151,127,Study,User,-,,Study/JOL,"Study Phase",4184,,,-1,-1,,,,1
5e1bd786afb7a73f9acf643f,53xbkc9zeo,"Deep vs Shallow",1,14,2020-07-08T14:30:31-07:00,6.6784069538116,4,versionC_stim.csv,RLVersionD.csv,"Relational Version D","Relational, read only version D",LONG,EXTENSION,Study2,B,96,149,Study,User,-,,Study/JOL,"Study Phase",6084,,,-1,-1,,,,1
5e1bd786afb7a73f9acf643f,53xbkc9zeo,"Deep vs Shallow",1,15,2020-07-08T14:30:37-07:00,5.4132440090179,4,versionC_stim.csv,RLVersionD.csv,"Relational Version D","Relational, read only version D",COLD,CHILL,Study2,B,114,131,Study,User,-,,Study/JOL,"Study Phase",4822,,,-1,-1,,,,1
5e1bd786afb7a73f9acf643f,53xbkc9zeo,"Deep vs Shallow",1,16,2020-07-08T14:30:45-07:00,8.0886120796204,4,versionC_stim.csv,RLVersionD.csv,"Relational Version D","Relational, read only version D",NAP,SLEEP,Study2,F,134,115,Study,User,-,,Study/JOL,"Study Phase",7500,,,-1,-1,,,,1
5e1bd786afb7a73f9acf643f,53xbkc9zeo,"Deep vs Shallow",1,17,2020-07-08T14:30:55-07:00,10.102617025375,4,versionC_stim.csv,RLVersionD.csv,"Relational Version D","Relational, read only version D",OUNCE,BOTH,Study2,U,172,175,Study,User,-,,Study/JOL,"Study Phase",9502,,,-1,-1,,,,1
5e1bd786afb7a73f9acf643f,53xbkc9zeo,"Deep vs Shallow",1,18,2020-07-08T14:31:01-07:00,6.1604719161987,4,versionC_stim.csv,RLVersionD.csv,"Relational Version D","Relational, read only version D",COMMUNICATION,PHONE,Study2,S,149,113,Study,User,-,,Study/JOL,"Study Phase",5558,,,-1,-1,,,,1
5e1bd786afb7a73f9acf643f,53xbkc9zeo,"Deep vs Shallow",1,19,2020-07-08T14:31:08-07:00,6.6553559303284,4,versionC_stim.csv,RLVersionD.csv,"Relational Version D","Relational, read only version D",LIE,TRUTH,Study2,S,148,157,Study,User,-,,Study/JOL,"Study Phase",6063,,,-1,-1,,,,1
5e1bd786afb7a73f9acf643f,53xbkc9zeo,"Deep vs Shallow",1,20,2020-07-08T14:31:11-07:00,3.6722609996796,4,versionC_stim.csv,RLVersionD.csv,"Relational Version D","Relational, read only version D",CAR,DRIVER,Study2,B,106,154,Study,User,-,,Study/JOL,"Study Phase",3068,,,-1,-1,,,,1
5e1bd786afb7a73f9acf643f,53xbkc9zeo,"Deep vs Shallow",1,21,2020-07-08T14:31:18-07:00,6.217404127121,4,versionC_stim.csv,RLVersionD.csv,"Relational Version D","Relational, read only version D",ELECTION,MAZE,Study2,U,159,98,Study,User,-,,Study/JOL,"Study Phase",5627,,,-1,-1,,,,1
5e1bd786afb7a73f9acf643f,53xbkc9zeo,"Deep vs Shallow",1,22,2020-07-08T14:31:29-07:00,11.035213947296,4,versionC_stim.csv,RLVersionD.csv,"Relational Version D","Relational, read only version D",CLOTH,STRETCH,Study2,U,157,170,Study,User,-,,Study/JOL,"Study Phase",10235,,,-1,-1,,,,1
5e1bd786afb7a73f9acf643f,53xbkc9zeo,"Deep vs Shallow",1,23,2020-07-08T14:31:34-07:00,5.1769199371338,4,versionC_stim.csv,RLVersionD.csv,"Relational Version D","Relational, read only version D",STEAK,GIVE,Study2,U,158,167,Study,User,-,,Study/JOL,"Study Phase",4589,,,-1,-1,,,,1
5e1bd786afb7a73f9acf643f,53xbkc9zeo,"Deep vs Shallow",1,24,2020-07-08T14:31:42-07:00,7.951807975769,4,versionC_stim.csv,RLVersionD.csv,"Relational Version D","Relational, read only version D",TRASH,LITTER,Study2,B,103,176,Study,User,-,,Study/JOL,"Study Phase",7365,,,-1,-1,,,,1
5e1bd786afb7a73f9acf643f,53xbkc9zeo,"Deep vs Shallow",1,25,2020-07-08T14:31:46-07:00,4.0495471954346,4,versionC_stim.csv,RLVersionD.csv,"Relational Version D","Relational, read only version D",SCISSORS,SHEARS,Study2,B,112,123,Study,User,-,,Study/JOL,"Study Phase",3461,,,-1,-1,,,,1
5e1bd786afb7a73f9acf643f,53xbkc9zeo,"Deep vs Shallow",1,26,2020-07-08T14:31:51-07:00,5.0331609249115,4,versionC_stim.csv,RLVersionD.csv,"Relational Version D","Relational, read only version D",HEAD,SCALP,Study2,B,105,128,Study,User,-,,Study/JOL,"Study Phase",4436,,,-1,-1,,,,1
5e1bd786afb7a73f9acf643f,53xbkc9zeo,"Deep vs Shallow",1,27,2020-07-08T14:31:57-07:00,6.5495889186859,4,versionC_stim.csv,RLVersionD.csv,"Relational Version D","Relational, read only version D",SARDINE,FISH,Study2,F,130,129,Study,User,-,,Study/JOL,"Study Phase",5946,,,-1,-1,,,,1
5e1bd786afb7a73f9acf643f,53xbkc9zeo,"Deep vs Shallow",1,28,2020-07-08T14:32:02-07:00,4.0756871700287,4,versionC_stim.csv,RLVersionD.csv,"Relational Version D","Relational, read only version D",GAME,CLUE,Study2,B,97,164,Study,User,-,,Study/JOL,"Study Phase",3474,,,-1,-1,,,,1
5e1bd786afb7a73f9acf643f,53xbkc9zeo,"Deep vs Shallow",1,29,2020-07-08T14:32:05-07:00,3.6760578155518,4,versionC_stim.csv,RLVersionD.csv,"Relational Version D","Relational, read only version D",PLANT,CACTUS,Study2,B,98,135,Study,User,-,,Study/JOL,"Study Phase",3072,,,-1,-1,,,,1
5e1bd786afb7a73f9acf643f,53xbkc9zeo,"Deep vs Shallow",1,30,2020-07-08T14:32:11-07:00,6.1995940208435,4,versionC_stim.csv,RLVersionD.csv,"Relational Version D","Relational, read only version D",SCAR,MAIN,Study2,U,175,174,Study,User,-,,Study/JOL,"Study Phase",5596,,,-1,-1,,,,1
5e1bd786afb7a73f9acf643f,53xbkc9zeo,"Deep vs Shallow",1,31,2020-07-08T14:32:18-07:00,6.2264039516449,4,versionC_stim.csv,RLVersionD.csv,"Relational Version D","Relational, read only version D",WET,DRY,Study2,S,146,147,Study,User,-,,Study/JOL,"Study Phase",5628,,,-1,-1,,,,1
5e1bd786afb7a73f9acf643f,53xbkc9zeo,"Deep vs Shallow",1,32,2020-07-08T14:32:23-07:00,4.9353229999542,4,versionC_stim.csv,RLVersionD.csv,"Relational Version D","Relational, read only version D",STRAWBERRY,FRUIT,Study2,F,124,163,Study,User,-,,Study/JOL,"Study Phase",4329,,,-1,-1,,,,1
5e1bd786afb7a73f9acf643f,53xbkc9zeo,"Deep vs Shallow",1,33,2020-07-08T14:32:25-07:00,2.8809690475464,4,versionC_stim.csv,RLVersionD.csv,"Relational Version D","Relational, read only version D",PANTHER,CAT,Study2,F,126,116,Study,User,-,,Study/JOL,"Study Phase",2299,,,-1,-1,,,,1
5e1bd786afb7a73f9acf643f,53xbkc9zeo,"Deep vs Shallow",1,34,2020-07-08T14:32:29-07:00,3.3803839683533,4,versionC_stim.csv,RLVersionD.csv,"Relational Version D","Relational, read only version D",SEATBELT,SAFETY,Study2,S,147,162,Study,User,-,,Study/JOL,"Study Phase",2641,,,-1,-1,,,,1
5e1bd786afb7a73f9acf643f,53xbkc9zeo,"Deep vs Shallow",1,35,2020-07-08T14:32:35-07:00,5.8052611351013,4,versionC_stim.csv,RLVersionD.csv,"Relational Version D","Relational, read only version D",HAVE,OWN,Study2,S,153,117,Study,User,-,,Study/JOL,"Study Phase",4200,,,-1,-1,,,,1
5e1bd786afb7a73f9acf643f,53xbkc9zeo,"Deep vs Shallow",1,36,2020-07-08T14:32:40-07:00,5.7067608833313,4,versionC_stim.csv,RLVersionD.csv,"Relational Version D","Relational, read only version D",REEL,ROD,Study2,S,150,114,Study,User,-,,Study/JOL,"Study Phase",5110,,,-1,-1,,,,1
5e1bd786afb7a73f9acf643f,53xbkc9zeo,"Deep vs Shallow",1,37,2020-07-08T14:32:44-07:00,3.6367890834808,4,versionC_stim.csv,RLVersionD.csv,"Relational Version D","Relational, read only version D",DRINK,WATER,Study2,S,143,130,Study,User,-,,Study/JOL,"Study Phase",2968,,,-1,-1,,,,1
5e1bd786afb7a73f9acf643f,53xbkc9zeo,"Deep vs Shallow",1,38,2020-07-08T14:32:52-07:00,8.0069658756256,4,versionC_stim.csv,RLVersionD.csv,"Relational Version D","Relational, read only version D",THIMBLE,THREAD,Study2,F,121,97,Study,User,-,,Study/JOL,"Study Phase",6359,,,-1,-1,,,,1
5e1bd786afb7a73f9acf643f,53xbkc9zeo,"Deep vs Shallow",1,39,2020-07-08T14:32:57-07:00,4.9662091732025,4,versionC_stim.csv,RLVersionD.csv,"Relational Version D","Relational, read only version D",LEAGUE,BASEBALL,Study2,F,131,120,Study,User,-,,Study/JOL,"Study Phase",4379,,,-1,-1,,,,1
5e1bd786afb7a73f9acf643f,53xbkc9zeo,"Deep vs Shallow",1,40,2020-07-08T14:33:01-07:00,4.1179809570312,4,versionC_stim.csv,RLVersionD.csv,"Relational Version D","Relational, read only version D",TIE,SHOELACE,Study2,B,99,122,Study,User,-,,Study/JOL,"Study Phase",3507,,,-1,-1,,,,1
5e1bd786afb7a73f9acf643f,53xbkc9zeo,"Deep vs Shallow",1,41,2020-07-08T14:33:06-07:00,4.804780960083,4,versionC_stim.csv,RLVersionD.csv,"Relational Version D","Relational, read only version D",SIGN,LOAN,Study2,U,171,159,Study,User,-,,Study/JOL,"Study Phase",4208,,,-1,-1,,,,1
5e1bd786afb7a73f9acf643f,53xbkc9zeo,"Deep vs Shallow",1,42,2020-07-08T14:33:15-07:00,8.8225619792938,4,versionC_stim.csv,RLVersionD.csv,"Relational Version D","Relational, read only version D",JOKE,KEYS,Study2,U,165,124,Study,User,-,,Study/JOL,"Study Phase",8232,,,-1,-1,,,,1
5e1bd786afb7a73f9acf643f,53xbkc9zeo,"Deep vs Shallow",1,43,2020-07-08T14:33:20-07:00,5.6651351451874,4,versionC_stim.csv,RLVersionD.csv,"Relational Version D","Relational, read only version D",BRAWL,FIGHT,Study2,F,135,153,Study,User,-,,Study/JOL,"Study Phase",5053,,,-1,-1,,,,1
5e1bd786afb7a73f9acf643f,53xbkc9zeo,"Deep vs Shallow",1,44,2020-07-08T14:33:28-07:00,7.992155790329,4,versionC_stim.csv,RLVersionD.csv,"Relational Version D","Relational, read only version D",,,,,,0,Instruct,-,3,"Remember to focus on how the two items are similiar while you study!",,CHECK2,7404,,,-1,-1,,,,1
5e1bd786afb7a73f9acf643f,53xbkc9zeo,"Deep vs Shallow",1,45,2020-07-08T14:33:34-07:00,6.0522110462189,4,versionC_stim.csv,RLVersionD.csv,"Relational Version D","Relational, read only version D",COFFIN,DEAD,Study2,F,128,100,Study,User,-,,Study/JOL,"Study Phase",5445,,,-1,-1,,,,1
5e1bd786afb7a73f9acf643f,53xbkc9zeo,"Deep vs Shallow",1,46,2020-07-08T14:33:39-07:00,4.8248960971832,4,versionC_stim.csv,RLVersionD.csv,"Relational Version D","Relational, read only version D",JAR,MASON,Study2,S,138,145,Study,User,-,,Study/JOL,"Study Phase",4223,,,-1,-1,,,,1
5e1bd786afb7a73f9acf643f,53xbkc9zeo,"Deep vs Shallow",1,47,2020-07-08T14:33:45-07:00,5.973788022995,4,versionC_stim.csv,RLVersionD.csv,"Relational Version D","Relational, read only version D",LONELY,ALONE,Study2,S,145,172,Study,User,-,,Study/JOL,"Study Phase",5379,,,-1,-1,,,,1
5e1bd786afb7a73f9acf643f,53xbkc9zeo,"Deep vs Shallow",1,48,2020-07-08T14:33:50-07:00,5.1656270027161,4,versionC_stim.csv,RLVersionD.csv,"Relational Version D","Relational, read only version D",SHAVE,RAZOR,Study2,S,136,148,Study,User,-,,Study/JOL,"Study Phase",4568,,,-1,-1,,,,1
5e1bd786afb7a73f9acf643f,53xbkc9zeo,"Deep vs Shallow",1,49,2020-07-08T14:33:57-07:00,7.0070748329163,4,versionC_stim.csv,RLVersionD.csv,"Relational Version D","Relational, read only version D",WAX,CANDLE,Study2,S,139,110,Study,User,-,,Study/JOL,"Study Phase",6408,,,-1,-1,,,,1
5e1bd786afb7a73f9acf643f,53xbkc9zeo,"Deep vs Shallow",1,50,2020-07-08T14:34:06-07:00,8.895886182785,4,versionC_stim.csv,RLVersionD.csv,"Relational Version D","Relational, read only version D",EQUAL,RIGHTS,Study2,S,137,143,Study,User,-,,Study/JOL,"Study Phase",7296,,,-1,-1,,,,1
5e1bd786afb7a73f9acf643f,53xbkc9zeo,"Deep vs Shallow",1,51,2020-07-08T14:34:19-07:00,12.445386886597,4,versionC_stim.csv,RLVersionD.csv,"Relational Version D","Relational, read only version D",Morning,TEMPERATURE,Study2,U,173,121,Study,User,-,,Study/JOL,"Study Phase",11642,,,-1,-1,,,,1
5e1bd786afb7a73f9acf643f,53xbkc9zeo,"Deep vs Shallow",1,52,2020-07-08T14:34:24-07:00,5.2138850688934,4,versionC_stim.csv,RLVersionD.csv,"Relational Version D","Relational, read only version D",SMELL,INCENSE,Study2,B,110,108,Study,User,-,,Study/JOL,"Study Phase",4617,,,-1,-1,,,,1
5e1bd786afb7a73f9acf643f,53xbkc9zeo,"Deep vs Shallow",1,53,2020-07-08T14:34:51-07:00,27.402912855148,4,versionC_stim.csv,RLVersionD.csv,"Relational Version D","Relational, read only version D",FICTION,LISTEN,Study2,U,164,118,Study,User,-,,Study/JOL,"Study Phase",26594,,,-1,-1,,,,1
5e1bd786afb7a73f9acf643f,53xbkc9zeo,"Deep vs Shallow",1,54,2020-07-08T14:34:56-07:00,4.7755300998688,4,versionC_stim.csv,RLVersionD.csv,"Relational Version D","Relational, read only version D",REVENGE,EVEN,Study2,F,122,166,Study,User,-,,Study/JOL,"Study Phase",4170,,,-1,-1,,,,1
5e1bd786afb7a73f9acf643f,53xbkc9zeo,"Deep vs Shallow",1,55,2020-07-08T14:35:04-07:00,7.7073080539703,4,versionC_stim.csv,RLVersionD.csv,"Relational Version D","Relational, read only version D",OBTAIN,MEAT,Study2,U,161,109,Study,User,-,,Study/JOL,"Study Phase",7114,,,-1,-1,,,,1
5e1bd786afb7a73f9acf643f,53xbkc9zeo,"Deep vs Shallow",1,56,2020-07-08T14:35:12-07:00,7.9386839866638,4,versionC_stim.csv,RLVersionD.csv,"Relational Version D","Relational, read only version D",SHAKE,Shell,Study2,U,163,140,Study,User,-,,Study/JOL,"Study Phase",7315,,,-1,-1,,,,1
5e1bd786afb7a73f9acf643f,53xbkc9zeo,"Deep vs Shallow",1,57,2020-07-08T14:35:18-07:00,6.1882500648499,4,versionC_stim.csv,RLVersionD.csv,"Relational Version D","Relational, read only version D",FIGHT,FEUD,Study2,B,113,158,Study,User,-,,Study/JOL,"Study Phase",5592,,,-1,-1,,,,1
5e1bd786afb7a73f9acf643f,53xbkc9zeo,"Deep vs Shallow",1,58,2020-07-08T14:35:23-07:00,5.0804829597473,4,versionC_stim.csv,RLVersionD.csv,"Relational Version D","Relational, read only version D",CLEAR,MOAT,Study2,U,169,155,Study,User,-,,Study/JOL,"Study Phase",4483,,,-1,-1,,,,1
5e1bd786afb7a73f9acf643f,53xbkc9zeo,"Deep vs Shallow",1,59,2020-07-08T14:35:29-07:00,6.1682360172272,4,versionC_stim.csv,RLVersionD.csv,"Relational Version D","Relational, read only version D",HATE,NAME,Study2,U,167,165,Study,User,-,,Study/JOL,"Study Phase",5575,,,-1,-1,,,,1
5e1bd786afb7a73f9acf643f,53xbkc9zeo,"Deep vs Shallow",1,60,2020-07-08T14:35:34-07:00,4.4601058959961,4,versionC_stim.csv,RLVersionD.csv,"Relational Version D","Relational, read only version D",RED,CHERRY,Study2,B,104,107,Study,User,-,,Study/JOL,"Study Phase",3853,,,-1,-1,,,,1
5e1bd786afb7a73f9acf643f,53xbkc9zeo,"Deep vs Shallow",1,61,2020-07-08T14:35:39-07:00,5.3668479919434,4,versionC_stim.csv,RLVersionD.csv,"Relational Version D","Relational, read only version D",ACTRESS,STAR,Study2,F,120,168,Study,User,-,,Study/JOL,"Study Phase",4747,,,-1,-1,,,,1
5e1bd786afb7a73f9acf643f,53xbkc9zeo,"Deep vs Shallow",1,62,2020-07-08T14:35:43-07:00,3.5970349311829,4,versionC_stim.csv,RLVersionD.csv,"Relational Version D","Relational, read only version D",VILLAIN,BAD,Study2,F,118,102,Study,User,-,,Study/JOL,"Study Phase",3007,,,-1,-1,,,,1
5e1bd786afb7a73f9acf643f,53xbkc9zeo,"Deep vs Shallow",1,63,2020-07-08T14:35:51-07:00,8.2664830684662,4,versionC_stim.csv,RLVersionD.csv,"Relational Version D","Relational, read only version D",CHARM,VEHICLE,Study2,U,160,105,Study,User,-,,Study/JOL,"Study Phase",7669,,,-1,-1,,,,1
5e1bd786afb7a73f9acf643f,53xbkc9zeo,"Deep vs Shallow",1,64,2020-07-08T14:35:58-07:00,7.1246860027313,4,versionC_stim.csv,RLVersionD.csv,"Relational Version D","Relational, read only version D",TAN,SUN,Study2,S,155,151,Study,User,-,,Study/JOL,"Study Phase",6527,,,-1,-1,,,,1
5e1bd786afb7a73f9acf643f,53xbkc9zeo,"Deep vs Shallow",1,65,2020-07-08T14:36:03-07:00,5.2102551460266,4,versionC_stim.csv,RLVersionD.csv,"Relational Version D","Relational, read only version D",GROUND,EARTH,Study2,S,144,106,Study,User,-,,Study/JOL,"Study Phase",4620,,,-1,-1,,,,1
5e1bd786afb7a73f9acf643f,53xbkc9zeo,"Deep vs Shallow",1,66,2020-07-08T14:36:12-07:00,8.3997459411621,4,versionC_stim.csv,RLVersionD.csv,"Relational Version D","Relational, read only version D",TOIL,LEASE,Study2,U,170,119,Study,User,-,,Study/JOL,"Study Phase",7796,,,-1,-1,,,,1
5e1bd786afb7a73f9acf643f,53xbkc9zeo,"Deep vs Shallow",1,67,2020-07-08T14:36:14-07:00,2.832288980484,4,versionC_stim.csv,RLVersionD.csv,"Relational Version D","Relational, read only version D",BALLOON,POP,Study2,F,123,141,Study,User,-,,Study/JOL,"Study Phase",2210,,,-1,-1,,,,1
5e1bd786afb7a73f9acf643f,53xbkc9zeo,"Deep vs Shallow",1,68,2020-07-08T14:36:21-07:00,6.2418398857117,4,versionC_stim.csv,RLVersionD.csv,"Relational Version D","Relational, read only version D",NOISE,LOUD,Study2,S,152,146,Study,User,-,,Study/JOL,"Study Phase",5645,,,-1,-1,,,,1
5e1bd786afb7a73f9acf643f,53xbkc9zeo,"Deep vs Shallow",1,69,2020-07-08T14:36:24-07:00,3.5757381916046,4,versionC_stim.csv,RLVersionD.csv,"Relational Version D","Relational, read only version D",TEMPER,TANTRUM,Study2,S,154,132,Study,User,-,,Study/JOL,"Study Phase",2971,,,-1,-1,,,,1
5e1bd786afb7a73f9acf643f,53xbkc9zeo,"Deep vs Shallow",1,70,2020-07-08T14:36:29-07:00,4.4548208713531,4,versionC_stim.csv,RLVersionD.csv,"Relational Version D","Relational, read only version D",CARBON,ELEMENT,Study2,S,141,144,Study,User,-,,Study/JOL,"Study Phase",3859,,,-1,-1,,,,1
5e1bd786afb7a73f9acf643f,53xbkc9zeo,"Deep vs Shallow",1,71,2020-07-08T14:36:34-07:00,5.6376609802246,4,versionC_stim.csv,RLVersionD.csv,"Relational Version D","Relational, read only version D",DOG,FURRY,Study2,B,102,156,Study,User,-,,Study/JOL,"Study Phase",5044,,,-1,-1,,,,1
5e1bd786afb7a73f9acf643f,53xbkc9zeo,"Deep vs Shallow",1,72,2020-07-08T14:36:40-07:00,5.4312181472778,4,versionC_stim.csv,RLVersionD.csv,"Relational Version D","Relational, read only version D",FAVORITE,BEST,Study2,F,125,125,Study,User,-,,Study/JOL,"Study Phase",4834,,,-1,-1,,,,1
5e1bd786afb7a73f9acf643f,53xbkc9zeo,"Deep vs Shallow",1,73,2020-07-08T14:36:43-07:00,3.4566838741302,4,versionC_stim.csv,RLVersionD.csv,"Relational Version D","Relational, read only version D",LOVE,AFFECTION,Study2,B,115,104,Study,User,-,,Study/JOL,"Study Phase",2871,,,-1,-1,,,,1
5e1bd786afb7a73f9acf643f,53xbkc9zeo,"Deep vs Shallow",1,74,2020-07-08T14:36:50-07:00,6.3129739761353,4,versionC_stim.csv,RLVersionD.csv,"Relational Version D","Relational, read only version D",MYSTERY,DETECTIVE,Study2,B,100,139,Study,User,-,,Study/JOL,"Study Phase",5724,,,-1,-1,,,,1
5e1bd786afb7a73f9acf643f,53xbkc9zeo,"Deep vs Shallow",1,75,2020-07-08T14:36:55-07:00,5.8417630195618,4,versionC_stim.csv,RLVersionD.csv,"Relational Version D","Relational, read only version D",DONKEY,MULE,Study2,B,108,142,Study,User,-,,Study/JOL,"Study Phase",5135,,,-1,-1,,,,1
5e1bd786afb7a73f9acf643f,53xbkc9zeo,"Deep vs Shallow",1,76,2020-07-08T14:37:03-07:00,7.9717180728912,4,versionC_stim.csv,RLVersionD.csv,"Relational Version D","Relational, read only version D",BANG,FUZZY,Study2,U,168,160,Study,User,-,,Study/JOL,"Study Phase",7356,,,-1,-1,,,,1
5e1bd786afb7a73f9acf643f,53xbkc9zeo,"Deep vs Shallow",1,77,2020-07-08T14:37:08-07:00,4.4498980045319,4,versionC_stim.csv,RLVersionD.csv,"Relational Version D","Relational, read only version D",FLIP,TURN,Study2,F,116,152,Study,User,-,,Study/JOL,"Study Phase",3846,,,-1,-1,,,,1
5e1bd786afb7a73f9acf643f,53xbkc9zeo,"Deep vs Shallow",1,78,2020-07-08T14:37:11-07:00,2.8530929088593,4,versionC_stim.csv,RLVersionD.csv,"Relational Version D","Relational, read only version D",PENGUIN,BIRD,Study2,F,119,161,Study,User,-,,Study/JOL,"Study Phase",2273,,,-1,-1,,,,1
5e1bd786afb7a73f9acf643f,53xbkc9zeo,"Deep vs Shallow",1,79,2020-07-08T14:37:16-07:00,5.0097451210022,4,versionC_stim.csv,RLVersionD.csv,"Relational Version D","Relational, read only version D",CUT,CHOP,Study2,B,107,171,Study,User,-,,Study/JOL,"Study Phase",4402,,,-1,-1,,,,1
5e1bd786afb7a73f9acf643f,53xbkc9zeo,"Deep vs Shallow",1,80,2020-07-08T14:37:22-07:00,6.07856798172,4,versionC_stim.csv,RLVersionD.csv,"Relational Version D","Relational, read only version D",TRUTHFUL,HONEST,Study2,F,133,101,Study,User,-,,Study/JOL,"Study Phase",5492,,,-1,-1,,,,1
5e1bd786afb7a73f9acf643f,53xbkc9zeo,"Deep vs Shallow",1,81,2020-07-08T14:37:32-07:00,10.54185295105,4,versionC_stim.csv,RLVersionD.csv,"Relational Version D","Relational, read only version D",BREAKABLE,GLASS,Study2,F,127,173,Study,User,-,,Study/JOL,"Study Phase",9741,,,-1,-1,,,,1
5e1bd786afb7a73f9acf643f,53xbkc9zeo,"Deep vs Shallow",1,82,2020-07-08T14:37:42-07:00,9.6566829681396,4,versionC_stim.csv,RLVersionD.csv,"Relational Version D","Relational, read only version D",MAROON,JUSTICE,Study2,U,156,133,Study,User,-,,Study/JOL,"Study Phase",9029,,,-1,-1,,,,1
5e1bd786afb7a73f9acf643f,53xbkc9zeo,"Deep vs Shallow",1,83,2020-07-08T14:37:49-07:00,7.3794310092926,4,versionC_stim.csv,RLVersionD.csv,"Relational Version D","Relational, read only version D",END,ADJOURN,Study2,B,101,169,Study,User,-,,Study/JOL,"Study Phase",6784,,,-1,-1,,,,1
5e1bd786afb7a73f9acf643f,53xbkc9zeo,"Deep vs Shallow",1,84,2020-07-08T14:38:04-07:00,14.465936899185,4,versionC_stim.csv,RLVersionD.csv,"Relational Version D","Relational, read only version D",ABLE,CRACKLE,Study2,U,162,138,Study,User,-,,Study/JOL,"Study Phase",13655,,,-1,-1,,,,1
5e1bd786afb7a73f9acf643f,53xbkc9zeo,"Deep vs Shallow",1,85,2020-07-08T14:38:12-07:00,8.5834701061249,4,versionC_stim.csv,RLVersionD.csv,"Relational Version D","Relational, read only version D",BRACELET,WRIST,Study2,S,140,134,Study,User,-,,Study/JOL,"Study Phase",7977,,,-1,-1,,,,1
5e1bd786afb7a73f9acf643f,53xbkc9zeo,"Deep vs Shallow",1,86,2020-07-08T14:38:20-07:00,7.4946448802948,4,versionC_stim.csv,RLVersionD.csv,"Relational Version D","Relational, read only version D",EAT,DINE,Study2,B,111,137,Study,User,-,,Study/JOL,"Study Phase",6892,,,-1,-1,,,,1
5e1bd786afb7a73f9acf643f,53xbkc9zeo,"Deep vs Shallow",1,87,2020-07-08T14:38:26-07:00,6.2099010944366,4,versionC_stim.csv,RLVersionD.csv,"Relational Version D","Relational, read only version D",CHILDREN,MIRROR,Study2,U,174,111,Study,User,-,,Study/JOL,"Study Phase",5612,,,-1,-1,,,,1
5e1bd786afb7a73f9acf643f,53xbkc9zeo,"Deep vs Shallow",1,88,2020-07-08T14:38:32-07:00,6.0393860340118,4,versionC_stim.csv,RLVersionD.csv,"Relational Version D","Relational, read only version D",AIRCRAFT,PLANE,Study2,F,129,126,Study,User,-,,Study/JOL,"Study Phase",5448,,,-1,-1,,,,1
5e1bd786afb7a73f9acf643f,53xbkc9zeo,"Deep vs Shallow",1,89,2020-07-08T14:38:39-07:00,7.3284480571747,4,versionC_stim.csv,RLVersionD.csv,"Relational Version D","Relational, read only version D",AWAY,GONE,Study2,S,142,99,Study,User,-,,Study/JOL,"Study Phase",6732,,,-1,-1,,,,1
5e1bd786afb7a73f9acf643f,53xbkc9zeo,"Deep vs Shallow",1,90,2020-07-08T14:38:43-07:00,3.0848219394684,4,versionC_stim.csv,RLVersionD.csv,"Relational Version D","Relational, read only version D",WINDSHIELD,CAR,Study2,F,117,150,Study,User,-,,Study/JOL,"Study Phase",2464,,,-1,-1,,,,1
5e1bd786afb7a73f9acf643f,53xbkc9zeo,"Deep vs Shallow",1,91,2020-07-08T14:38:47-07:00,4.6180729866028,4,versionC_stim.csv,RLVersionD.csv,"Relational Version D","Relational, read only version D",SHED,TOOL,BUFFER4,Buffer,178,178,Study,User,-,,Study/JOL,BUFFER2,3024,,,-1,-1,,,,1
5e1bd786afb7a73f9acf643f,53xbkc9zeo,"Deep vs Shallow",1,92,2020-07-08T14:38:56-07:00,8.9340538978577,4,versionC_stim.csv,RLVersionD.csv,"Relational Version D","Relational, read only version D",MARCH,SPRING,BUFFER4,Buffer,179,180,Study,User,-,,Study/JOL,BUFFER2,8330,,,-1,-1,,,,1
5e1bd786afb7a73f9acf643f,53xbkc9zeo,"Deep vs Shallow",1,93,2020-07-08T14:39:00-07:00,3.9340012073517,4,versionC_stim.csv,RLVersionD.csv,"Relational Version D","Relational, read only version D",SPOOKY,OCTOBER,BUFFER4,Buffer,180,181,Study,User,-,,Study/JOL,BUFFER2,3334,,,-1,-1,,,,1
5e1bd786afb7a73f9acf643f,53xbkc9zeo,"Deep vs Shallow",1,94,2020-07-08T14:39:06-07:00,5.7263188362122,4,versionC_stim.csv,RLVersionD.csv,"Relational Version D","Relational, read only version D",WEAKS,DAYS,BUFFER4,Buffer,176,179,Study,User,-,,Study/JOL,BUFFER2,5126,,,-1,-1,,,,1
5e1bd786afb7a73f9acf643f,53xbkc9zeo,"Deep vs Shallow",1,95,2020-07-08T14:39:09-07:00,2.8542830944061,4,versionC_stim.csv,RLVersionD.csv,"Relational Version D","Relational, read only version D",YEAR,MONTH,BUFFER4,Buffer,177,177,Study,User,-,,Study/JOL,BUFFER2,2251,,,-1,-1,,,,1
5e1bd786afb7a73f9acf643f,53xbkc9zeo,"Deep vs Shallow",1,96,2020-07-08T14:39:11-07:00,2.0180289745331,4,versionC_stim.csv,RLVersionD.csv,"Relational Version D","Relational, read only version D",,,,,,0,Instruct,User,-,"You have completed this section. Please press Enter.",Filler_Instruction,Instruct2,1431,,,-1,-1,,,,1
5e1bd786afb7a73f9acf643f,53xbkc9zeo,"Deep vs Shallow",1,97,2020-07-08T14:39:13-07:00,2.0884780883789,4,versionC_stim.csv,RLVersionD.csv,"Relational Version D","Relational, read only version D",,,,,,0,Instruct,User,-,"You have completed this section. Please press Enter.",Filler_Instruction,Instruct5,1496,,,-1,-1,,,,1
5e1bd786afb7a73f9acf643f,53xbkc9zeo,"Deep vs Shallow",1,98,2020-07-08T14:39:25-07:00,12.751199960709,4,versionC_stim.csv,RLVersionD.csv,"Relational Version D","Relational, read only version D",,,,,,0,FreeRecall,-,10,"What were you supposed to focus on while you studied each pair? (Hint: Think back to the instructions). Type your answer in the space below.",,CHECK3,11943,"Focus on how the two words are related",0,3526,8750,0,0,,1
5e1bd786afb7a73f9acf643f,53xbkc9zeo,"Deep vs Shallow",1,99,2020-07-08T14:41:26-07:00,120.82207584381,4,versionC_stim.csv,RLVersionD.csv,"Relational Version D","Relational, read only version D",,,,,,0,FreeRecall,120,120,"Please list the 50 US states in alphabetical order. The task will automatically advance to the next screen after two minutes.",,Filler1,120001,"Alabama Alaska California Florida Mississipi Nebraska New Jersey Texas Washington ",0,5817,115841,0,0,,1
5e1bd786afb7a73f9acf643f,53xbkc9zeo,"Deep vs Shallow",1,100,2020-07-08T14:41:42-07:00,15.711422204971,4,versionC_stim.csv,RLVersionD.csv,"Relational Version D","Relational, read only version D",,,,,,0,Instruct,-,10,"You will now be presented with the first word from each of the previously studied item pairs. Please type the missing word. If you do not know the word, you may guess or press Enter to skip forward to the next pair.",,Instruct3,14894,,,-1,-1,,,,1
5e1bd786afb7a73f9acf643f,53xbkc9zeo,"Deep vs Shallow",1,101,2020-07-08T14:41:57-07:00,15.025480985641,4,versionC_stim.csv,RLVersionD.csv,"Relational Version D","Relational, read only version D",COLD,CHILL,Study2,B,114,131,Test,User,-,,Recall,Recall1,14214,Chill,100,12072,12632,1,1,,1
5e1bd786afb7a73f9acf643f,53xbkc9zeo,"Deep vs Shallow",1,102,2020-07-08T14:42:00-07:00,3.2247078418732,4,versionC_stim.csv,RLVersionD.csv,"Relational Version D","Relational, read only version D",DRINK,WATER,Study2,S,143,130,Test,User,-,,Recall,Recall1,2630,water,100,1932,2388,1,1,,1
5e1bd786afb7a73f9acf643f,53xbkc9zeo,"Deep vs Shallow",1,103,2020-07-08T14:42:14-07:00,13.820474147797,4,versionC_stim.csv,RLVersionD.csv,"Relational Version D","Relational, read only version D",LEAGUE,BASEBALL,Study2,F,131,120,Test,User,-,,Recall,Recall1,13002,sport,15.384615384615,12425,12865,0,0,,1
5e1bd786afb7a73f9acf643f,53xbkc9zeo,"Deep vs Shallow",1,104,2020-07-08T14:42:17-07:00,3.2292308807373,4,versionC_stim.csv,RLVersionD.csv,"Relational Version D","Relational, read only version D",BALLOON,POP,Study2,F,123,141,Test,User,-,,Recall,Recall1,2603,hot,33.333333333333,2106,2378,0,0,,1
5e1bd786afb7a73f9acf643f,53xbkc9zeo,"Deep vs Shallow",1,105,2020-07-08T14:42:20-07:00,2.5377609729767,4,versionC_stim.csv,RLVersionD.csv,"Relational Version D","Relational, read only version D",HAVE,OWN,Study2,S,153,117,Test,User,-,,Recall,Recall1,1907,want,57.142857142857,1466,1762,0,0,,1
5e1bd786afb7a73f9acf643f,53xbkc9zeo,"Deep vs Shallow",1,106,2020-07-08T14:42:26-07:00,5.7576241493225,4,versionC_stim.csv,RLVersionD.csv,"Relational Version D","Relational, read only version D",ELECTION,MAZE,Study2,U,159,98,Test,User,-,,Recall,Recall1,4926,vote,25,4398,4725,0,0,,1
5e1bd786afb7a73f9acf643f,53xbkc9zeo,"Deep vs Shallow",1,107,2020-07-08T14:42:28-07:00,2.263365983963,4,versionC_stim.csv,RLVersionD.csv,"Relational Version D","Relational, read only version D",BRAWL,FIGHT,Study2,F,135,153,Test,User,-,,Recall,Recall1,1658,fight,100,1169,1552,1,1,,1
5e1bd786afb7a73f9acf643f,53xbkc9zeo,"Deep vs Shallow",1,108,2020-07-08T14:42:31-07:00,2.6885259151459,4,versionC_stim.csv,RLVersionD.csv,"Relational Version D","Relational, read only version D",AIRCRAFT,PLANE,Study2,F,129,126,Test,User,-,,Recall,Recall1,2081,plane,100,1576,1945,1,1,,1
5e1bd786afb7a73f9acf643f,53xbkc9zeo,"Deep vs Shallow",1,109,2020-07-08T14:42:52-07:00,21.523119926453,4,versionC_stim.csv,RLVersionD.csv,"Relational Version D","Relational, read only version D",REVENGE,EVEN,Study2,F,122,166,Test,User,-,,Recall,Recall1,20713,cold,0,20201,20529,0,0,,1
5e1bd786afb7a73f9acf643f,53xbkc9zeo,"Deep vs Shallow",1,110,2020-07-08T14:42:55-07:00,2.7771501541138,4,versionC_stim.csv,RLVersionD.csv,"Relational Version D","Relational, read only version D",NOISE,LOUD,Study2,S,152,146,Test,User,-,,Recall,Recall1,2181,loud,100,1589,2004,1,1,,1
5e1bd786afb7a73f9acf643f,53xbkc9zeo,"Deep vs Shallow",1,111,2020-07-08T14:43:00-07:00,5.5689618587494,4,versionC_stim.csv,RLVersionD.csv,"Relational Version D","Relational, read only version D",Morning,TEMPERATURE,Study2,U,173,121,Test,User,-,,Recall,Recall1,4972,day,14.285714285714,4331,4539,0,0,,1
5e1bd786afb7a73f9acf643f,53xbkc9zeo,"Deep vs Shallow",1,112,2020-07-08T14:43:05-07:00,4.1308791637421,4,versionC_stim.csv,RLVersionD.csv,"Relational Version D","Relational, read only version D",BANKER,MONEY,Study2,F,132,112,Test,User,-,,Recall,Recall1,3531,money,100,2786,3233,1,1,,1
5e1bd786afb7a73f9acf643f,53xbkc9zeo,"Deep vs Shallow",1,113,2020-07-08T14:43:12-07:00,7.8168158531189,4,versionC_stim.csv,RLVersionD.csv,"Relational Version D","Relational, read only version D",MAROON,JUSTICE,Study2,U,156,133,Test,User,-,,Recall,Recall1,7214,politics,40,3325,5316,0,0,,1
5e1bd786afb7a73f9acf643f,53xbkc9zeo,"Deep vs Shallow",1,114,2020-07-08T14:43:18-07:00,5.2733869552612,4,versionC_stim.csv,RLVersionD.csv,"Relational Version D","Relational, read only version D",END,ADJOURN,Study2,B,101,169,Test,User,-,,Recall,Recall1,4676,ajourn,92.307692307692,3587,4299,0,1,,1
5e1bd786afb7a73f9acf643f,53xbkc9zeo,"Deep vs Shallow",1,115,2020-07-08T14:43:20-07:00,2.5630550384521,4,versionC_stim.csv,RLVersionD.csv,"Relational Version D","Relational, read only version D",REEL,ROD,Study2,S,150,114,Test,User,-,,Recall,Recall1,1965,rod,100,1501,1788,1,1,,1
5e1bd786afb7a73f9acf643f,53xbkc9zeo,"Deep vs Shallow",1,116,2020-07-08T14:43:37-07:00,16.937714099884,4,versionC_stim.csv,RLVersionD.csv,"Relational Version D","Relational, read only version D",PLANT,CACTUS,Study2,B,98,135,Test,User,-,,Recall,Recall1,16121,pot,22.222222222222,15592,15888,0,0,,1
5e1bd786afb7a73f9acf643f,53xbkc9zeo,"Deep vs Shallow",1,117,2020-07-08T14:43:43-07:00,5.7260680198669,4,versionC_stim.csv,RLVersionD.csv,"Relational Version D","Relational, read only version D",ABLE,CRACKLE,Study2,U,162,138,Test,User,-,,Recall,Recall1,5124,do,0,4596,4771,0,0,,1
5e1bd786afb7a73f9acf643f,53xbkc9zeo,"Deep vs Shallow",1,118,2020-07-08T14:43:47-07:00,4.2089178562164,4,versionC_stim.csv,RLVersionD.csv,"Relational Version D","Relational, read only version D",SHAVE,RAZOR,Study2,S,136,148,Test,User,-,,Recall,Recall1,3616,hair,44.444444444444,3119,3408,0,0,,1
5e1bd786afb7a73f9acf643f,53xbkc9zeo,"Deep vs Shallow",1,119,2020-07-08T14:43:50-07:00,2.6686501502991,4,versionC_stim.csv,RLVersionD.csv,"Relational Version D","Relational, read only version D",PANTHER,CAT,Study2,F,126,116,Test,User,-,,Recall,Recall1,2068,cat,100,1547,1811,1,1,,1
5e1bd786afb7a73f9acf643f,53xbkc9zeo,"Deep vs Shallow",1,120,2020-07-08T14:43:56-07:00,5.7753698825836,4,versionC_stim.csv,RLVersionD.csv,"Relational Version D","Relational, read only version D",EAT,DINE,Study2,B,111,137,Test,User,-,,Recall,Recall1,5168,,0,-1,-1,0,0,,1
5e1bd786afb7a73f9acf643f,53xbkc9zeo,"Deep vs Shallow",1,121,2020-07-08T14:44:00-07:00,4.9308700561523,4,versionC_stim.csv,RLVersionD.csv,"Relational Version D","Relational, read only version D",FLIP,TURN,Study2,F,116,152,Test,User,-,,Recall,Recall1,4332,side,0,3689,4145,0,0,,1
5e1bd786afb7a73f9acf643f,53xbkc9zeo,"Deep vs Shallow",1,122,2020-07-08T14:44:04-07:00,3.4039659500122,4,versionC_stim.csv,RLVersionD.csv,"Relational Version D","Relational, read only version D",LOVE,AFFECTION,Study2,B,115,104,Test,User,-,,Recall,Recall1,2758,heart,28.571428571429,2293,2677,0,0,,1
5e1bd786afb7a73f9acf643f,53xbkc9zeo,"Deep vs Shallow",1,123,2020-07-08T14:44:09-07:00,4.7601721286774,4,versionC_stim.csv,RLVersionD.csv,"Relational Version D","Relational, read only version D",BANG,FUZZY,Study2,U,168,160,Test,User,-,,Recall,Recall1,4167,,0,-1,-1,0,0,,1
5e1bd786afb7a73f9acf643f,53xbkc9zeo,"Deep vs Shallow",1,124,2020-07-08T14:44:17-07:00,8.3448328971863,4,versionC_stim.csv,RLVersionD.csv,"Relational Version D","Relational, read only version D",COFFIN,DEAD,Study2,F,128,100,Test,User,-,,Recall,Recall1,7748,dead,100,6899,7403,1,1,,1
5e1bd786afb7a73f9acf643f,53xbkc9zeo,"Deep vs Shallow",1,125,2020-07-08T14:44:22-07:00,5.2839040756226,4,versionC_stim.csv,RLVersionD.csv,"Relational Version D","Relational, read only version D",SMELL,INCENSE,Study2,B,110,108,Test,User,-,,Recall,Recall1,4675,stink,33.333333333333,3723,4410,0,0,,1
5e1bd786afb7a73f9acf643f,53xbkc9zeo,"Deep vs Shallow",1,126,2020-07-08T14:44:26-07:00,4.0536639690399,4,versionC_stim.csv,RLVersionD.csv,"Relational Version D","Relational, read only version D",CAR,DRIVER,Study2,B,106,154,Test,User,-,,Recall,Recall1,3460,vehicle,30.769230769231,2115,3291,0,0,,1
5e1bd786afb7a73f9acf643f,53xbkc9zeo,"Deep vs Shallow",1,127,2020-07-08T14:44:30-07:00,3.5269210338593,4,versionC_stim.csv,RLVersionD.csv,"Relational Version D","Relational, read only version D",OUNCE,BOTH,Study2,U,172,175,Test,User,-,,Recall,Recall1,2917,pound,22.222222222222,1446,2716,0,0,,1
5e1bd786afb7a73f9acf643f,53xbkc9zeo,"Deep vs Shallow",1,128,2020-07-08T14:44:35-07:00,5.594733953476,4,versionC_stim.csv,RLVersionD.csv,"Relational Version D","Relational, read only version D",COMMUNICATION,PHONE,Study2,S,149,113,Test,User,-,,Recall,Recall1,4987,,0,-1,-1,0,0,,1
5e1bd786afb7a73f9acf643f,53xbkc9zeo,"Deep vs Shallow",1,129,2020-07-08T14:44:39-07:00,4.0471220016479,4,versionC_stim.csv,RLVersionD.csv,"Relational Version D","Relational, read only version D",TICK,FLEA,Study2,S,151,127,Test,User,-,,Recall,Recall1,3449,flea,100,1264,3288,1,1,,1
5e1bd786afb7a73f9acf643f,53xbkc9zeo,"Deep vs Shallow",1,130,2020-07-08T14:44:43-07:00,3.1813580989838,4,versionC_stim.csv,RLVersionD.csv,"Relational Version D","Relational, read only version D",DOG,FURRY,Study2,B,102,156,Test,User,-,,Recall,Recall1,2576,cat,0,1407,1703,0,0,,1
5e1bd786afb7a73f9acf643f,53xbkc9zeo,"Deep vs Shallow",1,131,2020-07-08T14:44:54-07:00,10.879281997681,4,versionC_stim.csv,RLVersionD.csv,"Relational Version D","Relational, read only version D",LIE,TRUTH,Study2,S,148,157,Test,User,-,,Recall,Recall1,10062,speak,0,9141,9757,0,0,,1
5e1bd786afb7a73f9acf643f,53xbkc9zeo,"Deep vs Shallow",1,132,2020-07-08T14:44:57-07:00,3.7704558372498,4,versionC_stim.csv,RLVersionD.csv,"Relational Version D","Relational, read only version D",RED,CHERRY,Study2,B,104,107,Test,User,-,,Recall,Recall1,3168,,0,-1,-1,0,0,,1
5e1bd786afb7a73f9acf643f,53xbkc9zeo,"Deep vs Shallow",1,133,2020-07-08T14:45:00-07:00,2.9278810024261,4,versionC_stim.csv,RLVersionD.csv,"Relational Version D","Relational, read only version D",NAP,SLEEP,Study2,F,134,115,Test,User,-,,Recall,Recall1,2336,sleep,100,1583,2023,1,1,,1
5e1bd786afb7a73f9acf643f,53xbkc9zeo,"Deep vs Shallow",1,134,2020-07-08T14:45:04-07:00,3.8502049446106,4,versionC_stim.csv,RLVersionD.csv,"Relational Version D","Relational, read only version D",FICTION,LISTEN,Study2,U,164,118,Test,User,-,,Recall,Recall1,3250,listen,100,2553,3049,1,1,,1
5e1bd786afb7a73f9acf643f,53xbkc9zeo,"Deep vs Shallow",1,135,2020-07-08T14:45:09-07:00,5.3891780376434,4,versionC_stim.csv,RLVersionD.csv,"Relational Version D","Relational, read only version D",CUT,CHOP,Study2,B,107,171,Test,User,-,,Recall,Recall1,4782,cake,25,4278,4622,0,0,,1
5e1bd786afb7a73f9acf643f,53xbkc9zeo,"Deep vs Shallow",1,136,2020-07-08T14:45:23-07:00,13.046060085297,4,versionC_stim.csv,RLVersionD.csv,"Relational Version D","Relational, read only version D",LONG,EXTENSION,Study2,B,96,149,Test,User,-,,Recall,Recall1,12231,length,26.666666666667,9974,11951,0,0,,1
5e1bd786afb7a73f9acf643f,53xbkc9zeo,"Deep vs Shallow",1,137,2020-07-08T14:45:29-07:00,6.5127379894257,4,versionC_stim.csv,RLVersionD.csv,"Relational Version D","Relational, read only version D",CHARM,VEHICLE,Study2,U,160,105,Test,User,-,,Recall,Recall1,5918,,0,-1,-1,0,0,,1
5e1bd786afb7a73f9acf643f,53xbkc9zeo,"Deep vs Shallow",1,138,2020-07-08T14:45:34-07:00,4.5178589820862,4,versionC_stim.csv,RLVersionD.csv,"Relational Version D","Relational, read only version D",SCISSORS,SHEARS,Study2,B,112,123,Test,User,-,,Recall,Recall1,3918,cut,0,3461,3661,0,0,,1
5e1bd786afb7a73f9acf643f,53xbkc9zeo,"Deep vs Shallow",1,139,2020-07-08T14:45:38-07:00,4.8810250759125,4,versionC_stim.csv,RLVersionD.csv,"Relational Version D","Relational, read only version D",FAVORITE,BEST,Study2,F,125,125,Test,User,-,,Recall,Recall1,4265,,0,-1,-1,0,0,,1
5e1bd786afb7a73f9acf643f,53xbkc9zeo,"Deep vs Shallow",1,140,2020-07-08T14:45:41-07:00,2.6755330562592,4,versionC_stim.csv,RLVersionD.csv,"Relational Version D","Relational, read only version D",MYSTERY,DETECTIVE,Study2,B,100,139,Test,User,-,,Recall,Recall1,2050,,0,-1,-1,0,0,,1
5e1bd786afb7a73f9acf643f,53xbkc9zeo,"Deep vs Shallow",1,141,2020-07-08T14:45:45-07:00,3.925717830658,4,versionC_stim.csv,RLVersionD.csv,"Relational Version D","Relational, read only version D",STEAK,GIVE,Study2,U,158,167,Test,User,-,,Recall,Recall1,3331,eat,28.571428571429,2882,3122,0,0,,1
5e1bd786afb7a73f9acf643f,53xbkc9zeo,"Deep vs Shallow",1,142,2020-07-08T14:45:48-07:00,3.2323729991913,4,versionC_stim.csv,RLVersionD.csv,"Relational Version D","Relational, read only version D",BREAKABLE,GLASS,Study2,F,127,173,Test,User,-,,Recall,Recall1,2634,vase,44.444444444444,1945,2322,0,0,,1
5e1bd786afb7a73f9acf643f,53xbkc9zeo,"Deep vs Shallow",1,143,2020-07-08T14:45:51-07:00,2.7716469764709,4,versionC_stim.csv,RLVersionD.csv,"Relational Version D","Relational, read only version D",OBTAIN,MEAT,Study2,U,161,109,Test,User,-,,Recall,Recall1,2171,keep,25,1571,1906,0,0,,1
5e1bd786afb7a73f9acf643f,53xbkc9zeo,"Deep vs Shallow",1,144,2020-07-08T14:45:56-07:00,5.3027400970459,4,versionC_stim.csv,RLVersionD.csv,"Relational Version D","Relational, read only version D",AWAY,GONE,Study2,S,142,99,Test,User,-,,Recall,Recall1,4690,gone,100,2041,4281,1,1,,1
5e1bd786afb7a73f9acf643f,53xbkc9zeo,"Deep vs Shallow",1,145,2020-07-08T14:46:01-07:00,4.6227910518646,4,versionC_stim.csv,RLVersionD.csv,"Relational Version D","Relational, read only version D",HEAD,SCALP,Study2,B,105,128,Test,User,-,,Recall,Recall1,4021,body,0,3420,3764,0,0,,1
5e1bd786afb7a73f9acf643f,53xbkc9zeo,"Deep vs Shallow",1,146,2020-07-08T14:46:06-07:00,4.6875720024109,4,versionC_stim.csv,RLVersionD.csv,"Relational Version D","Relational, read only version D",TRUTHFUL,HONEST,Study2,F,133,101,Test,User,-,,Recall,Recall1,4088,honest,100,2680,3623,1,1,,1
5e1bd786afb7a73f9acf643f,53xbkc9zeo,"Deep vs Shallow",1,147,2020-07-08T14:46:10-07:00,4.4719958305359,4,versionC_stim.csv,RLVersionD.csv,"Relational Version D","Relational, read only version D",TIE,SHOELACE,Study2,B,99,122,Test,User,-,,Recall,Recall1,3867,,0,-1,-1,0,0,,1
5e1bd786afb7a73f9acf643f,53xbkc9zeo,"Deep vs Shallow",1,148,2020-07-08T14:46:20-07:00,9.5406911373138,4,versionC_stim.csv,RLVersionD.csv,"Relational Version D","Relational, read only version D",GROUND,EARTH,Study2,S,144,106,Test,User,-,,Recall,Recall1,8940,,0,-1,-1,0,0,,1
5e1bd786afb7a73f9acf643f,53xbkc9zeo,"Deep vs Shallow",1,149,2020-07-08T14:46:26-07:00,6.5068600177765,4,versionC_stim.csv,RLVersionD.csv,"Relational Version D","Relational, read only version D",GAME,CLUE,Study2,B,97,164,Test,User,-,,Recall,Recall1,5898,league,60,4282,4873,0,0,,1
5e1bd786afb7a73f9acf643f,53xbkc9zeo,"Deep vs Shallow",1,150,2020-07-08T14:46:42-07:00,16.154762029648,4,versionC_stim.csv,RLVersionD.csv,"Relational Version D","Relational, read only version D",TEMPER,TANTRUM,Study2,S,154,132,Test,User,-,,Recall,Recall1,15340,blade,16.666666666667,14748,15227,0,0,,1
5e1bd786afb7a73f9acf643f,53xbkc9zeo,"Deep vs Shallow",1,151,2020-07-08T14:46:45-07:00,3.092209815979,4,versionC_stim.csv,RLVersionD.csv,"Relational Version D","Relational, read only version D",SARDINE,FISH,Study2,F,130,129,Test,User,-,,Recall,Recall1,2482,fish,100,2002,2282,1,1,,1
5e1bd786afb7a73f9acf643f,53xbkc9zeo,"Deep vs Shallow",1,152,2020-07-08T14:46:55-07:00,9.1724410057068,4,versionC_stim.csv,RLVersionD.csv,"Relational Version D","Relational, read only version D",PAPER,DOCUMENT,Study2,B,109,103,Test,User,-,,Recall,Recall1,8563,document,100,1642,8426,1,1,,1
5e1bd786afb7a73f9acf643f,53xbkc9zeo,"Deep vs Shallow",1,153,2020-07-08T14:46:59-07:00,4.1299450397491,4,versionC_stim.csv,RLVersionD.csv,"Relational Version D","Relational, read only version D",ACTRESS,STAR,Study2,F,120,168,Test,User,-,,Recall,Recall1,3513,play,25,2832,3216,0,0,,1
5e1bd786afb7a73f9acf643f,53xbkc9zeo,"Deep vs Shallow",1,154,2020-07-08T14:47:04-07:00,5.1580560207367,4,versionC_stim.csv,RLVersionD.csv,"Relational Version D","Relational, read only version D",CARBON,ELEMENT,Study2,S,141,144,Test,User,-,,Recall,Recall1,3556,rod,0,2963,3323,0,0,,1
5e1bd786afb7a73f9acf643f,53xbkc9zeo,"Deep vs Shallow",1,155,2020-07-08T14:47:13-07:00,9.1958470344543,4,versionC_stim.csv,RLVersionD.csv,"Relational Version D","Relational, read only version D",WINDSHIELD,CAR,Study2,F,117,150,Test,User,-,,Recall,Recall1,8601,car,100,8176,8408,1,1,,1
5e1bd786afb7a73f9acf643f,53xbkc9zeo,"Deep vs Shallow",1,156,2020-07-08T14:47:16-07:00,2.7922730445862,4,versionC_stim.csv,RLVersionD.csv,"Relational Version D","Relational, read only version D",JAR,MASON,Study2,S,138,145,Test,User,-,,Recall,Recall1,2188,mason,100,1571,1979,1,1,,1
5e1bd786afb7a73f9acf643f,53xbkc9zeo,"Deep vs Shallow",1,157,2020-07-08T14:47:21-07:00,5.447625875473,4,versionC_stim.csv,RLVersionD.csv,"Relational Version D","Relational, read only version D",STRAWBERRY,FRUIT,Study2,F,124,163,Test,User,-,,Recall,Recall1,4836,apple,0,4099,4651,0,0,,1
5e1bd786afb7a73f9acf643f,53xbkc9zeo,"Deep vs Shallow",1,158,2020-07-08T14:47:25-07:00,3.503368139267,4,versionC_stim.csv,RLVersionD.csv,"Relational Version D","Relational, read only version D",CLOTH,STRETCH,Study2,U,157,170,Test,User,-,,Recall,Recall1,2903,,0,-1,-1,0,0,,1
5e1bd786afb7a73f9acf643f,53xbkc9zeo,"Deep vs Shallow",1,159,2020-07-08T14:47:27-07:00,2.6003248691559,4,versionC_stim.csv,RLVersionD.csv,"Relational Version D","Relational, read only version D",WET,DRY,Study2,S,146,147,Test,User,-,,Recall,Recall1,2002,dry,100,1456,1704,1,1,,1
5e1bd786afb7a73f9acf643f,53xbkc9zeo,"Deep vs Shallow",1,160,2020-07-08T14:47:41-07:00,13.48260307312,4,versionC_stim.csv,RLVersionD.csv,"Relational Version D","Relational, read only version D",SCAR,MAIN,Study2,U,175,174,Test,User,-,,Recall,Recall1,12627,durable,18.181818181818,3730,12482,0,0,,1
5e1bd786afb7a73f9acf643f,53xbkc9zeo,"Deep vs Shallow",1,161,2020-07-08T14:47:49-07:00,8.3076839447021,4,versionC_stim.csv,RLVersionD.csv,"Relational Version D","Relational, read only version D",TOIL,LEASE,Study2,U,170,119,Test,User,-,,Recall,Recall1,7686,,0,-1,-1,0,0,,1
5e1bd786afb7a73f9acf643f,53xbkc9zeo,"Deep vs Shallow",1,162,2020-07-08T14:48:00-07:00,10.65781712532,4,versionC_stim.csv,RLVersionD.csv,"Relational Version D","Relational, read only version D",VILLAIN,BAD,Study2,F,118,102,Test,User,-,,Recall,Recall1,9851,hero,0,9346,9634,0,0,,1
5e1bd786afb7a73f9acf643f,53xbkc9zeo,"Deep vs Shallow",1,163,2020-07-08T14:48:05-07:00,5.2124178409576,4,versionC_stim.csv,RLVersionD.csv,"Relational Version D","Relational, read only version D",FIGHT,FEUD,Study2,B,113,158,Test,User,-,,Recall,Recall1,4606,,0,-1,-1,0,0,,1
5e1bd786afb7a73f9acf643f,53xbkc9zeo,"Deep vs Shallow",1,164,2020-07-08T14:48:09-07:00,4.3287241458893,4,versionC_stim.csv,RLVersionD.csv,"Relational Version D","Relational, read only version D",TAN,SUN,Study2,S,155,151,Test,User,-,,Recall,Recall1,3728,sun,100,3023,3471,1,1,,1
5e1bd786afb7a73f9acf643f,53xbkc9zeo,"Deep vs Shallow",1,165,2020-07-08T14:48:12-07:00,3.066862821579,4,versionC_stim.csv,RLVersionD.csv,"Relational Version D","Relational, read only version D",JOKE,KEYS,Study2,U,165,124,Test,User,-,,Recall,Recall1,2462,,0,-1,-1,0,0,,1
5e1bd786afb7a73f9acf643f,53xbkc9zeo,"Deep vs Shallow",1,166,2020-07-08T14:48:17-07:00,4.9977030754089,4,versionC_stim.csv,RLVersionD.csv,"Relational Version D","Relational, read only version D",SHAKE,Shell,Study2,U,163,140,Test,User,-,,Recall,Recall1,4402,,0,-1,-1,0,0,,1
5e1bd786afb7a73f9acf643f,53xbkc9zeo,"Deep vs Shallow",1,167,2020-07-08T14:48:22-07:00,4.2088050842285,4,versionC_stim.csv,RLVersionD.csv,"Relational Version D","Relational, read only version D",SEATBELT,SAFETY,Study2,S,147,162,Test,User,-,,Recall,Recall1,3615,car,22.222222222222,2255,2518,0,0,,1
5e1bd786afb7a73f9acf643f,53xbkc9zeo,"Deep vs Shallow",1,168,2020-07-08T14:48:24-07:00,2.5765788555145,4,versionC_stim.csv,RLVersionD.csv,"Relational Version D","Relational, read only version D",SIGN,LOAN,Study2,U,171,159,Test,User,-,,Recall,Recall1,1869,road,50,1348,1668,0,0,,1
5e1bd786afb7a73f9acf643f,53xbkc9zeo,"Deep vs Shallow",1,169,2020-07-08T14:48:30-07:00,5.8312740325928,4,versionC_stim.csv,RLVersionD.csv,"Relational Version D","Relational, read only version D",EQUAL,RIGHTS,Study2,S,137,143,Test,User,-,,Recall,Recall1,5018,rights,100,4161,4761,1,1,,1
5e1bd786afb7a73f9acf643f,53xbkc9zeo,"Deep vs Shallow",1,170,2020-07-08T14:48:36-07:00,5.5749759674072,4,versionC_stim.csv,RLVersionD.csv,"Relational Version D","Relational, read only version D",CLEAR,MOAT,Study2,U,169,155,Test,User,-,,Recall,Recall1,4974,,0,-1,-1,0,0,,1
5e1bd786afb7a73f9acf643f,53xbkc9zeo,"Deep vs Shallow",1,171,2020-07-08T14:48:39-07:00,3.5012321472168,4,versionC_stim.csv,RLVersionD.csv,"Relational Version D","Relational, read only version D",THIMBLE,THREAD,Study2,F,121,97,Test,User,-,,Recall,Recall1,2906,thread,100,1929,2481,1,1,,1
5e1bd786afb7a73f9acf643f,53xbkc9zeo,"Deep vs Shallow",1,172,2020-07-08T14:48:45-07:00,5.7070679664612,4,versionC_stim.csv,RLVersionD.csv,"Relational Version D","Relational, read only version D",HATE,NAME,Study2,U,167,165,Test,User,-,,Recall,Recall1,5109,,0,-1,-1,0,0,,1
5e1bd786afb7a73f9acf643f,53xbkc9zeo,"Deep vs Shallow",1,173,2020-07-08T14:48:51-07:00,6.6229779720306,4,versionC_stim.csv,RLVersionD.csv,"Relational Version D","Relational, read only version D",WAX,CANDLE,Study2,S,139,110,Test,User,-,,Recall,Recall1,6018,,0,-1,-1,0,0,,1
5e1bd786afb7a73f9acf643f,53xbkc9zeo,"Deep vs Shallow",1,174,2020-07-08T14:48:57-07:00,5.3632440567017,4,versionC_stim.csv,RLVersionD.csv,"Relational Version D","Relational, read only version D",CHILDREN,MIRROR,Study2,U,174,111,Test,User,-,,Recall,Recall1,4763,play,0,3874,4393,0,0,,1
5e1bd786afb7a73f9acf643f,53xbkc9zeo,"Deep vs Shallow",1,175,2020-07-08T14:49:04-07:00,6.9635019302368,4,versionC_stim.csv,RLVersionD.csv,"Relational Version D","Relational, read only version D",CLOTHES,CAKE,Study2,U,166,136,Test,User,-,,Recall,Recall1,6336,wear,25,5367,5735,0,0,,1
5e1bd786afb7a73f9acf643f,53xbkc9zeo,"Deep vs Shallow",1,176,2020-07-08T14:49:07-07:00,3.208419084549,4,versionC_stim.csv,RLVersionD.csv,"Relational Version D","Relational, read only version D",BRACELET,WRIST,Study2,S,140,134,Test,User,-,,Recall,Recall1,2574,charm,20,1717,2116,0,0,,1
5e1bd786afb7a73f9acf643f,53xbkc9zeo,"Deep vs Shallow",1,177,2020-07-08T14:49:12-07:00,5.3801009654999,4,versionC_stim.csv,RLVersionD.csv,"Relational Version D","Relational, read only version D",LONELY,ALONE,Study2,S,145,172,Test,User,-,,Recall,Recall1,4762,friend,18.181818181818,2810,4609,0,0,,1
5e1bd786afb7a73f9acf643f,53xbkc9zeo,"Deep vs Shallow",1,178,2020-07-08T14:49:17-07:00,4.3659060001373,4,versionC_stim.csv,RLVersionD.csv,"Relational Version D","Relational, read only version D",PENGUIN,BIRD,Study2,F,119,161,Test,User,-,,Recall,Recall1,2763,bird,100,2219,2571,1,1,,1
5e1bd786afb7a73f9acf643f,53xbkc9zeo,"Deep vs Shallow",1,179,2020-07-08T14:49:46-07:00,28.747291088104,4,versionC_stim.csv,RLVersionD.csv,"Relational Version D","Relational, read only version D",DONKEY,MULE,Study2,B,108,142,Test,User,-,,Recall,Recall1,27933,horse,22.222222222222,27372,27796,0,0,,1
5e1bd786afb7a73f9acf643f,53xbkc9zeo,"Deep vs Shallow",1,180,2020-07-08T14:49:49-07:00,3.0277829170227,4,versionC_stim.csv,RLVersionD.csv,"Relational Version D","Relational, read only version D",TRASH,LITTER,Study2,B,103,176,Test,User,-,,Recall,Recall1,2424,can,0,1967,2207,0,0,,1
5e1bd786afb7a73f9acf643f,53xbkc9zeo,"Deep vs Shallow",1,181,2020-07-08T14:50:12-07:00,23.611788988113,4,versionC_stim.csv,RLVersionD.csv,"Relational Version D","Relational, read only version D",,,,,,0,Instruct,,10,"You will now be presented with a new set of word pairs. Please study each pair. Remember that your memory will be tested! When finished, press Enter to move to the next pair.",Initial_Instruct,Instruct4,22795,,,-1,-1,,,,1
5e1bd786afb7a73f9acf643f,53xbkc9zeo,"Deep vs Shallow",1,182,2020-07-08T14:50:31-07:00,18.649873971939,4,versionC_stim.csv,RLVersionD.csv,"Relational Version D","Relational, read only version D",,,,,,0,Instruct,-,15,"As you study, please think about how the two concepts are RELATED to each other. For example, if you see the pair TURTLE-CAT, think about how both are alive, they are both animals, and both can be kept as pets.",,Instruct20,17826,,,-1,-1,,,,1
5e1bd786afb7a73f9acf643f,53xbkc9zeo,"Deep vs Shallow",1,183,2020-07-08T14:50:50-07:00,19.128670930862,4,versionC_stim.csv,RLVersionD.csv,"Relational Version D","Relational, read only version D",,,,,,0,FreeRecall,-,10,"What you should think about as you study each item pair? Type your response in the box below.",,CHECK4,18305,"how the items are related, and memorising the word pairs",0,6376,16400,0,0,,1
5e1bd786afb7a73f9acf643f,53xbkc9zeo,"Deep vs Shallow",1,184,2020-07-08T14:50:56-07:00,5.8620901107788,4,versionC_stim.csv,RLVersionD.csv,"Relational Version D","Relational, read only version D",,,,,,0,Instruct,User,-,"Press Enter when you are readty to begin",,Instruct11,5256,,,-1,-1,,,,1
5e1bd786afb7a73f9acf643f,53xbkc9zeo,"Deep vs Shallow",1,185,2020-07-08T14:51:05-07:00,9.1523668766022,4,versionC_stim.csv,RLVersionD.csv,"Relational Version D","Relational, read only version D",BUTTER,PEANUT,BUFFER1,Buffer,3,6,Study,User,-,,Study/JOL,BUFFER3,8553,,,-1,-1,,,,1
5e1bd786afb7a73f9acf643f,53xbkc9zeo,"Deep vs Shallow",1,186,2020-07-08T14:51:12-07:00,7.1300930976868,4,versionC_stim.csv,RLVersionD.csv,"Relational Version D","Relational, read only version D",CATCHER,BASEBALL,BUFFER1,Buffer,2,3,Study,User,-,,Study/JOL,BUFFER3,6524,,,-1,-1,,,,1
5e1bd786afb7a73f9acf643f,53xbkc9zeo,"Deep vs Shallow",1,187,2020-07-08T14:51:17-07:00,5.0029640197754,4,versionC_stim.csv,RLVersionD.csv,"Relational Version D","Relational, read only version D",GREEN,TREES,BUFFER1,Buffer,1,5,Study,User,-,,Study/JOL,BUFFER3,4257,,,-1,-1,,,,1
5e1bd786afb7a73f9acf643f,53xbkc9zeo,"Deep vs Shallow",1,188,2020-07-08T14:51:23-07:00,6.1037108898163,4,versionC_stim.csv,RLVersionD.csv,"Relational Version D","Relational, read only version D",JAM,SPACE,BUFFER1,Buffer,5,4,Study,User,-,,Study/JOL,BUFFER3,5479,,,-1,-1,,,,1
5e1bd786afb7a73f9acf643f,53xbkc9zeo,"Deep vs Shallow",1,189,2020-07-08T14:51:28-07:00,4.4111089706421,4,versionC_stim.csv,RLVersionD.csv,"Relational Version D","Relational, read only version D",HIDE,SCARE,BUFFER1,Buffer,4,2,Study,User,-,,Study/JOL,BUFFER3,3806,,,-1,-1,,,,1
5e1bd786afb7a73f9acf643f,53xbkc9zeo,"Deep vs Shallow",1,190,2020-07-08T14:51:33-07:00,5.8163290023804,4,versionC_stim.csv,RLVersionD.csv,"Relational Version D","Relational, read only version D",CAR,HAPPY,Study1,U,77,61,Study,User,-,,Study/JOL,"Study Phase2",5196,,,-1,-1,,,,1
5e1bd786afb7a73f9acf643f,53xbkc9zeo,"Deep vs Shallow",1,191,2020-07-08T14:51:38-07:00,5.0844581127167,4,versionC_stim.csv,RLVersionD.csv,"Relational Version D","Relational, read only version D",CLUTTER,PUSHER,Study1,U,66,79,Study,User,-,,Study/JOL,"Study Phase2",4477,,,-1,-1,,,,1
5e1bd786afb7a73f9acf643f,53xbkc9zeo,"Deep vs Shallow",1,192,2020-07-08T14:51:41-07:00,2.8278450965881,4,versionC_stim.csv,RLVersionD.csv,"Relational Version D","Relational, read only version D",NEWS,EDITOR,Study1,B,10,42,Study,User,-,,Study/JOL,"Study Phase2",2219,,,-1,-1,,,,1
5e1bd786afb7a73f9acf643f,53xbkc9zeo,"Deep vs Shallow",1,193,2020-07-08T14:51:51-07:00,9.5262038707733,4,versionC_stim.csv,RLVersionD.csv,"Relational Version D","Relational, read only version D",CHEESE,WINE,Study1,S,57,22,Study,User,-,,Study/JOL,"Study Phase2",8921,,,-1,-1,,,,1
5e1bd786afb7a73f9acf643f,53xbkc9zeo,"Deep vs Shallow",1,194,2020-07-08T14:51:56-07:00,4.7192950248718,4,versionC_stim.csv,RLVersionD.csv,"Relational Version D","Relational, read only version D",WASP,BUG,Study1,F,32,60,Study,User,-,,Study/JOL,"Study Phase2",4108,,,-1,-1,,,,1
5e1bd786afb7a73f9acf643f,53xbkc9zeo,"Deep vs Shallow",1,195,2020-07-08T14:51:59-07:00,3.073399066925,4,versionC_stim.csv,RLVersionD.csv,"Relational Version D","Relational, read only version D",LIVER,KIDNEY,Study1,S,53,30,Study,User,-,,Study/JOL,"Study Phase2",2478,,,-1,-1,,,,1
5e1bd786afb7a73f9acf643f,53xbkc9zeo,"Deep vs Shallow",1,196,2020-07-08T14:52:01-07:00,2.211681842804,4,versionC_stim.csv,RLVersionD.csv,"Relational Version D","Relational, read only version D",SODA,POP,Study1,S,56,15,Study,User,-,,Study/JOL,"Study Phase2",1618,,,-1,-1,,,,1
5e1bd786afb7a73f9acf643f,53xbkc9zeo,"Deep vs Shallow",1,197,2020-07-08T14:52:05-07:00,4.5562419891357,4,versionC_stim.csv,RLVersionD.csv,"Relational Version D","Relational, read only version D",FLOOR,DISCOVER,Study1,U,71,53,Study,User,-,,Study/JOL,"Study Phase2",3962,,,-1,-1,,,,1
5e1bd786afb7a73f9acf643f,53xbkc9zeo,"Deep vs Shallow",1,198,2020-07-08T14:52:09-07:00,3.2459461688995,4,versionC_stim.csv,RLVersionD.csv,"Relational Version D","Relational, read only version D",DEFINITION,MEANING,Study1,S,62,58,Study,User,-,,Study/JOL,"Study Phase2",2639,,,-1,-1,,,,1
5e1bd786afb7a73f9acf643f,53xbkc9zeo,"Deep vs Shallow",1,199,2020-07-08T14:52:13-07:00,4.1158149242401,4,versionC_stim.csv,RLVersionD.csv,"Relational Version D","Relational, read only version D",BRONZE,ARTERY,Study1,U,74,17,Study,User,-,,Study/JOL,"Study Phase2",3517,,,-1,-1,,,,1
5e1bd786afb7a73f9acf643f,53xbkc9zeo,"Deep vs Shallow",1,200,2020-07-08T14:52:17-07:00,3.8298830986023,4,versionC_stim.csv,RLVersionD.csv,"Relational Version D","Relational, read only version D",CAVE,DARK,Study1,F,28,43,Study,User,-,,Study/JOL,"Study Phase2",3226,,,-1,-1,,,,1
5e1bd786afb7a73f9acf643f,53xbkc9zeo,"Deep vs Shallow",1,201,2020-07-08T14:52:20-07:00,3.1519458293915,4,versionC_stim.csv,RLVersionD.csv,"Relational Version D","Relational, read only version D",STING,HORNET,Study1,B,11,55,Study,User,-,,Study/JOL,"Study Phase2",2554,,,-1,-1,,,,1
5e1bd786afb7a73f9acf643f,53xbkc9zeo,"Deep vs Shallow",1,202,2020-07-08T14:52:24-07:00,4.7215759754181,4,versionC_stim.csv,RLVersionD.csv,"Relational Version D","Relational, read only version D",BEE,HONEY,Study1,S,63,28,Study,User,-,,Study/JOL,"Study Phase2",4119,,,-1,-1,,,,1
5e1bd786afb7a73f9acf643f,53xbkc9zeo,"Deep vs Shallow",1,203,2020-07-08T14:52:28-07:00,3.9161942005157,4,versionC_stim.csv,RLVersionD.csv,"Relational Version D","Relational, read only version D",MONEY,WAGE,Study1,B,8,35,Study,User,-,,Study/JOL,"Study Phase2",3312,,,-1,-1,,,,1
5e1bd786afb7a73f9acf643f,53xbkc9zeo,"Deep vs Shallow",1,204,2020-07-08T14:52:31-07:00,3.0579149723053,4,versionC_stim.csv,RLVersionD.csv,"Relational Version D","Relational, read only version D",BAR,GRILL,Study1,S,52,14,Study,User,-,,Study/JOL,"Study Phase2",2450,,,-1,-1,,,,1
5e1bd786afb7a73f9acf643f,53xbkc9zeo,"Deep vs Shallow",1,205,2020-07-08T14:52:35-07:00,3.6575570106506,4,versionC_stim.csv,RLVersionD.csv,"Relational Version D","Relational, read only version D",ROCK,GEOLOGY,Study1,B,19,82,Study,User,-,,Study/JOL,"Study Phase2",3024,,,-1,-1,,,,1
5e1bd786afb7a73f9acf643f,53xbkc9zeo,"Deep vs Shallow",1,206,2020-07-08T14:52:40-07:00,4.6582498550415,4,versionC_stim.csv,RLVersionD.csv,"Relational Version D","Relational, read only version D",CHILD,BABY,Study1,S,64,68,Study,User,-,,Study/JOL,"Study Phase2",2997,,,-1,-1,,,,1
5e1bd786afb7a73f9acf643f,53xbkc9zeo,"Deep vs Shallow",1,207,2020-07-08T14:52:44-07:00,4.1091041564941,4,versionC_stim.csv,RLVersionD.csv,"Relational Version D","Relational, read only version D",DROWSY,SLEEP,Study1,F,41,20,Study,User,-,,Study/JOL,"Study Phase2",3490,,,-1,-1,,,,1
5e1bd786afb7a73f9acf643f,53xbkc9zeo,"Deep vs Shallow",1,208,2020-07-08T14:52:48-07:00,4.4123239517212,4,versionC_stim.csv,RLVersionD.csv,"Relational Version D","Relational, read only version D",DESIGN,ARCHITECTURE,Study1,S,51,63,Study,User,-,,Study/JOL,"Study Phase2",3807,,,-1,-1,,,,1
5e1bd786afb7a73f9acf643f,53xbkc9zeo,"Deep vs Shallow",1,209,2020-07-08T14:52:53-07:00,4.4238219261169,4,versionC_stim.csv,RLVersionD.csv,"Relational Version D","Relational, read only version D",ADD,VALLEY,Study1,U,82,24,Study,User,-,,Study/JOL,"Study Phase2",3791,,,-1,-1,,,,1
5e1bd786afb7a73f9acf643f,53xbkc9zeo,"Deep vs Shallow",1,210,2020-07-08T14:52:57-07:00,4.1387150287628,4,versionC_stim.csv,RLVersionD.csv,"Relational Version D","Relational, read only version D",TOILET,BATHROOM,Study1,S,58,46,Study,User,-,,Study/JOL,"Study Phase2",3538,,,-1,-1,,,,1
5e1bd786afb7a73f9acf643f,53xbkc9zeo,"Deep vs Shallow",1,211,2020-07-08T14:53:00-07:00,3.3432719707489,4,versionC_stim.csv,RLVersionD.csv,"Relational Version D","Relational, read only version D",BLAZE,FIRE,Study1,F,45,83,Study,User,-,,Study/JOL,"Study Phase2",2738,,,-1,-1,,,,1
5e1bd786afb7a73f9acf643f,53xbkc9zeo,"Deep vs Shallow",1,212,2020-07-08T14:53:04-07:00,3.8849370479584,4,versionC_stim.csv,RLVersionD.csv,"Relational Version D","Relational, read only version D",FUTURE,PAST,Study1,S,61,36,Study,User,-,,Study/JOL,"Study Phase2",3282,,,-1,-1,,,,1
5e1bd786afb7a73f9acf643f,53xbkc9zeo,"Deep vs Shallow",1,213,2020-07-08T14:53:10-07:00,5.4788770675659,4,versionC_stim.csv,RLVersionD.csv,"Relational Version D","Relational, read only version D",SIGHT,DEBATE,Study1,U,73,70,Study,User,-,,Study/JOL,"Study Phase2",4874,,,-1,-1,,,,1
5e1bd786afb7a73f9acf643f,53xbkc9zeo,"Deep vs Shallow",1,214,2020-07-08T14:53:14-07:00,4.0988729000092,4,versionC_stim.csv,RLVersionD.csv,"Relational Version D","Relational, read only version D",ENOUGH,FULL,Study1,F,26,9,Study,User,-,,Study/JOL,"Study Phase2",3490,,,-1,-1,,,,1
5e1bd786afb7a73f9acf643f,53xbkc9zeo,"Deep vs Shallow",1,215,2020-07-08T14:53:18-07:00,4.7667491436005,4,versionC_stim.csv,RLVersionD.csv,"Relational Version D","Relational, read only version D",WOULD,CASH,Study1,U,83,52,Study,User,-,,Study/JOL,"Study Phase2",4161,,,-1,-1,,,,1
5e1bd786afb7a73f9acf643f,53xbkc9zeo,"Deep vs Shallow",1,216,2020-07-08T14:53:23-07:00,4.584499835968,4,versionC_stim.csv,RLVersionD.csv,"Relational Version D","Relational, read only version D",FLOWER,ORCHID,Study1,B,24,86,Study,User,-,,Study/JOL,"Study Phase2",3984,,,-1,-1,,,,1
5e1bd786afb7a73f9acf643f,53xbkc9zeo,"Deep vs Shallow",1,217,2020-07-08T14:53:26-07:00,3.0345780849457,4,versionC_stim.csv,RLVersionD.csv,"Relational Version D","Relational, read only version D",END,BEGIN,Study1,S,54,72,Study,User,-,,Study/JOL,"Study Phase2",2424,,,-1,-1,,,,1
5e1bd786afb7a73f9acf643f,53xbkc9zeo,"Deep vs Shallow",1,218,2020-07-08T14:53:30-07:00,3.496484041214,4,versionC_stim.csv,RLVersionD.csv,"Relational Version D","Relational, read only version D",WORD,SENTENCE,Study1,F,31,13,Study,User,-,,Study/JOL,"Study Phase2",2878,,,-1,-1,,,,1
5e1bd786afb7a73f9acf643f,53xbkc9zeo,"Deep vs Shallow",1,219,2020-07-08T14:53:33-07:00,3.8276019096375,4,versionC_stim.csv,RLVersionD.csv,"Relational Version D","Relational, read only version D",LION,ART,Study1,U,79,54,Study,User,-,,Study/JOL,"Study Phase2",3228,,,-1,-1,,,,1
5e1bd786afb7a73f9acf643f,53xbkc9zeo,"Deep vs Shallow",1,220,2020-07-08T14:53:38-07:00,4.4190220832825,4,versionC_stim.csv,RLVersionD.csv,"Relational Version D","Relational, read only version D",SACKING,DIETARY,Study1,U,67,29,Study,User,-,,Study/JOL,"Study Phase2",3808,,,-1,-1,,,,1
5e1bd786afb7a73f9acf643f,53xbkc9zeo,"Deep vs Shallow",1,221,2020-07-08T14:53:41-07:00,3.710736989975,4,versionC_stim.csv,RLVersionD.csv,"Relational Version D","Relational, read only version D",SIP,DRINK,Study1,F,27,44,Study,User,-,,Study/JOL,"Study Phase2",3102,,,-1,-1,,,,1
5e1bd786afb7a73f9acf643f,53xbkc9zeo,"Deep vs Shallow",1,222,2020-07-08T14:53:45-07:00,3.6526579856873,4,versionC_stim.csv,RLVersionD.csv,"Relational Version D","Relational, read only version D",GROWTH,HEIGHT,Study1,F,30,45,Study,User,-,,Study/JOL,"Study Phase2",3051,,,-1,-1,,,,1
5e1bd786afb7a73f9acf643f,53xbkc9zeo,"Deep vs Shallow",1,223,2020-07-08T14:53:49-07:00,3.8635668754578,4,versionC_stim.csv,RLVersionD.csv,"Relational Version D","Relational, read only version D",SEIZE,TAKE,Study1,F,29,32,Study,User,-,,Study/JOL,"Study Phase2",3247,,,-1,-1,,,,1
5e1bd786afb7a73f9acf643f,53xbkc9zeo,"Deep vs Shallow",1,224,2020-07-08T14:53:55-07:00,5.9100050926208,4,versionC_stim.csv,RLVersionD.csv,"Relational Version D","Relational, read only version D",,,,,,0,Instruct,-,3,"Remember to focus on how the two items are similiar while you study!",,CHECK5,5309,,,-1,-1,,,,1
5e1bd786afb7a73f9acf643f,53xbkc9zeo,"Deep vs Shallow",1,225,2020-07-08T14:53:58-07:00,3.4773409366608,4,versionC_stim.csv,RLVersionD.csv,"Relational Version D","Relational, read only version D",BIRD,SWAN,Study1,B,14,38,Study,User,-,,Study/JOL,"Study Phase2",2799,,,-1,-1,,,,1
5e1bd786afb7a73f9acf643f,53xbkc9zeo,"Deep vs Shallow",1,226,2020-07-08T14:54:03-07:00,4.50630402565,4,versionC_stim.csv,RLVersionD.csv,"Relational Version D","Relational, read only version D",SICK,HIDE,Study1,U,84,71,Study,User,-,,Study/JOL,"Study Phase2",3894,,,-1,-1,,,,1
5e1bd786afb7a73f9acf643f,53xbkc9zeo,"Deep vs Shallow",1,227,2020-07-08T14:54:11-07:00,7.9964640140533,4,versionC_stim.csv,RLVersionD.csv,"Relational Version D","Relational, read only version D",TALK,DISCUSSION,Study1,B,21,57,Study,User,-,,Study/JOL,"Study Phase2",7371,,,-1,-1,,,,1
5e1bd786afb7a73f9acf643f,53xbkc9zeo,"Deep vs Shallow",1,228,2020-07-08T14:54:14-07:00,3.356477022171,4,versionC_stim.csv,RLVersionD.csv,"Relational Version D","Relational, read only version D",COW,HERD,Study1,B,22,47,Study,User,-,,Study/JOL,"Study Phase2",2737,,,-1,-1,,,,1
5e1bd786afb7a73f9acf643f,53xbkc9zeo,"Deep vs Shallow",1,229,2020-07-08T14:54:19-07:00,4.8158550262451,4,versionC_stim.csv,RLVersionD.csv,"Relational Version D","Relational, read only version D",HUNGRY,PARK,Study1,U,68,76,Study,User,-,,Study/JOL,"Study Phase2",4197,,,-1,-1,,,,1
5e1bd786afb7a73f9acf643f,53xbkc9zeo,"Deep vs Shallow",1,230,2020-07-08T14:54:30-07:00,10.656785964966,4,versionC_stim.csv,RLVersionD.csv,"Relational Version D","Relational, read only version D",HAND,FIX,Study1,U,75,49,Study,User,-,,Study/JOL,"Study Phase2",9827,,,-1,-1,,,,1
5e1bd786afb7a73f9acf643f,53xbkc9zeo,"Deep vs Shallow",1,231,2020-07-08T14:54:33-07:00,3.6671900749207,4,versionC_stim.csv,RLVersionD.csv,"Relational Version D","Relational, read only version D",SITE,LOCATION,Study1,S,48,40,Study,User,-,,Study/JOL,"Study Phase2",3053,,,-1,-1,,,,1
5e1bd786afb7a73f9acf643f,53xbkc9zeo,"Deep vs Shallow",1,232,2020-07-08T14:54:37-07:00,3.1630330085754,4,versionC_stim.csv,RLVersionD.csv,"Relational Version D","Relational, read only version D",ATTORNEY,LAW,Study1,F,34,84,Study,User,-,,Study/JOL,"Study Phase2",2474,,,-1,-1,,,,1
5e1bd786afb7a73f9acf643f,53xbkc9zeo,"Deep vs Shallow",1,233,2020-07-08T14:54:41-07:00,4.7186768054962,4,versionC_stim.csv,RLVersionD.csv,"Relational Version D","Relational, read only version D",VASE,KING,Study1,U,85,39,Study,User,-,,Study/JOL,"Study Phase2",4093,,,-1,-1,,,,1
5e1bd786afb7a73f9acf643f,53xbkc9zeo,"Deep vs Shallow",1,234,2020-07-08T14:54:44-07:00,3.0316572189331,4,versionC_stim.csv,RLVersionD.csv,"Relational Version D","Relational, read only version D",RACKET,BALL,Study1,F,38,85,Study,User,-,,Study/JOL,"Study Phase2",2393,,,-1,-1,,,,1
5e1bd786afb7a73f9acf643f,53xbkc9zeo,"Deep vs Shallow",1,235,2020-07-08T14:54:48-07:00,3.6226749420166,4,versionC_stim.csv,RLVersionD.csv,"Relational Version D","Relational, read only version D",SALAD,LETTUCE,Study1,S,59,81,Study,User,-,,Study/JOL,"Study Phase2",3017,,,-1,-1,,,,1
5e1bd786afb7a73f9acf643f,53xbkc9zeo,"Deep vs Shallow",1,236,2020-07-08T14:54:51-07:00,3.168135881424,4,versionC_stim.csv,RLVersionD.csv,"Relational Version D","Relational, read only version D",OUT,WAY,Study1,B,16,41,Study,User,-,,Study/JOL,"Study Phase2",2558,,,-1,-1,,,,1
5e1bd786afb7a73f9acf643f,53xbkc9zeo,"Deep vs Shallow",1,237,2020-07-08T14:54:54-07:00,2.8232181072235,4,versionC_stim.csv,RLVersionD.csv,"Relational Version D","Relational, read only version D",CHORE,WORK,Study1,F,39,73,Study,User,-,,Study/JOL,"Study Phase2",2219,,,-1,-1,,,,1
5e1bd786afb7a73f9acf643f,53xbkc9zeo,"Deep vs Shallow",1,238,2020-07-08T14:54:58-07:00,4.3695919513702,4,versionC_stim.csv,RLVersionD.csv,"Relational Version D","Relational, read only version D",WAR,REVOLUTION,Study1,B,20,19,Study,User,-,,Study/JOL,"Study Phase2",3762,,,-1,-1,,,,1
5e1bd786afb7a73f9acf643f,53xbkc9zeo,"Deep vs Shallow",1,239,2020-07-08T14:55:03-07:00,4.551943063736,4,versionC_stim.csv,RLVersionD.csv,"Relational Version D","Relational, read only version D",TUCK,ALLOW,Study1,U,78,69,Study,User,-,,Study/JOL,"Study Phase2",3891,,,-1,-1,,,,1
5e1bd786afb7a73f9acf643f,53xbkc9zeo,"Deep vs Shallow",1,240,2020-07-08T14:55:06-07:00,3.075826883316,4,versionC_stim.csv,RLVersionD.csv,"Relational Version D","Relational, read only version D",FOOT,SHOE,Study1,S,60,51,Study,User,-,,Study/JOL,"Study Phase2",2449,,,-1,-1,,,,1
5e1bd786afb7a73f9acf643f,53xbkc9zeo,"Deep vs Shallow",1,241,2020-07-08T14:55:10-07:00,4.2212300300598,4,versionC_stim.csv,RLVersionD.csv,"Relational Version D","Relational, read only version D",CARD,CREDIT,Study1,B,23,23,Study,User,-,,Study/JOL,"Study Phase2",3524,,,-1,-1,,,,1
5e1bd786afb7a73f9acf643f,53xbkc9zeo,"Deep vs Shallow",1,242,2020-07-08T14:55:14-07:00,4.1190240383148,4,versionC_stim.csv,RLVersionD.csv,"Relational Version D","Relational, read only version D",DIVISION,MATH,Study1,F,33,74,Study,User,-,,Study/JOL,"Study Phase2",3452,,,-1,-1,,,,1
5e1bd786afb7a73f9acf643f,53xbkc9zeo,"Deep vs Shallow",1,243,2020-07-08T14:55:17-07:00,3.2084019184113,4,versionC_stim.csv,RLVersionD.csv,"Relational Version D","Relational, read only version D",WATER,BRIDGE,Study1,B,18,75,Study,User,-,,Study/JOL,"Study Phase2",2600,,,-1,-1,,,,1
5e1bd786afb7a73f9acf643f,53xbkc9zeo,"Deep vs Shallow",1,244,2020-07-08T14:55:21-07:00,3.6538660526276,4,versionC_stim.csv,RLVersionD.csv,"Relational Version D","Relational, read only version D",STOMACH,DIGESTION,Study1,B,7,37,Study,User,-,,Study/JOL,"Study Phase2",3035,,,-1,-1,,,,1
5e1bd786afb7a73f9acf643f,53xbkc9zeo,"Deep vs Shallow",1,245,2020-07-08T14:55:25-07:00,4.3037350177765,4,versionC_stim.csv,RLVersionD.csv,"Relational Version D","Relational, read only version D",ACCIDENT,STRONG,Study1,U,80,16,Study,User,-,,Study/JOL,"Study Phase2",3705,,,-1,-1,,,,1
5e1bd786afb7a73f9acf643f,53xbkc9zeo,"Deep vs Shallow",1,246,2020-07-08T14:55:29-07:00,3.497976064682,4,versionC_stim.csv,RLVersionD.csv,"Relational Version D","Relational, read only version D",COLD,BITTER,Study1,B,12,77,Study,User,-,,Study/JOL,"Study Phase2",2887,,,-1,-1,,,,1
5e1bd786afb7a73f9acf643f,53xbkc9zeo,"Deep vs Shallow",1,247,2020-07-08T14:55:32-07:00,3.1392419338226,4,versionC_stim.csv,RLVersionD.csv,"Relational Version D","Relational, read only version D",LATCH,KEY,Study1,F,36,48,Study,User,-,,Study/JOL,"Study Phase2",2527,,,-1,-1,,,,1
5e1bd786afb7a73f9acf643f,53xbkc9zeo,"Deep vs Shallow",1,248,2020-07-08T14:55:36-07:00,3.580638885498,4,versionC_stim.csv,RLVersionD.csv,"Relational Version D","Relational, read only version D",BAD,DELINQUENT,Study1,B,6,21,Study,User,-,,Study/JOL,"Study Phase2",2973,,,-1,-1,,,,1
5e1bd786afb7a73f9acf643f,53xbkc9zeo,"Deep vs Shallow",1,249,2020-07-08T14:55:40-07:00,3.9332580566406,4,versionC_stim.csv,RLVersionD.csv,"Relational Version D","Relational, read only version D",ATTIRE,CLOTHES,Study1,F,43,27,Study,User,-,,Study/JOL,"Study Phase2",3332,,,-1,-1,,,,1
5e1bd786afb7a73f9acf643f,53xbkc9zeo,"Deep vs Shallow",1,250,2020-07-08T14:55:43-07:00,3.5711209774017,4,versionC_stim.csv,RLVersionD.csv,"Relational Version D","Relational, read only version D",FISH,TUNA,Study1,B,25,33,Study,User,-,,Study/JOL,"Study Phase2",2962,,,-1,-1,,,,1
5e1bd786afb7a73f9acf643f,53xbkc9zeo,"Deep vs Shallow",1,251,2020-07-08T14:55:46-07:00,3.2656021118164,4,versionC_stim.csv,RLVersionD.csv,"Relational Version D","Relational, read only version D",WIND,BLOW,Study1,S,55,66,Study,User,-,,Study/JOL,"Study Phase2",2650,,,-1,-1,,,,1
5e1bd786afb7a73f9acf643f,53xbkc9zeo,"Deep vs Shallow",1,252,2020-07-08T14:55:50-07:00,3.2123429775238,4,versionC_stim.csv,RLVersionD.csv,"Relational Version D","Relational, read only version D",HAMMER,CHISEL,Study1,B,9,67,Study,User,-,,Study/JOL,"Study Phase2",2595,,,-1,-1,,,,1
5e1bd786afb7a73f9acf643f,53xbkc9zeo,"Deep vs Shallow",1,253,2020-07-08T14:55:54-07:00,4.6868178844452,4,versionC_stim.csv,RLVersionD.csv,"Relational Version D","Relational, read only version D",BELT,SOON,Study1,U,70,62,Study,User,-,,Study/JOL,"Study Phase2",4074,,,-1,-1,,,,1
5e1bd786afb7a73f9acf643f,53xbkc9zeo,"Deep vs Shallow",1,254,2020-07-08T14:56:15-07:00,20.510569095612,4,versionC_stim.csv,RLVersionD.csv,"Relational Version D","Relational, read only version D",ASSIGNMENT,DUE,Study1,S,46,78,Study,User,-,,Study/JOL,"Study Phase2",19692,,,-1,-1,,,,1
5e1bd786afb7a73f9acf643f,53xbkc9zeo,"Deep vs Shallow",1,255,2020-07-08T14:56:49-07:00,33.709196090698,4,versionC_stim.csv,RLVersionD.csv,"Relational Version D","Relational, read only version D",RIDDLE,SUGAR,Study1,U,81,26,Study,User,-,,Study/JOL,"Study Phase2",32882,,,-1,-1,,,,1
5e1bd786afb7a73f9acf643f,53xbkc9zeo,"Deep vs Shallow",1,256,2020-07-08T14:56:51-07:00,2.7396018505096,4,versionC_stim.csv,RLVersionD.csv,"Relational Version D","Relational, read only version D",WASTE,DUMP,Study1,S,49,8,Study,User,-,,Study/JOL,"Study Phase2",2120,,,-1,-1,,,,1
5e1bd786afb7a73f9acf643f,53xbkc9zeo,"Deep vs Shallow",1,257,2020-07-08T14:56:59-07:00,7.4791359901428,4,versionC_stim.csv,RLVersionD.csv,"Relational Version D","Relational, read only version D",FANTASTIC,GREAT,Study1,F,35,18,Study,User,-,,Study/JOL,"Study Phase2",6871,,,-1,-1,,,,1
5e1bd786afb7a73f9acf643f,53xbkc9zeo,"Deep vs Shallow",1,258,2020-07-08T14:57:04-07:00,4.7603890895844,4,versionC_stim.csv,RLVersionD.csv,"Relational Version D","Relational, read only version D",STENCH,SMELL,Study1,F,42,50,Study,User,-,,Study/JOL,"Study Phase2",4148,,,-1,-1,,,,1
5e1bd786afb7a73f9acf643f,53xbkc9zeo,"Deep vs Shallow",1,259,2020-07-08T14:57:10-07:00,6.1526079177856,4,versionC_stim.csv,RLVersionD.csv,"Relational Version D","Relational, read only version D",ROUND,CIRCLE,Study1,S,65,11,Study,User,-,,Study/JOL,"Study Phase2",5542,,,-1,-1,,,,1
5e1bd786afb7a73f9acf643f,53xbkc9zeo,"Deep vs Shallow",1,260,2020-07-08T14:57:13-07:00,3.5359501838684,4,versionC_stim.csv,RLVersionD.csv,"Relational Version D","Relational, read only version D",PILOT,PLANE,Study1,F,44,56,Study,User,-,,Study/JOL,"Study Phase2",2934,,,-1,-1,,,,1
5e1bd786afb7a73f9acf643f,53xbkc9zeo,"Deep vs Shallow",1,261,2020-07-08T14:57:18-07:00,5.1231739521027,4,versionC_stim.csv,RLVersionD.csv,"Relational Version D","Relational, read only version D",CLEAN,HYGIENE,Study1,B,17,10,Study,User,-,,Study/JOL,"Study Phase2",4491,,,-1,-1,,,,1
5e1bd786afb7a73f9acf643f,53xbkc9zeo,"Deep vs Shallow",1,262,2020-07-08T14:57:24-07:00,5.6434848308563,4,versionC_stim.csv,RLVersionD.csv,"Relational Version D","Relational, read only version D",CHILI,HOT,Study1,F,37,65,Study,User,-,,Study/JOL,"Study Phase2",4027,,,-1,-1,,,,1
5e1bd786afb7a73f9acf643f,53xbkc9zeo,"Deep vs Shallow",1,263,2020-07-08T14:57:29-07:00,4.7073841094971,4,versionC_stim.csv,RLVersionD.csv,"Relational Version D","Relational, read only version D",BUSINESS,DEATH,Study1,U,72,31,Study,User,-,,Study/JOL,"Study Phase2",4091,,,-1,-1,,,,1
5e1bd786afb7a73f9acf643f,53xbkc9zeo,"Deep vs Shallow",1,264,2020-07-08T14:57:32-07:00,2.9400939941406,4,versionC_stim.csv,RLVersionD.csv,"Relational Version D","Relational, read only version D",DOG,PAW,Study1,B,15,7,Study,User,-,,Study/JOL,"Study Phase2",2329,,,-1,-1,,,,1
5e1bd786afb7a73f9acf643f,53xbkc9zeo,"Deep vs Shallow",1,265,2020-07-08T14:57:36-07:00,4.7477860450745,4,versionC_stim.csv,RLVersionD.csv,"Relational Version D","Relational, read only version D",POSITION,MACHINE,Study1,U,76,64,Study,User,-,,Study/JOL,"Study Phase2",4141,,,-1,-1,,,,1
5e1bd786afb7a73f9acf643f,53xbkc9zeo,"Deep vs Shallow",1,266,2020-07-08T14:57:40-07:00,3.4961240291595,4,versionC_stim.csv,RLVersionD.csv,"Relational Version D","Relational, read only version D",WOMAN,LIFT,Study1,U,69,12,Study,User,-,,Study/JOL,"Study Phase2",2871,,,-1,-1,,,,1
5e1bd786afb7a73f9acf643f,53xbkc9zeo,"Deep vs Shallow",1,267,2020-07-08T14:57:43-07:00,3.0684440135956,4,versionC_stim.csv,RLVersionD.csv,"Relational Version D","Relational, read only version D",PLANT,ROOT,Study1,B,13,59,Study,User,-,,Study/JOL,"Study Phase2",2454,,,-1,-1,,,,1
5e1bd786afb7a73f9acf643f,53xbkc9zeo,"Deep vs Shallow",1,268,2020-07-08T14:57:51-07:00,8.2807729244232,4,versionC_stim.csv,RLVersionD.csv,"Relational Version D","Relational, read only version D",JURY,TRIAL,Study1,S,50,34,Study,User,-,,Study/JOL,"Study Phase2",7650,,,-1,-1,,,,1
5e1bd786afb7a73f9acf643f,53xbkc9zeo,"Deep vs Shallow",1,269,2020-07-08T14:57:57-07:00,5.4390568733215,4,versionC_stim.csv,RLVersionD.csv,"Relational Version D","Relational, read only version D",FAMINE,HUNGER,Study1,F,40,80,Study,User,-,,Study/JOL,"Study Phase2",4828,,,-1,-1,,,,1
5e1bd786afb7a73f9acf643f,53xbkc9zeo,"Deep vs Shallow",1,270,2020-07-08T14:58:00-07:00,3.250155210495,4,versionC_stim.csv,RLVersionD.csv,"Relational Version D","Relational, read only version D",AMOUNT,NUMBER,Study1,S,47,25,Study,User,-,,Study/JOL,"Study Phase2",2647,,,-1,-1,,,,1
5e1bd786afb7a73f9acf643f,53xbkc9zeo,"Deep vs Shallow",1,271,2020-07-08T14:58:03-07:00,2.9352428913116,4,versionC_stim.csv,RLVersionD.csv,"Relational Version D","Relational, read only version D",SPACE,MOON,BUFFER2,Buffer,89,87,Study,User,-,,Study/JOL,BUFFER4,2329,,,-1,-1,,,,1
5e1bd786afb7a73f9acf643f,53xbkc9zeo,"Deep vs Shallow",1,272,2020-07-08T14:58:07-07:00,3.9303669929504,4,versionC_stim.csv,RLVersionD.csv,"Relational Version D","Relational, read only version D",POLICE,SHERRIF,BUFFER2,Buffer,87,88,Study,User,-,,Study/JOL,BUFFER4,3287,,,-1,-1,,,,1
5e1bd786afb7a73f9acf643f,53xbkc9zeo,"Deep vs Shallow",1,273,2020-07-08T14:58:10-07:00,3.5169999599457,4,versionC_stim.csv,RLVersionD.csv,"Relational Version D","Relational, read only version D",STUFF,THING,BUFFER2,Buffer,90,89,Study,User,-,,Study/JOL,BUFFER4,2885,,,-1,-1,,,,1
5e1bd786afb7a73f9acf643f,53xbkc9zeo,"Deep vs Shallow",1,274,2020-07-08T14:58:13-07:00,2.9677791595459,4,versionC_stim.csv,RLVersionD.csv,"Relational Version D","Relational, read only version D",CHOCOLATE,MALT,BUFFER2,Buffer,88,91,Study,User,-,,Study/JOL,BUFFER4,2365,,,-1,-1,,,,1
5e1bd786afb7a73f9acf643f,53xbkc9zeo,"Deep vs Shallow",1,275,2020-07-08T14:58:17-07:00,3.6876199245453,4,versionC_stim.csv,RLVersionD.csv,"Relational Version D","Relational, read only version D",GOOSE,GEESE,BUFFER2,Buffer,86,90,Study,User,-,,Study/JOL,BUFFER4,3071,,,-1,-1,,,,1
5e1bd786afb7a73f9acf643f,53xbkc9zeo,"Deep vs Shallow",1,276,2020-07-08T14:58:19-07:00,1.893935918808,4,versionC_stim.csv,RLVersionD.csv,"Relational Version D","Relational, read only version D",,,,,,0,Instruct,User,-,"You have completed this section. Please press Enter.",Filler_Instruction,Instruct5,1275,,,-1,-1,,,,1
5e1bd786afb7a73f9acf643f,53xbkc9zeo,"Deep vs Shallow",1,277,2020-07-08T14:58:34-07:00,15.143562078476,4,versionC_stim.csv,RLVersionD.csv,"Relational Version D","Relational, read only version D",,,,,,0,FreeRecall,-,10,"What were you supposed to focus on while you studied each pair? (Hint: Think back to the instructions). Type your answer in the space below.",,CHECK3,14317,"memorising the pairs, and thinking about how they are related",0,3487,11999,0,0,,1
5e1bd786afb7a73f9acf643f,53xbkc9zeo,"Deep vs Shallow",1,278,2020-07-08T14:58:36-07:00,1.8392798900604,4,versionC_stim.csv,RLVersionD.csv,"Relational Version D","Relational, read only version D",,,,,,0,Instruct,User,-,"You have completed this section. Please press Enter.",Filler_Instruction,Instruct5,1221,,,-1,-1,,,,1
5e1bd786afb7a73f9acf643f,53xbkc9zeo,"Deep vs Shallow",1,279,2020-07-08T15:00:37-07:00,120.82051706314,4,versionC_stim.csv,RLVersionD.csv,"Relational Version D","Relational, read only version D",,,,,,0,FreeRecall,120,120,"Please list the 50 US states in reverse alphabetical order (z - a). The task will automatically advance to the next screen after two minutes.",,Filler2,120001,"Washington New Jersey Nebraska Florida California Alaska Alabama I am not american",0,9269,64196,0,0,,1
5e1bd786afb7a73f9acf643f,53xbkc9zeo,"Deep vs Shallow",1,280,2020-07-08T15:01:00-07:00,23.322569131851,4,versionC_stim.csv,RLVersionD.csv,"Relational Version D","Relational, read only version D",,,,,,0,Instruct,-,10,"You will now be presented with the first word from each of the previously studied item pairs. Please type the missing word. If you do not know the word, you may guess or press Enter to skip forward to the next pair.",,Instruct6,22492,,,-1,-1,,,,1
5e1bd786afb7a73f9acf643f,53xbkc9zeo,"Deep vs Shallow",1,281,2020-07-08T15:01:04-07:00,4.3078668117523,4,versionC_stim.csv,RLVersionD.csv,"Relational Version D","Relational, read only version D",CAR,HAPPY,Study1,U,77,61,Test,User,-,,Recall,Recall2,3692,windshield,13.333333333333,2428,3532,0,0,,1
5e1bd786afb7a73f9acf643f,53xbkc9zeo,"Deep vs Shallow",1,282,2020-07-08T15:01:07-07:00,2.2682521343231,4,versionC_stim.csv,RLVersionD.csv,"Relational Version D","Relational, read only version D",PILOT,PLANE,Study1,F,44,56,Test,User,-,,Recall,Recall2,1651,plane,100,1139,1515,1,1,,1
5e1bd786afb7a73f9acf643f,53xbkc9zeo,"Deep vs Shallow",1,283,2020-07-08T15:01:09-07:00,2.5184919834137,4,versionC_stim.csv,RLVersionD.csv,"Relational Version D","Relational, read only version D",BLAZE,FIRE,Study1,F,45,83,Test,User,-,,Recall,Recall2,1703,fire,100,1116,1556,1,1,,1
5e1bd786afb7a73f9acf643f,53xbkc9zeo,"Deep vs Shallow",1,284,2020-07-08T15:01:13-07:00,3.6921529769897,4,versionC_stim.csv,RLVersionD.csv,"Relational Version D","Relational, read only version D",FANTASTIC,GREAT,Study1,F,35,18,Test,User,-,,Recall,Recall2,2866,great,100,1970,2586,1,1,,1
5e1bd786afb7a73f9acf643f,53xbkc9zeo,"Deep vs Shallow",1,285,2020-07-08T15:01:21-07:00,7.8860778808594,4,versionC_stim.csv,RLVersionD.csv,"Relational Version D","Relational, read only version D",LIVER,KIDNEY,Study1,S,53,30,Test,User,-,,Recall,Recall2,7271,kidney,100,5838,6998,1,1,,1
5e1bd786afb7a73f9acf643f,53xbkc9zeo,"Deep vs Shallow",1,286,2020-07-08T15:01:23-07:00,2.5307540893555,4,versionC_stim.csv,RLVersionD.csv,"Relational Version D","Relational, read only version D",SIP,DRINK,Study1,F,27,44,Test,User,-,,Recall,Recall2,1909,drink,100,1205,1652,1,1,,1
5e1bd786afb7a73f9acf643f,53xbkc9zeo,"Deep vs Shallow",1,287,2020-07-08T15:01:28-07:00,4.9944550991058,4,versionC_stim.csv,RLVersionD.csv,"Relational Version D","Relational, read only version D",FLOWER,ORCHID,Study1,B,24,86,Test,User,-,,Recall,Recall2,4369,,0,-1,-1,0,0,,1
5e1bd786afb7a73f9acf643f,53xbkc9zeo,"Deep vs Shallow",1,288,2020-07-08T15:01:35-07:00,6.4225828647614,4,versionC_stim.csv,RLVersionD.csv,"Relational Version D","Relational, read only version D",SICK,HIDE,Study1,U,84,71,Test,User,-,,Recall,Recall2,4790,,0,-1,-1,0,0,,1
5e1bd786afb7a73f9acf643f,53xbkc9zeo,"Deep vs Shallow",1,289,2020-07-08T15:01:37-07:00,2.5363831520081,4,versionC_stim.csv,RLVersionD.csv,"Relational Version D","Relational, read only version D",BAR,GRILL,Study1,S,52,14,Test,User,-,,Recall,Recall2,1797,fight,20,1245,1637,0,0,,1
5e1bd786afb7a73f9acf643f,53xbkc9zeo,"Deep vs Shallow",1,290,2020-07-08T15:01:41-07:00,3.8327519893646,4,versionC_stim.csv,RLVersionD.csv,"Relational Version D","Relational, read only version D",END,BEGIN,Study1,S,54,72,Test,User,-,,Recall,Recall2,3000,,0,-1,-1,0,0,,1
5e1bd786afb7a73f9acf643f,53xbkc9zeo,"Deep vs Shallow",1,291,2020-07-08T15:01:44-07:00,3.2688858509064,4,versionC_stim.csv,RLVersionD.csv,"Relational Version D","Relational, read only version D",BAD,DELINQUENT,Study1,B,6,21,Test,User,-,,Recall,Recall2,2630,,0,-1,-1,0,0,,1
5e1bd786afb7a73f9acf643f,53xbkc9zeo,"Deep vs Shallow",1,292,2020-07-08T15:01:51-07:00,6.7747991085052,4,versionC_stim.csv,RLVersionD.csv,"Relational Version D","Relational, read only version D",SITE,LOCATION,Study1,S,48,40,Test,User,-,,Recall,Recall2,6159,place,30.769230769231,5383,5990,0,0,,1
5e1bd786afb7a73f9acf643f,53xbkc9zeo,"Deep vs Shallow",1,293,2020-07-08T15:01:54-07:00,3.4567530155182,4,versionC_stim.csv,RLVersionD.csv,"Relational Version D","Relational, read only version D",WOULD,CASH,Study1,U,83,52,Test,User,-,,Recall,Recall2,2843,,0,-1,-1,0,0,,1
5e1bd786afb7a73f9acf643f,53xbkc9zeo,"Deep vs Shallow",1,294,2020-07-08T15:01:57-07:00,2.9552149772644,4,versionC_stim.csv,RLVersionD.csv,"Relational Version D","Relational, read only version D",FUTURE,PAST,Study1,S,61,36,Test,User,-,,Recall,Recall2,2320,past,100,1815,2159,1,1,,1
5e1bd786afb7a73f9acf643f,53xbkc9zeo,"Deep vs Shallow",1,295,2020-07-08T15:02:02-07:00,4.7751638889313,4,versionC_stim.csv,RLVersionD.csv,"Relational Version D","Relational, read only version D",ACCIDENT,STRONG,Study1,U,80,16,Test,User,-,,Recall,Recall2,4161,crash,18.181818181818,3321,3944,0,0,,1
5e1bd786afb7a73f9acf643f,53xbkc9zeo,"Deep vs Shallow",1,296,2020-07-08T15:02:04-07:00,2.3085041046143,4,versionC_stim.csv,RLVersionD.csv,"Relational Version D","Relational, read only version D",WASP,BUG,Study1,F,32,60,Test,User,-,,Recall,Recall2,1651,bee,33.333333333333,1179,1474,0,0,,1
5e1bd786afb7a73f9acf643f,53xbkc9zeo,"Deep vs Shallow",1,297,2020-07-08T15:02:14-07:00,9.7397730350494,4,versionC_stim.csv,RLVersionD.csv,"Relational Version D","Relational, read only version D",ATTORNEY,LAW,Study1,F,34,84,Test,User,-,,Recall,Recall2,8914,law,100,8305,8728,1,1,,1
5e1bd786afb7a73f9acf643f,53xbkc9zeo,"Deep vs Shallow",1,298,2020-07-08T15:02:20-07:00,5.4698488712311,4,versionC_stim.csv,RLVersionD.csv,"Relational Version D","Relational, read only version D",SACKING,DIETARY,Study1,U,67,29,Test,User,-,,Recall,Recall2,4827,,0,-1,-1,0,0,,1
5e1bd786afb7a73f9acf643f,53xbkc9zeo,"Deep vs Shallow",1,299,2020-07-08T15:02:24-07:00,4.3219909667969,4,versionC_stim.csv,RLVersionD.csv,"Relational Version D","Relational, read only version D",LION,ART,Study1,U,79,54,Test,User,-,,Recall,Recall2,3702,king,0,3061,3620,0,0,,1
5e1bd786afb7a73f9acf643f,53xbkc9zeo,"Deep vs Shallow",1,300,2020-07-08T15:02:30-07:00,5.9316000938416,4,versionC_stim.csv,RLVersionD.csv,"Relational Version D","Relational, read only version D",CARD,CREDIT,Study1,B,23,23,Test,User,-,,Recall,Recall2,5316,credit,100,4540,5180,1,1,,1
5e1bd786afb7a73f9acf643f,53xbkc9zeo,"Deep vs Shallow",1,301,2020-07-08T15:02:33-07:00,3.3740088939667,4,versionC_stim.csv,RLVersionD.csv,"Relational Version D","Relational, read only version D",POSITION,MACHINE,Study1,U,76,64,Test,User,-,,Recall,Recall2,2745,place,50,2009,2615,0,0,,1
5e1bd786afb7a73f9acf643f,53xbkc9zeo,"Deep vs Shallow",1,302,2020-07-08T15:02:36-07:00,2.8041560649872,4,versionC_stim.csv,RLVersionD.csv,"Relational Version D","Relational, read only version D",WATER,BRIDGE,Study1,B,18,75,Test,User,-,,Recall,Recall2,2181,drink,36.363636363636,1557,1980,0,0,,1
5e1bd786afb7a73f9acf643f,53xbkc9zeo,"Deep vs Shallow",1,303,2020-07-08T15:02:40-07:00,3.7668061256409,4,versionC_stim.csv,RLVersionD.csv,"Relational Version D","Relational, read only version D",TUCK,ALLOW,Study1,U,78,69,Test,User,-,,Recall,Recall2,3117,roll,44.444444444444,2372,2916,0,0,,1
5e1bd786afb7a73f9acf643f,53xbkc9zeo,"Deep vs Shallow",1,304,2020-07-08T15:02:43-07:00,3.5864379405975,4,versionC_stim.csv,RLVersionD.csv,"Relational Version D","Relational, read only version D",COW,HERD,Study1,B,22,47,Test,User,-,,Recall,Recall2,2972,milk,0,2204,2692,0,0,,1
5e1bd786afb7a73f9acf643f,53xbkc9zeo,"Deep vs Shallow",1,305,2020-07-08T15:02:48-07:00,4.8804590702057,4,versionC_stim.csv,RLVersionD.csv,"Relational Version D","Relational, read only version D",FAMINE,HUNGER,Study1,F,40,80,Test,User,-,,Recall,Recall2,4262,eat,22.222222222222,3574,3926,0,0,,1
5e1bd786afb7a73f9acf643f,53xbkc9zeo,"Deep vs Shallow",1,306,2020-07-08T15:02:52-07:00,3.5114939212799,4,versionC_stim.csv,RLVersionD.csv,"Relational Version D","Relational, read only version D",ENOUGH,FULL,Study1,F,26,9,Test,User,-,,Recall,Recall2,2896,,0,-1,-1,0,0,,1
5e1bd786afb7a73f9acf643f,53xbkc9zeo,"Deep vs Shallow",1,307,2020-07-08T15:02:56-07:00,4.317519903183,4,versionC_stim.csv,RLVersionD.csv,"Relational Version D","Relational, read only version D",RIDDLE,SUGAR,Study1,U,81,26,Test,User,-,,Recall,Recall2,3692,think,0,2932,3475,0,0,,1
5e1bd786afb7a73f9acf643f,53xbkc9zeo,"Deep vs Shallow",1,308,2020-07-08T15:03:01-07:00,4.4515991210938,4,versionC_stim.csv,RLVersionD.csv,"Relational Version D","Relational, read only version D",ATTIRE,CLOTHES,Study1,F,43,27,Test,User,-,,Recall,Recall2,3838,wear,18.181818181818,3230,3582,0,0,,1
5e1bd786afb7a73f9acf643f,53xbkc9zeo,"Deep vs Shallow",1,309,2020-07-08T15:03:07-07:00,6.2246899604797,4,versionC_stim.csv,RLVersionD.csv,"Relational Version D","Relational, read only version D",FLOOR,DISCOVER,Study1,U,71,53,Test,User,-,,Recall,Recall2,5606,house,30.769230769231,4918,5437,0,0,,1
5e1bd786afb7a73f9acf643f,53xbkc9zeo,"Deep vs Shallow",1,310,2020-07-08T15:03:10-07:00,2.6675770282745,4,versionC_stim.csv,RLVersionD.csv,"Relational Version D","Relational, read only version D",HUNGRY,PARK,Study1,U,68,76,Test,User,-,,Recall,Recall2,2049,eat,28.571428571429,1584,1864,0,0,,1
5e1bd786afb7a73f9acf643f,53xbkc9zeo,"Deep vs Shallow",1,311,2020-07-08T15:03:12-07:00,2.79656291008,4,versionC_stim.csv,RLVersionD.csv,"Relational Version D","Relational, read only version D",HAND,FIX,Study1,U,75,49,Test,User,-,,Recall,Recall2,2167,hold,0,1567,2022,0,0,,1
5e1bd786afb7a73f9acf643f,53xbkc9zeo,"Deep vs Shallow",1,312,2020-07-08T15:03:17-07:00,4.4997570514679,4,versionC_stim.csv,RLVersionD.csv,"Relational Version D","Relational, read only version D",OUT,WAY,Study1,B,16,41,Test,User,-,,Recall,Recall2,3888,baseball,18.181818181818,2615,3687,0,0,,1
5e1bd786afb7a73f9acf643f,53xbkc9zeo,"Deep vs Shallow",1,313,2020-07-08T15:03:20-07:00,2.8675229549408,4,versionC_stim.csv,RLVersionD.csv,"Relational Version D","Relational, read only version D",DESIGN,ARCHITECTURE,Study1,S,51,63,Test,User,-,,Recall,Recall2,2255,house,35.294117647059,1711,2118,0,0,,1
5e1bd786afb7a73f9acf643f,53xbkc9zeo,"Deep vs Shallow",1,314,2020-07-08T15:03:22-07:00,2.5211670398712,4,versionC_stim.csv,RLVersionD.csv,"Relational Version D","Relational, read only version D",RACKET,BALL,Study1,F,38,85,Test,User,-,,Recall,Recall2,1697,ball,100,1152,1487,1,1,,1
5e1bd786afb7a73f9acf643f,53xbkc9zeo,"Deep vs Shallow",1,315,2020-07-08T15:03:26-07:00,3.9950659275055,4,versionC_stim.csv,RLVersionD.csv,"Relational Version D","Relational, read only version D",ROUND,CIRCLE,Study1,S,65,11,Test,User,-,,Recall,Recall2,3161,,0,-1,-1,0,0,,1
5e1bd786afb7a73f9acf643f,53xbkc9zeo,"Deep vs Shallow",1,316,2020-07-08T15:03:29-07:00,3.089280128479,4,versionC_stim.csv,RLVersionD.csv,"Relational Version D","Relational, read only version D",WORD,SENTENCE,Study1,F,31,13,Test,User,-,,Recall,Recall2,2469,play,0,1780,2180,0,0,,1
5e1bd786afb7a73f9acf643f,53xbkc9zeo,"Deep vs Shallow",1,317,2020-07-08T15:03:33-07:00,3.309473991394,4,versionC_stim.csv,RLVersionD.csv,"Relational Version D","Relational, read only version D",CLEAN,HYGIENE,Study1,B,17,10,Test,User,-,,Recall,Recall2,2702,tidy,18.181818181818,2174,2502,0,0,,1
5e1bd786afb7a73f9acf643f,53xbkc9zeo,"Deep vs Shallow",1,318,2020-07-08T15:03:38-07:00,5.5399219989777,4,versionC_stim.csv,RLVersionD.csv,"Relational Version D","Relational, read only version D",CLUTTER,PUSHER,Study1,U,66,79,Test,User,-,,Recall,Recall2,4903,,0,-1,-1,0,0,,1
5e1bd786afb7a73f9acf643f,53xbkc9zeo,"Deep vs Shallow",1,319,2020-07-08T15:03:42-07:00,3.6245758533478,4,versionC_stim.csv,RLVersionD.csv,"Relational Version D","Relational, read only version D",COLD,BITTER,Study1,B,12,77,Test,User,-,,Recall,Recall2,2993,chill,18.181818181818,2128,2791,0,0,,1
5e1bd786afb7a73f9acf643f,53xbkc9zeo,"Deep vs Shallow",1,320,2020-07-08T15:03:45-07:00,3.4715452194214,4,versionC_stim.csv,RLVersionD.csv,"Relational Version D","Relational, read only version D",BELT,SOON,Study1,U,70,62,Test,User,-,,Recall,Recall2,2862,town,50,2374,2677,0,0,,1
5e1bd786afb7a73f9acf643f,53xbkc9zeo,"Deep vs Shallow",1,321,2020-07-08T15:03:54-07:00,9.029837846756,4,versionC_stim.csv,RLVersionD.csv,"Relational Version D","Relational, read only version D",BIRD,SWAN,Study1,B,14,38,Test,User,-,,Recall,Recall2,8418,gull,0,5738,8225,0,0,,1
5e1bd786afb7a73f9acf643f,53xbkc9zeo,"Deep vs Shallow",1,322,2020-07-08T15:03:58-07:00,3.8475370407104,4,versionC_stim.csv,RLVersionD.csv,"Relational Version D","Relational, read only version D",GROWTH,HEIGHT,Study1,F,30,45,Test,User,-,,Recall,Recall2,3227,plant,18.181818181818,2547,3099,0,0,,1
5e1bd786afb7a73f9acf643f,53xbkc9zeo,"Deep vs Shallow",1,323,2020-07-08T15:04:02-07:00,3.7754468917847,4,versionC_stim.csv,RLVersionD.csv,"Relational Version D","Relational, read only version D",TOILET,BATHROOM,Study1,S,58,46,Test,User,-,,Recall,Recall2,3161,,0,-1,-1,0,0,,1
5e1bd786afb7a73f9acf643f,53xbkc9zeo,"Deep vs Shallow",1,324,2020-07-08T15:04:05-07:00,3.064227104187,4,versionC_stim.csv,RLVersionD.csv,"Relational Version D","Relational, read only version D",AMOUNT,NUMBER,Study1,S,47,25,Test,User,-,,Recall,Recall2,2448,money,36.363636363636,1688,2168,0,0,,1
5e1bd786afb7a73f9acf643f,53xbkc9zeo,"Deep vs Shallow",1,325,2020-07-08T15:04:08-07:00,3.1970291137695,4,versionC_stim.csv,RLVersionD.csv,"Relational Version D","Relational, read only version D",NEWS,EDITOR,Study1,B,10,42,Test,User,-,,Recall,Recall2,2561,flash,0,1265,1673,0,0,,1
5e1bd786afb7a73f9acf643f,53xbkc9zeo,"Deep vs Shallow",1,326,2020-07-08T15:04:11-07:00,2.6950469017029,4,versionC_stim.csv,RLVersionD.csv,"Relational Version D","Relational, read only version D",FISH,TUNA,Study1,B,25,33,Test,User,-,,Recall,Recall2,2083,tuna,100,1483,1939,1,1,,1
5e1bd786afb7a73f9acf643f,53xbkc9zeo,"Deep vs Shallow",1,327,2020-07-08T15:04:13-07:00,2.5196959972382,4,versionC_stim.csv,RLVersionD.csv,"Relational Version D","Relational, read only version D",HAMMER,CHISEL,Study1,B,9,67,Test,User,-,,Recall,Recall2,1893,nail,40,1261,1589,0,0,,1
5e1bd786afb7a73f9acf643f,53xbkc9zeo,"Deep vs Shallow",1,328,2020-07-08T15:04:17-07:00,3.4111950397491,4,versionC_stim.csv,RLVersionD.csv,"Relational Version D","Relational, read only version D",CHILI,HOT,Study1,F,37,65,Test,User,-,,Recall,Recall2,2586,pepper,0,1826,2369,0,0,,1
5e1bd786afb7a73f9acf643f,53xbkc9zeo,"Deep vs Shallow",1,329,2020-07-08T15:04:20-07:00,2.9104769229889,4,versionC_stim.csv,RLVersionD.csv,"Relational Version D","Relational, read only version D",DIVISION,MATH,Study1,F,33,74,Test,User,-,,Recall,Recall2,2289,math,100,1705,2009,1,1,,1
5e1bd786afb7a73f9acf643f,53xbkc9zeo,"Deep vs Shallow",1,330,2020-07-08T15:04:23-07:00,3.0958819389343,4,versionC_stim.csv,RLVersionD.csv,"Relational Version D","Relational, read only version D",STING,HORNET,Study1,B,11,55,Test,User,-,,Recall,Recall2,2480,bird,20,1616,2024,0,0,,1
5e1bd786afb7a73f9acf643f,53xbkc9zeo,"Deep vs Shallow",1,331,2020-07-08T15:04:28-07:00,4.9683351516724,4,versionC_stim.csv,RLVersionD.csv,"Relational Version D","Relational, read only version D",SIGHT,DEBATE,Study1,U,73,70,Test,User,-,,Recall,Recall2,4344,seen,40,3744,4159,0,0,,1
5e1bd786afb7a73f9acf643f,53xbkc9zeo,"Deep vs Shallow",1,332,2020-07-08T15:04:31-07:00,2.9071819782257,4,versionC_stim.csv,RLVersionD.csv,"Relational Version D","Relational, read only version D",BEE,HONEY,Study1,S,63,28,Test,User,-,,Recall,Recall2,2292,sting,20,1708,2116,0,0,,1
5e1bd786afb7a73f9acf643f,53xbkc9zeo,"Deep vs Shallow",1,333,2020-07-08T15:04:34-07:00,2.9564309120178,4,versionC_stim.csv,RLVersionD.csv,"Relational Version D","Relational, read only version D",PLANT,ROOT,Study1,B,13,59,Test,User,-,,Recall,Recall2,2343,grow,50,1798,2166,0,0,,1
5e1bd786afb7a73f9acf643f,53xbkc9zeo,"Deep vs Shallow",1,334,2020-07-08T15:04:38-07:00,4.607537984848,4,versionC_stim.csv,RLVersionD.csv,"Relational Version D","Relational, read only version D",TALK,DISCUSSION,Study1,B,21,57,Test,User,-,,Recall,Recall2,3996,play,0,3459,3764,0,0,,1
5e1bd786afb7a73f9acf643f,53xbkc9zeo,"Deep vs Shallow",1,335,2020-07-08T15:04:42-07:00,3.2959311008453,4,versionC_stim.csv,RLVersionD.csv,"Relational Version D","Relational, read only version D",CHORE,WORK,Study1,F,39,73,Test,User,-,,Recall,Recall2,2668,work,100,2179,2476,1,1,,1
5e1bd786afb7a73f9acf643f,53xbkc9zeo,"Deep vs Shallow",1,336,2020-07-08T15:04:44-07:00,2.6857578754425,4,versionC_stim.csv,RLVersionD.csv,"Relational Version D","Relational, read only version D",DROWSY,SLEEP,Study1,F,41,20,Test,User,-,,Recall,Recall2,2058,sleep,100,1322,1770,1,1,,1
5e1bd786afb7a73f9acf643f,53xbkc9zeo,"Deep vs Shallow",1,337,2020-07-08T15:04:47-07:00,3.0713381767273,4,versionC_stim.csv,RLVersionD.csv,"Relational Version D","Relational, read only version D",JURY,TRIAL,Study1,S,50,34,Test,User,-,,Recall,Recall2,2465,out,25,1953,2280,0,0,,1
5e1bd786afb7a73f9acf643f,53xbkc9zeo,"Deep vs Shallow",1,338,2020-07-08T15:04:51-07:00,3.3444468975067,4,versionC_stim.csv,RLVersionD.csv,"Relational Version D","Relational, read only version D",WAR,REVOLUTION,Study1,B,20,19,Test,User,-,,Recall,Recall2,2729,famine,25,2096,2543,0,0,,1
5e1bd786afb7a73f9acf643f,53xbkc9zeo,"Deep vs Shallow",1,339,2020-07-08T15:04:54-07:00,2.9931149482727,4,versionC_stim.csv,RLVersionD.csv,"Relational Version D","Relational, read only version D",ADD,VALLEY,Study1,U,82,24,Test,User,-,,Recall,Recall2,2377,math,20,1720,2080,0,0,,1
5e1bd786afb7a73f9acf643f,53xbkc9zeo,"Deep vs Shallow",1,340,2020-07-08T15:04:58-07:00,4.6313290596008,4,versionC_stim.csv,RLVersionD.csv,"Relational Version D","Relational, read only version D",MONEY,WAGE,Study1,B,8,35,Test,User,-,,Recall,Recall2,4011,,0,-1,-1,0,0,,1
5e1bd786afb7a73f9acf643f,53xbkc9zeo,"Deep vs Shallow",1,341,2020-07-08T15:05:02-07:00,4.0001709461212,4,versionC_stim.csv,RLVersionD.csv,"Relational Version D","Relational, read only version D",STENCH,SMELL,Study1,F,42,50,Test,User,-,,Recall,Recall2,3369,,0,-1,-1,0,0,,1
5e1bd786afb7a73f9acf643f,53xbkc9zeo,"Deep vs Shallow",1,342,2020-07-08T15:05:09-07:00,6.5678110122681,4,versionC_stim.csv,RLVersionD.csv,"Relational Version D","Relational, read only version D",CHEESE,WINE,Study1,S,57,22,Test,User,-,,Recall,Recall2,5939,blue,25,3194,5739,0,0,,1
5e1bd786afb7a73f9acf643f,53xbkc9zeo,"Deep vs Shallow",1,343,2020-07-08T15:05:11-07:00,2.5354580879211,4,versionC_stim.csv,RLVersionD.csv,"Relational Version D","Relational, read only version D",DOG,PAW,Study1,B,15,7,Test,User,-,,Recall,Recall2,1870,cat,33.333333333333,1301,1564,0,0,,1
5e1bd786afb7a73f9acf643f,53xbkc9zeo,"Deep vs Shallow",1,344,2020-07-08T15:05:14-07:00,3.0534799098969,4,versionC_stim.csv,RLVersionD.csv,"Relational Version D","Relational, read only version D",LATCH,KEY,Study1,F,36,48,Test,User,-,,Recall,Recall2,2221,lock,28.571428571429,1517,1981,0,0,,1
5e1bd786afb7a73f9acf643f,53xbkc9zeo,"Deep vs Shallow",1,345,2020-07-08T15:05:36-07:00,21.720127105713,4,versionC_stim.csv,RLVersionD.csv,"Relational Version D","Relational, read only version D",WOMAN,LIFT,Study1,U,69,12,Test,User,-,,Recall,Recall2,20878,man,0,20454,20662,0,0,,1
5e1bd786afb7a73f9acf643f,53xbkc9zeo,"Deep vs Shallow",1,346,2020-07-08T15:05:39-07:00,2.8687310218811,4,versionC_stim.csv,RLVersionD.csv,"Relational Version D","Relational, read only version D",WIND,BLOW,Study1,S,55,66,Test,User,-,,Recall,Recall2,2245,turbine,18.181818181818,1189,2123,0,0,,1
5e1bd786afb7a73f9acf643f,53xbkc9zeo,"Deep vs Shallow",1,347,2020-07-08T15:05:43-07:00,4.3365368843079,4,versionC_stim.csv,RLVersionD.csv,"Relational Version D","Relational, read only version D",ASSIGNMENT,DUE,Study1,S,46,78,Test,User,-,,Recall,Recall2,3725,due,100,3356,3580,1,1,,1
