Username,ID,ExperimentName,Session,Trial,Date,TimeDif,"Condition Number","Stimuli File","Order File","Condition Description","Condition Notes",Stimuli*Cue,Stimuli*Answer,Stimuli*Shuffle,"Stimuli*Stimuli Notes",Stimuli*Value,Procedure*Item,"Procedure*Trial Type","Procedure*Max Time","Procedure*Min Time",Procedure*Text,"Procedure*Procedure Notes",Procedure*Shuffle,Response*RT,Response*Response,Response*Accuracy,Response*RTfirst,Response*RTlast,Response*strictAcc,Response*lenientAcc,Response*focus,Response*Focus
5f04d52bebb486153390a90a,2dwtc6dm38,"Deep vs Shallow",1,1,2020-07-08T14:33:39-07:00,12.331420898438,1,versionA_stim.csv,RLVersionA.csv,"Relational Version A","Relational, read only version A",,,,,,0,Instruct,-,10,"In this section, you will be presented with a series of word pairs. Please study both items in the pair.",,Instruct13,11498,,,-1,-1,,,,1
5f04d52bebb486153390a90a,2dwtc6dm38,"Deep vs Shallow",1,2,2020-07-08T14:34:05-07:00,25.542828083038,1,versionA_stim.csv,RLVersionA.csv,"Relational Version A","Relational, read only version A",,,,,,0,Instruct,-,15,"As you study, please think about how the two concepts are RELATED to each other. For example, if you see the pair TURTLE-CAT, think about how both are alive, they are both animals, and both can be kept as pets.",,Instruct19,24523,,,-1,-1,,,,1
5f04d52bebb486153390a90a,2dwtc6dm38,"Deep vs Shallow",1,3,2020-07-08T14:34:21-07:00,16.74964094162,1,versionA_stim.csv,RLVersionA.csv,"Relational Version A","Relational, read only version A",,,,,,0,FreeRecall,-,10,"What you should think about as you study each item pair? Type your response in the box below.",,CHECK1,15933,"how they are related. i.e. both being alive, both pets, etc.",0,5100,13224,0,0,,1
5f04d52bebb486153390a90a,2dwtc6dm38,"Deep vs Shallow",1,4,2020-07-08T14:34:31-07:00,9.8910610675812,1,versionA_stim.csv,RLVersionA.csv,"Relational Version A","Relational, read only version A",,,,,,0,Instruct,User,-,"You will now begin the experiment. Press ENTER when you are ready to begin.",,Instruct000,9237,,,-1,-1,,,,1
5f04d52bebb486153390a90a,2dwtc6dm38,"Deep vs Shallow",1,5,2020-07-08T14:34:59-07:00,27.627050876617,1,versionA_stim.csv,RLVersionA.csv,"Relational Version A","Relational, read only version A",SCARE,HIDE,BUFFER1,Buffer,4,6,Study,User,-,,Study/JOL,BUFFER,26702,,,-1,-1,,,,1
5f04d52bebb486153390a90a,2dwtc6dm38,"Deep vs Shallow",1,6,2020-07-08T14:35:07-07:00,7.750598192215,1,versionA_stim.csv,RLVersionA.csv,"Relational Version A","Relational, read only version A",BASEBALL,CATCHER,BUFFER1,Buffer,2,3,Study,User,-,,Study/JOL,BUFFER,5930,,,-1,-1,,,,1
5f04d52bebb486153390a90a,2dwtc6dm38,"Deep vs Shallow",1,7,2020-07-08T14:35:12-07:00,5.2231688499451,1,versionA_stim.csv,RLVersionA.csv,"Relational Version A","Relational, read only version A",PEANUT,BUTTER,BUFFER1,Buffer,3,4,Study,User,-,,Study/JOL,BUFFER,4215,,,-1,-1,,,,1
5f04d52bebb486153390a90a,2dwtc6dm38,"Deep vs Shallow",1,8,2020-07-08T14:35:17-07:00,4.8829131126404,1,versionA_stim.csv,RLVersionA.csv,"Relational Version A","Relational, read only version A",SPACE,JAM,BUFFER1,Buffer,5,2,Study,User,-,,Study/JOL,BUFFER,4154,,,-1,-1,,,,1
5f04d52bebb486153390a90a,2dwtc6dm38,"Deep vs Shallow",1,9,2020-07-08T14:35:20-07:00,3.6772968769073,1,versionA_stim.csv,RLVersionA.csv,"Relational Version A","Relational, read only version A",TREES,GREEN,BUFFER1,Buffer,1,5,Study,User,-,,Study/JOL,BUFFER,2839,,,-1,-1,,,,1
5f04d52bebb486153390a90a,2dwtc6dm38,"Deep vs Shallow",1,10,2020-07-08T14:35:27-07:00,6.8513610363007,1,versionA_stim.csv,RLVersionA.csv,"Relational Version A","Relational, read only version A",DIETARY,SACKING,Study1,U,67,27,Study,User,-,,Study/JOL,"Study Phase",6096,,,-1,-1,,,,1
5f04d52bebb486153390a90a,2dwtc6dm38,"Deep vs Shallow",1,11,2020-07-08T14:35:31-07:00,3.6604990959167,1,versionA_stim.csv,RLVersionA.csv,"Relational Version A","Relational, read only version A",BALL,RACKET,Study1,B,38,28,Study,User,-,,Study/JOL,"Study Phase",2862,,,-1,-1,,,,1
5f04d52bebb486153390a90a,2dwtc6dm38,"Deep vs Shallow",1,12,2020-07-08T14:35:35-07:00,4.2003359794617,1,versionA_stim.csv,RLVersionA.csv,"Relational Version A","Relational, read only version A",KING,VASE,Study1,U,85,53,Study,User,-,,Study/JOL,"Study Phase",3416,,,-1,-1,,,,1
5f04d52bebb486153390a90a,2dwtc6dm38,"Deep vs Shallow",1,13,2020-07-08T14:35:37-07:00,2.0187659263611,1,versionA_stim.csv,RLVersionA.csv,"Relational Version A","Relational, read only version A",SOON,BELT,Study1,U,70,70,Study,User,-,,Study/JOL,"Study Phase",1014,,,-1,-1,,,,1
5f04d52bebb486153390a90a,2dwtc6dm38,"Deep vs Shallow",1,14,2020-07-08T14:35:42-07:00,4.4397239685059,1,versionA_stim.csv,RLVersionA.csv,"Relational Version A","Relational, read only version A",FIRE,BLAZE,Study1,B,45,79,Study,User,-,,Study/JOL,"Study Phase",3551,,,-1,-1,,,,1
5f04d52bebb486153390a90a,2dwtc6dm38,"Deep vs Shallow",1,15,2020-07-08T14:35:43-07:00,1.525829076767,1,versionA_stim.csv,RLVersionA.csv,"Relational Version A","Relational, read only version A",GEOLOGY,ROCK,Study1,F,19,58,Study,User,-,,Study/JOL,"Study Phase",881,,,-1,-1,,,,1
5f04d52bebb486153390a90a,2dwtc6dm38,"Deep vs Shallow",1,16,2020-07-08T14:35:45-07:00,1.8444759845734,1,versionA_stim.csv,RLVersionA.csv,"Relational Version A","Relational, read only version A",BRIDGE,WATER,Study1,F,18,26,Study,User,-,,Study/JOL,"Study Phase",1049,,,-1,-1,,,,1
5f04d52bebb486153390a90a,2dwtc6dm38,"Deep vs Shallow",1,17,2020-07-08T14:35:47-07:00,1.8980829715729,1,versionA_stim.csv,RLVersionA.csv,"Relational Version A","Relational, read only version A",PAST,FUTURE,Study1,S,61,57,Study,User,-,,Study/JOL,"Study Phase",973,,,-1,-1,,,,1
5f04d52bebb486153390a90a,2dwtc6dm38,"Deep vs Shallow",1,18,2020-07-08T14:35:48-07:00,1.6146800518036,1,versionA_stim.csv,RLVersionA.csv,"Relational Version A","Relational, read only version A",CREDIT,CARD,Study1,F,23,15,Study,User,-,,Study/JOL,"Study Phase",836,,,-1,-1,,,,1
5f04d52bebb486153390a90a,2dwtc6dm38,"Deep vs Shallow",1,19,2020-07-08T14:35:51-07:00,2.1013789176941,1,versionA_stim.csv,RLVersionA.csv,"Relational Version A","Relational, read only version A",TRIAL,JURY,Study1,S,50,60,Study,User,-,,Study/JOL,"Study Phase",998,,,-1,-1,,,,1
5f04d52bebb486153390a90a,2dwtc6dm38,"Deep vs Shallow",1,20,2020-07-08T14:35:52-07:00,1.6758041381836,1,versionA_stim.csv,RLVersionA.csv,"Relational Version A","Relational, read only version A",EDITOR,NEWS,Study1,F,10,24,Study,User,-,,Study/JOL,"Study Phase",915,,,-1,-1,,,,1
5f04d52bebb486153390a90a,2dwtc6dm38,"Deep vs Shallow",1,21,2020-07-08T14:36:20-07:00,27.902031898499,1,versionA_stim.csv,RLVersionA.csv,"Relational Version A","Relational, read only version A",DELINQUENT,BAD,Study1,F,6,84,Study,User,-,,Study/JOL,"Study Phase",27110,,,-1,-1,,,,1
5f04d52bebb486153390a90a,2dwtc6dm38,"Deep vs Shallow",1,22,2020-07-08T14:36:22-07:00,2.2155590057373,1,versionA_stim.csv,RLVersionA.csv,"Relational Version A","Relational, read only version A",GREAT,FANTASTIC,Study1,B,35,37,Study,User,-,,Study/JOL,"Study Phase",1069,,,-1,-1,,,,1
5f04d52bebb486153390a90a,2dwtc6dm38,"Deep vs Shallow",1,23,2020-07-08T14:36:24-07:00,1.7268750667572,1,versionA_stim.csv,RLVersionA.csv,"Relational Version A","Relational, read only version A",PLANE,PILOT,Study1,B,44,13,Study,User,-,,Study/JOL,"Study Phase",799,,,-1,-1,,,,1
5f04d52bebb486153390a90a,2dwtc6dm38,"Deep vs Shallow",1,24,2020-07-08T14:36:26-07:00,1.721184015274,1,versionA_stim.csv,RLVersionA.csv,"Relational Version A","Relational, read only version A",WAY,OUT,Study1,F,16,59,Study,User,-,,Study/JOL,"Study Phase",786,,,-1,-1,,,,1
5f04d52bebb486153390a90a,2dwtc6dm38,"Deep vs Shallow",1,25,2020-07-08T14:36:28-07:00,1.8631069660187,1,versionA_stim.csv,RLVersionA.csv,"Relational Version A","Relational, read only version A",MEANING,DEFINITION,Study1,S,62,74,Study,User,-,,Study/JOL,"Study Phase",974,,,-1,-1,,,,1
5f04d52bebb486153390a90a,2dwtc6dm38,"Deep vs Shallow",1,26,2020-07-08T14:36:30-07:00,1.8432259559631,1,versionA_stim.csv,RLVersionA.csv,"Relational Version A","Relational, read only version A",BABY,CHILD,Study1,S,64,82,Study,User,-,,Study/JOL,"Study Phase",831,,,-1,-1,,,,1
5f04d52bebb486153390a90a,2dwtc6dm38,"Deep vs Shallow",1,27,2020-07-08T14:36:32-07:00,2.7466039657593,1,versionA_stim.csv,RLVersionA.csv,"Relational Version A","Relational, read only version A",DARK,CAVE,Study1,B,28,71,Study,User,-,,Study/JOL,"Study Phase",2005,,,-1,-1,,,,1
5f04d52bebb486153390a90a,2dwtc6dm38,"Deep vs Shallow",1,28,2020-07-08T14:36:34-07:00,1.62455701828,1,versionA_stim.csv,RLVersionA.csv,"Relational Version A","Relational, read only version A",ROOT,PLANT,Study1,F,13,76,Study,User,-,,Study/JOL,"Study Phase",953,,,-1,-1,,,,1
5f04d52bebb486153390a90a,2dwtc6dm38,"Deep vs Shallow",1,29,2020-07-08T14:36:36-07:00,1.9496121406555,1,versionA_stim.csv,RLVersionA.csv,"Relational Version A","Relational, read only version A",PARK,HUNGRY,Study1,U,68,8,Study,User,-,,Study/JOL,"Study Phase",1240,,,-1,-1,,,,1
5f04d52bebb486153390a90a,2dwtc6dm38,"Deep vs Shallow",1,30,2020-07-08T14:36:38-07:00,1.8192598819733,1,versionA_stim.csv,RLVersionA.csv,"Relational Version A","Relational, read only version A",NUMBER,AMOUNT,Study1,S,47,54,Study,User,-,,Study/JOL,"Study Phase",771,,,-1,-1,,,,1
5f04d52bebb486153390a90a,2dwtc6dm38,"Deep vs Shallow",1,31,2020-07-08T14:36:40-07:00,1.9793219566345,1,versionA_stim.csv,RLVersionA.csv,"Relational Version A","Relational, read only version A",REVOLUTION,WAR,Study1,F,20,73,Study,User,-,,Study/JOL,"Study Phase",1004,,,-1,-1,,,,1
5f04d52bebb486153390a90a,2dwtc6dm38,"Deep vs Shallow",1,32,2020-07-08T14:36:41-07:00,1.7934820652008,1,versionA_stim.csv,RLVersionA.csv,"Relational Version A","Relational, read only version A",HOT,CHILI,Study1,B,37,12,Study,User,-,,Study/JOL,"Study Phase",834,,,-1,-1,,,,1
5f04d52bebb486153390a90a,2dwtc6dm38,"Deep vs Shallow",1,33,2020-07-08T14:36:43-07:00,1.3950140476227,1,versionA_stim.csv,RLVersionA.csv,"Relational Version A","Relational, read only version A",STRONG,ACCIDENT,Study1,U,80,31,Study,User,-,,Study/JOL,"Study Phase",835,,,-1,-1,,,,1
5f04d52bebb486153390a90a,2dwtc6dm38,"Deep vs Shallow",1,34,2020-07-08T14:36:45-07:00,1.7251329421997,1,versionA_stim.csv,RLVersionA.csv,"Relational Version A","Relational, read only version A",CIRCLE,ROUND,Study1,S,65,45,Study,User,-,,Study/JOL,"Study Phase",927,,,-1,-1,,,,1
5f04d52bebb486153390a90a,2dwtc6dm38,"Deep vs Shallow",1,35,2020-07-08T14:36:46-07:00,1.803719997406,1,versionA_stim.csv,RLVersionA.csv,"Relational Version A","Relational, read only version A",HORNET,STING,Study1,F,11,11,Study,User,-,,Study/JOL,"Study Phase",1018,,,-1,-1,,,,1
5f04d52bebb486153390a90a,2dwtc6dm38,"Deep vs Shallow",1,36,2020-07-08T14:36:48-07:00,1.7414588928223,1,versionA_stim.csv,RLVersionA.csv,"Relational Version A","Relational, read only version A",KEY,LATCH,Study1,B,36,72,Study,User,-,,Study/JOL,"Study Phase",754,,,-1,-1,,,,1
5f04d52bebb486153390a90a,2dwtc6dm38,"Deep vs Shallow",1,37,2020-07-08T14:36:58-07:00,10.3464012146,1,versionA_stim.csv,RLVersionA.csv,"Relational Version A","Relational, read only version A",FULL,ENOUGH,Study1,B,26,21,Study,User,-,,Study/JOL,"Study Phase",9519,,,-1,-1,,,,1
5f04d52bebb486153390a90a,2dwtc6dm38,"Deep vs Shallow",1,38,2020-07-08T14:37:00-07:00,1.6573119163513,1,versionA_stim.csv,RLVersionA.csv,"Relational Version A","Relational, read only version A",CHISEL,HAMMER,Study1,F,9,34,Study,User,-,,Study/JOL,"Study Phase",970,,,-1,-1,,,,1
5f04d52bebb486153390a90a,2dwtc6dm38,"Deep vs Shallow",1,39,2020-07-08T14:37:02-07:00,1.8001370429993,1,versionA_stim.csv,RLVersionA.csv,"Relational Version A","Relational, read only version A",HIDE,SICK,Study1,U,84,43,Study,User,-,,Study/JOL,"Study Phase",988,,,-1,-1,,,,1
5f04d52bebb486153390a90a,2dwtc6dm38,"Deep vs Shallow",1,40,2020-07-08T14:37:06-07:00,4.0809438228607,1,versionA_stim.csv,RLVersionA.csv,"Relational Version A","Relational, read only version A",ARCHITECTURE,DESIGN,Study1,S,51,25,Study,User,-,,Study/JOL,"Study Phase",3239,,,-1,-1,,,,1
5f04d52bebb486153390a90a,2dwtc6dm38,"Deep vs Shallow",1,41,2020-07-08T14:37:09-07:00,2.7724862098694,1,versionA_stim.csv,RLVersionA.csv,"Relational Version A","Relational, read only version A",DUMP,WASTE,Study1,S,49,16,Study,User,-,,Study/JOL,"Study Phase",2095,,,-1,-1,,,,1
5f04d52bebb486153390a90a,2dwtc6dm38,"Deep vs Shallow",1,42,2020-07-08T14:37:16-07:00,7.7094910144806,1,versionA_stim.csv,RLVersionA.csv,"Relational Version A","Relational, read only version A",VALLEY,ADD,Study1,U,82,69,Study,User,-,,Study/JOL,"Study Phase",6980,,,-1,-1,,,,1
5f04d52bebb486153390a90a,2dwtc6dm38,"Deep vs Shallow",1,43,2020-07-08T14:37:19-07:00,2.594673871994,1,versionA_stim.csv,RLVersionA.csv,"Relational Version A","Relational, read only version A",LOCATION,SITE,Study1,S,48,56,Study,User,-,,Study/JOL,"Study Phase",1530,,,-1,-1,,,,1
5f04d52bebb486153390a90a,2dwtc6dm38,"Deep vs Shallow",1,44,2020-07-08T14:37:25-07:00,6.0433928966522,1,versionA_stim.csv,RLVersionA.csv,"Relational Version A","Relational, read only version A",,,,,,0,Instruct,-,3,"Remember to focus on how the two items are similiar while you study!",,CHECK2,5310,,,-1,-1,,,,1
5f04d52bebb486153390a90a,2dwtc6dm38,"Deep vs Shallow",1,45,2020-07-08T14:38:19-07:00,54.026270151138,1,versionA_stim.csv,RLVersionA.csv,"Relational Version A","Relational, read only version A",BATHROOM,TOILET,Study1,S,58,64,Study,User,-,,Study/JOL,"Study Phase",53165,,,-1,-1,,,,1
5f04d52bebb486153390a90a,2dwtc6dm38,"Deep vs Shallow",1,46,2020-07-08T14:38:21-07:00,2.0366189479828,1,versionA_stim.csv,RLVersionA.csv,"Relational Version A","Relational, read only version A",DISCOVER,FLOOR,Study1,U,71,41,Study,User,-,,Study/JOL,"Study Phase",1030,,,-1,-1,,,,1
5f04d52bebb486153390a90a,2dwtc6dm38,"Deep vs Shallow",1,47,2020-07-08T14:38:23-07:00,1.700098991394,1,versionA_stim.csv,RLVersionA.csv,"Relational Version A","Relational, read only version A",HUNGER,FAMINE,Study1,B,40,30,Study,User,-,,Study/JOL,"Study Phase",949,,,-1,-1,,,,1
5f04d52bebb486153390a90a,2dwtc6dm38,"Deep vs Shallow",1,48,2020-07-08T14:38:25-07:00,1.6573960781097,1,versionA_stim.csv,RLVersionA.csv,"Relational Version A","Relational, read only version A",DIGESTION,STOMACH,Study1,F,7,40,Study,User,-,,Study/JOL,"Study Phase",764,,,-1,-1,,,,1
5f04d52bebb486153390a90a,2dwtc6dm38,"Deep vs Shallow",1,49,2020-07-08T14:38:26-07:00,1.2995669841766,1,versionA_stim.csv,RLVersionA.csv,"Relational Version A","Relational, read only version A",SWAN,BIRD,Study1,F,14,23,Study,User,-,,Study/JOL,"Study Phase",717,,,-1,-1,,,,1
5f04d52bebb486153390a90a,2dwtc6dm38,"Deep vs Shallow",1,50,2020-07-08T14:38:27-07:00,1.6271328926086,1,versionA_stim.csv,RLVersionA.csv,"Relational Version A","Relational, read only version A",ART,LION,Study1,U,79,63,Study,User,-,,Study/JOL,"Study Phase",857,,,-1,-1,,,,1
5f04d52bebb486153390a90a,2dwtc6dm38,"Deep vs Shallow",1,51,2020-07-08T14:38:30-07:00,2.2655780315399,1,versionA_stim.csv,RLVersionA.csv,"Relational Version A","Relational, read only version A",SMELL,STENCH,Study1,B,42,18,Study,User,-,,Study/JOL,"Study Phase",1152,,,-1,-1,,,,1
5f04d52bebb486153390a90a,2dwtc6dm38,"Deep vs Shallow",1,52,2020-07-08T14:38:31-07:00,1.6512889862061,1,versionA_stim.csv,RLVersionA.csv,"Relational Version A","Relational, read only version A",BITTER,COLD,Study1,F,12,47,Study,User,-,,Study/JOL,"Study Phase",861,,,-1,-1,,,,1
5f04d52bebb486153390a90a,2dwtc6dm38,"Deep vs Shallow",1,53,2020-07-08T14:38:33-07:00,1.7205100059509,1,versionA_stim.csv,RLVersionA.csv,"Relational Version A","Relational, read only version A",WINE,CHEESE,Study1,S,57,83,Study,User,-,,Study/JOL,"Study Phase",769,,,-1,-1,,,,1
5f04d52bebb486153390a90a,2dwtc6dm38,"Deep vs Shallow",1,54,2020-07-08T14:38:36-07:00,2.4473390579224,1,versionA_stim.csv,RLVersionA.csv,"Relational Version A","Relational, read only version A",BEGIN,END,Study1,S,54,81,Study,User,-,,Study/JOL,"Study Phase",841,,,-1,-1,,,,1
5f04d52bebb486153390a90a,2dwtc6dm38,"Deep vs Shallow",1,55,2020-07-08T14:38:37-07:00,1.417277097702,1,versionA_stim.csv,RLVersionA.csv,"Relational Version A","Relational, read only version A",DEBATE,SIGHT,Study1,U,73,35,Study,User,-,,Study/JOL,"Study Phase",781,,,-1,-1,,,,1
5f04d52bebb486153390a90a,2dwtc6dm38,"Deep vs Shallow",1,56,2020-07-08T14:38:39-07:00,1.6843738555908,1,versionA_stim.csv,RLVersionA.csv,"Relational Version A","Relational, read only version A",DISCUSSION,TALK,Study1,F,21,44,Study,User,-,,Study/JOL,"Study Phase",821,,,-1,-1,,,,1
5f04d52bebb486153390a90a,2dwtc6dm38,"Deep vs Shallow",1,57,2020-07-08T14:38:40-07:00,1.7586901187897,1,versionA_stim.csv,RLVersionA.csv,"Relational Version A","Relational, read only version A",DRINK,SIP,Study1,B,27,67,Study,User,-,,Study/JOL,"Study Phase",795,,,-1,-1,,,,1
5f04d52bebb486153390a90a,2dwtc6dm38,"Deep vs Shallow",1,58,2020-07-08T14:38:42-07:00,1.2634890079498,1,versionA_stim.csv,RLVersionA.csv,"Relational Version A","Relational, read only version A",HYGIENE,CLEAN,Study1,F,17,65,Study,User,-,,Study/JOL,"Study Phase",757,,,-1,-1,,,,1
5f04d52bebb486153390a90a,2dwtc6dm38,"Deep vs Shallow",1,59,2020-07-08T14:38:43-07:00,1.7445919513702,1,versionA_stim.csv,RLVersionA.csv,"Relational Version A","Relational, read only version A",BLOW,WIND,Study1,S,55,20,Study,User,-,,Study/JOL,"Study Phase",800,,,-1,-1,,,,1
5f04d52bebb486153390a90a,2dwtc6dm38,"Deep vs Shallow",1,60,2020-07-08T14:38:47-07:00,3.8548979759216,1,versionA_stim.csv,RLVersionA.csv,"Relational Version A","Relational, read only version A",HAPPY,CAR,Study1,U,77,36,Study,User,-,,Study/JOL,"Study Phase",3090,,,-1,-1,,,,1
5f04d52bebb486153390a90a,2dwtc6dm38,"Deep vs Shallow",1,61,2020-07-08T14:38:49-07:00,1.7766020298004,1,versionA_stim.csv,RLVersionA.csv,"Relational Version A","Relational, read only version A",HERD,COW,Study1,F,22,75,Study,User,-,,Study/JOL,"Study Phase",983,,,-1,-1,,,,1
5f04d52bebb486153390a90a,2dwtc6dm38,"Deep vs Shallow",1,62,2020-07-08T14:38:51-07:00,1.5573740005493,1,versionA_stim.csv,RLVersionA.csv,"Relational Version A","Relational, read only version A",TUNA,FISH,Study1,F,25,52,Study,User,-,,Study/JOL,"Study Phase",719,,,-1,-1,,,,1
5f04d52bebb486153390a90a,2dwtc6dm38,"Deep vs Shallow",1,63,2020-07-08T14:38:52-07:00,1.8276538848877,1,versionA_stim.csv,RLVersionA.csv,"Relational Version A","Relational, read only version A",LIFT,WOMAN,Study1,U,69,50,Study,User,-,,Study/JOL,"Study Phase",1101,,,-1,-1,,,,1
5f04d52bebb486153390a90a,2dwtc6dm38,"Deep vs Shallow",1,64,2020-07-08T14:38:54-07:00,1.8403069972992,1,versionA_stim.csv,RLVersionA.csv,"Relational Version A","Relational, read only version A",PAW,DOG,Study1,F,15,10,Study,User,-,,Study/JOL,"Study Phase",906,,,-1,-1,,,,1
5f04d52bebb486153390a90a,2dwtc6dm38,"Deep vs Shallow",1,65,2020-07-08T14:38:56-07:00,1.7734460830688,1,versionA_stim.csv,RLVersionA.csv,"Relational Version A","Relational, read only version A",SUGAR,RIDDLE,Study1,U,81,66,Study,User,-,,Study/JOL,"Study Phase",825,,,-1,-1,,,,1
5f04d52bebb486153390a90a,2dwtc6dm38,"Deep vs Shallow",1,66,2020-07-08T14:38:58-07:00,1.5940868854523,1,versionA_stim.csv,RLVersionA.csv,"Relational Version A","Relational, read only version A",HEIGHT,GROWTH,Study1,B,30,14,Study,User,-,,Study/JOL,"Study Phase",774,,,-1,-1,,,,1
5f04d52bebb486153390a90a,2dwtc6dm38,"Deep vs Shallow",1,67,2020-07-08T14:38:59-07:00,1.3312311172485,1,versionA_stim.csv,RLVersionA.csv,"Relational Version A","Relational, read only version A",SLEEP,DROWSY,Study1,B,41,80,Study,User,-,,Study/JOL,"Study Phase",668,,,-1,-1,,,,1
5f04d52bebb486153390a90a,2dwtc6dm38,"Deep vs Shallow",1,68,2020-07-08T14:39:01-07:00,1.8389658927917,1,versionA_stim.csv,RLVersionA.csv,"Relational Version A","Relational, read only version A",BUG,WASP,Study1,B,32,17,Study,User,-,,Study/JOL,"Study Phase",791,,,-1,-1,,,,1
5f04d52bebb486153390a90a,2dwtc6dm38,"Deep vs Shallow",1,69,2020-07-08T14:39:02-07:00,1.4260129928589,1,versionA_stim.csv,RLVersionA.csv,"Relational Version A","Relational, read only version A",FIX,HAND,Study1,U,75,61,Study,User,-,,Study/JOL,"Study Phase",763,,,-1,-1,,,,1
5f04d52bebb486153390a90a,2dwtc6dm38,"Deep vs Shallow",1,70,2020-07-08T14:39:04-07:00,1.8742761611938,1,versionA_stim.csv,RLVersionA.csv,"Relational Version A","Relational, read only version A",WORK,CHORE,Study1,B,39,46,Study,User,-,,Study/JOL,"Study Phase",825,,,-1,-1,,,,1
5f04d52bebb486153390a90a,2dwtc6dm38,"Deep vs Shallow",1,71,2020-07-08T14:39:17-07:00,12.50843501091,1,versionA_stim.csv,RLVersionA.csv,"Relational Version A","Relational, read only version A",CLOTHES,ATTIRE,Study1,B,43,55,Study,User,-,,Study/JOL,"Study Phase",11448,,,-1,-1,,,,1
5f04d52bebb486153390a90a,2dwtc6dm38,"Deep vs Shallow",1,72,2020-07-08T14:39:21-07:00,3.8775098323822,1,versionA_stim.csv,RLVersionA.csv,"Relational Version A","Relational, read only version A",LAW,ATTORNEY,Study1,B,34,51,Study,User,-,,Study/JOL,"Study Phase",3054,,,-1,-1,,,,1
5f04d52bebb486153390a90a,2dwtc6dm38,"Deep vs Shallow",1,73,2020-07-08T14:39:23-07:00,2.8463070392609,1,versionA_stim.csv,RLVersionA.csv,"Relational Version A","Relational, read only version A",SENTENCE,WORD,Study1,B,31,85,Study,User,-,,Study/JOL,"Study Phase",2071,,,-1,-1,,,,1
5f04d52bebb486153390a90a,2dwtc6dm38,"Deep vs Shallow",1,74,2020-07-08T14:39:27-07:00,3.3563470840454,1,versionA_stim.csv,RLVersionA.csv,"Relational Version A","Relational, read only version A",TAKE,SEIZE,Study1,B,29,9,Study,User,-,,Study/JOL,"Study Phase",2573,,,-1,-1,,,,1
5f04d52bebb486153390a90a,2dwtc6dm38,"Deep vs Shallow",1,75,2020-07-08T14:39:28-07:00,1.5148968696594,1,versionA_stim.csv,RLVersionA.csv,"Relational Version A","Relational, read only version A",ARTERY,BRONZE,Study1,U,74,22,Study,User,-,,Study/JOL,"Study Phase",791,,,-1,-1,,,,1
5f04d52bebb486153390a90a,2dwtc6dm38,"Deep vs Shallow",1,76,2020-07-08T14:39:30-07:00,1.5851030349731,1,versionA_stim.csv,RLVersionA.csv,"Relational Version A","Relational, read only version A",POP,SODA,Study1,S,56,33,Study,User,-,,Study/JOL,"Study Phase",696,,,-1,-1,,,,1
5f04d52bebb486153390a90a,2dwtc6dm38,"Deep vs Shallow",1,77,2020-07-08T14:39:31-07:00,1.4667060375214,1,versionA_stim.csv,RLVersionA.csv,"Relational Version A","Relational, read only version A",ORCHID,FLOWER,Study1,F,24,42,Study,User,-,,Study/JOL,"Study Phase",810,,,-1,-1,,,,1
5f04d52bebb486153390a90a,2dwtc6dm38,"Deep vs Shallow",1,78,2020-07-08T14:39:33-07:00,1.5693681240082,1,versionA_stim.csv,RLVersionA.csv,"Relational Version A","Relational, read only version A",DEATH,BUSINESS,Study1,U,72,77,Study,User,-,,Study/JOL,"Study Phase",903,,,-1,-1,,,,1
5f04d52bebb486153390a90a,2dwtc6dm38,"Deep vs Shallow",1,79,2020-07-08T14:39:34-07:00,1.4217557907104,1,versionA_stim.csv,RLVersionA.csv,"Relational Version A","Relational, read only version A",GRILL,BAR,Study1,S,52,78,Study,User,-,,Study/JOL,"Study Phase",870,,,-1,-1,,,,1
5f04d52bebb486153390a90a,2dwtc6dm38,"Deep vs Shallow",1,80,2020-07-08T14:39:37-07:00,3.1658170223236,1,versionA_stim.csv,RLVersionA.csv,"Relational Version A","Relational, read only version A",LETTUCE,SALAD,Study1,S,59,39,Study,User,-,,Study/JOL,"Study Phase",2341,,,-1,-1,,,,1
5f04d52bebb486153390a90a,2dwtc6dm38,"Deep vs Shallow",1,81,2020-07-08T14:39:39-07:00,1.7004420757294,1,versionA_stim.csv,RLVersionA.csv,"Relational Version A","Relational, read only version A",WAGE,MONEY,Study1,F,8,29,Study,User,-,,Study/JOL,"Study Phase",704,,,-1,-1,,,,1
5f04d52bebb486153390a90a,2dwtc6dm38,"Deep vs Shallow",1,82,2020-07-08T14:39:41-07:00,1.665766954422,1,versionA_stim.csv,RLVersionA.csv,"Relational Version A","Relational, read only version A",SHOE,FOOT,Study1,S,60,48,Study,User,-,,Study/JOL,"Study Phase",926,,,-1,-1,,,,1
5f04d52bebb486153390a90a,2dwtc6dm38,"Deep vs Shallow",1,83,2020-07-08T14:39:43-07:00,2.2396099567413,1,versionA_stim.csv,RLVersionA.csv,"Relational Version A","Relational, read only version A",KIDNEY,LIVER,Study1,S,53,32,Study,User,-,,Study/JOL,"Study Phase",1181,,,-1,-1,,,,1
5f04d52bebb486153390a90a,2dwtc6dm38,"Deep vs Shallow",1,84,2020-07-08T14:40:43-07:00,59.588330030441,1,versionA_stim.csv,RLVersionA.csv,"Relational Version A","Relational, read only version A",CASH,WOULD,Study1,U,83,19,Study,User,-,,Study/JOL,"Study Phase",58461,,,-1,-1,,,,1
5f04d52bebb486153390a90a,2dwtc6dm38,"Deep vs Shallow",1,85,2020-07-08T14:40:44-07:00,1.5863780975342,1,versionA_stim.csv,RLVersionA.csv,"Relational Version A","Relational, read only version A",DUE,ASSIGNMENT,Study1,S,46,86,Study,User,-,,Study/JOL,"Study Phase",880,,,-1,-1,,,,1
5f04d52bebb486153390a90a,2dwtc6dm38,"Deep vs Shallow",1,86,2020-07-08T14:43:54-07:00,189.98985886574,1,versionA_stim.csv,RLVersionA.csv,"Relational Version A","Relational, read only version A",HONEY,BEE,Study1,S,63,68,Study,User,-,,Study/JOL,"Study Phase",189157,,,-1,-1,,,,1
5f04d52bebb486153390a90a,2dwtc6dm38,"Deep vs Shallow",1,87,2020-07-08T14:43:56-07:00,1.3983881473541,1,versionA_stim.csv,RLVersionA.csv,"Relational Version A","Relational, read only version A",ALLOW,TUCK,Study1,U,78,49,Study,User,-,,Study/JOL,"Study Phase",777,,,-1,-1,,,,1
5f04d52bebb486153390a90a,2dwtc6dm38,"Deep vs Shallow",1,88,2020-07-08T14:43:57-07:00,1.7215740680695,1,versionA_stim.csv,RLVersionA.csv,"Relational Version A","Relational, read only version A",MATH,DIVISION,Study1,B,33,62,Study,User,-,,Study/JOL,"Study Phase",1043,,,-1,-1,,,,1
5f04d52bebb486153390a90a,2dwtc6dm38,"Deep vs Shallow",1,89,2020-07-08T14:43:59-07:00,1.5675938129425,1,versionA_stim.csv,RLVersionA.csv,"Relational Version A","Relational, read only version A",MACHINE,POSITION,Study1,U,76,7,Study,User,-,,Study/JOL,"Study Phase",729,,,-1,-1,,,,1
5f04d52bebb486153390a90a,2dwtc6dm38,"Deep vs Shallow",1,90,2020-07-08T14:46:34-07:00,154.64467597008,1,versionA_stim.csv,RLVersionA.csv,"Relational Version A","Relational, read only version A",PUSHER,CLUTTER,Study1,U,66,38,Study,User,-,,Study/JOL,"Study Phase",153547,,,-1,-1,,,,1
5f04d52bebb486153390a90a,2dwtc6dm38,"Deep vs Shallow",1,91,2020-07-08T14:46:36-07:00,2.4112920761108,1,versionA_stim.csv,RLVersionA.csv,"Relational Version A","Relational, read only version A",THING,STUFF,BUFFER2,Buffer,90,90,Study,User,-,,Study/JOL,BUFFER2,737,,,-1,-1,,,,1
5f04d52bebb486153390a90a,2dwtc6dm38,"Deep vs Shallow",1,92,2020-07-08T14:46:38-07:00,1.7331891059875,1,versionA_stim.csv,RLVersionA.csv,"Relational Version A","Relational, read only version A",SHERRIF,POLICE,BUFFER2,Buffer,87,88,Study,User,-,,Study/JOL,BUFFER2,725,,,-1,-1,,,,1
5f04d52bebb486153390a90a,2dwtc6dm38,"Deep vs Shallow",1,93,2020-07-08T14:46:40-07:00,2.1655688285828,1,versionA_stim.csv,RLVersionA.csv,"Relational Version A","Relational, read only version A",MOON,SPACE,BUFFER2,Buffer,89,89,Study,User,-,,Study/JOL,BUFFER2,1068,,,-1,-1,,,,1
5f04d52bebb486153390a90a,2dwtc6dm38,"Deep vs Shallow",1,94,2020-07-08T14:46:42-07:00,1.8288412094116,1,versionA_stim.csv,RLVersionA.csv,"Relational Version A","Relational, read only version A",MALT,CHOCOLATE,BUFFER2,Buffer,88,87,Study,User,-,,Study/JOL,BUFFER2,941,,,-1,-1,,,,1
5f04d52bebb486153390a90a,2dwtc6dm38,"Deep vs Shallow",1,95,2020-07-08T14:46:44-07:00,1.8525660037994,1,versionA_stim.csv,RLVersionA.csv,"Relational Version A","Relational, read only version A",GEESE,GOOSE,BUFFER2,Buffer,86,91,Study,User,-,,Study/JOL,BUFFER2,1169,,,-1,-1,,,,1
5f04d52bebb486153390a90a,2dwtc6dm38,"Deep vs Shallow",1,96,2020-07-08T14:46:48-07:00,4.0582299232483,1,versionA_stim.csv,RLVersionA.csv,"Relational Version A","Relational, read only version A",,,,,,0,Instruct,User,-,"You have completed this section. Please press Enter.",Filler_Instruction,Instruct2,2124,,,-1,-1,,,,1
5f04d52bebb486153390a90a,2dwtc6dm38,"Deep vs Shallow",1,97,2020-07-08T14:46:50-07:00,2.5743780136108,1,versionA_stim.csv,RLVersionA.csv,"Relational Version A","Relational, read only version A",,,,,,0,Instruct,User,-,"You have completed this section. Please press Enter.",Filler_Instruction,Instruct5,1565,,,-1,-1,,,,1
5f04d52bebb486153390a90a,2dwtc6dm38,"Deep vs Shallow",1,98,2020-07-08T14:47:17-07:00,26.977088928223,1,versionA_stim.csv,RLVersionA.csv,"Relational Version A","Relational, read only version A",,,,,,0,FreeRecall,-,10,"What were you supposed to focus on while you studied each pair? (Hint: Think back to the instructions). Type your answer in the space below.",,CHECK3,26032,"How the words relate to each other. I.e. for two animals, the fact that they are both alive, both mammals, etc.",0,5221,24305,0,0,,1
5f04d52bebb486153390a90a,2dwtc6dm38,"Deep vs Shallow",1,99,2020-07-08T14:49:18-07:00,120.89729213715,1,versionA_stim.csv,RLVersionA.csv,"Relational Version A","Relational, read only version A",,,,,,0,FreeRecall,120,120,"Please list the 50 US states in alphabetical order. The task will automatically advance to the next screen after two minutes.",,Filler1,120002,"Alabama Alaska Arkansas California Colorado Delaware Hawaii Iowa Kansas Maine Nevada New Y Tennessee Texas Utah Virginia Washington Wisconsin Wyoming",0,10074,119861,0,0,,1
5f04d52bebb486153390a90a,2dwtc6dm38,"Deep vs Shallow",1,100,2020-07-08T14:52:06-07:00,167.90607786179,1,versionA_stim.csv,RLVersionA.csv,"Relational Version A","Relational, read only version A",,,,,,0,Instruct,-,10,"You will now be presented with the first word from each of the previously studied item pairs. Please type the missing word. If you do not know the word, you may guess or press Enter to skip forward to the next pair.",,Instruct3,166735,,,-1,-1,,,,1
5f04d52bebb486153390a90a,2dwtc6dm38,"Deep vs Shallow",1,101,2020-07-08T14:52:17-07:00,10.603896141052,1,versionA_stim.csv,RLVersionA.csv,"Relational Version A","Relational, read only version A",STRONG,ACCIDENT,Study1,U,80,31,Test,User,-,,Recall,Recall1,9722,Accident,100,6260,8119,1,1,,1
5f04d52bebb486153390a90a,2dwtc6dm38,"Deep vs Shallow",1,102,2020-07-08T14:53:21-07:00,64.393353939056,1,versionA_stim.csv,RLVersionA.csv,"Relational Version A","Relational, read only version A",WAGE,MONEY,Study1,F,8,29,Test,User,-,,Recall,Recall1,62207,Job,25,59990,60361,0,0,,1
5f04d52bebb486153390a90a,2dwtc6dm38,"Deep vs Shallow",1,103,2020-07-08T14:53:27-07:00,6.0232999324799,1,versionA_stim.csv,RLVersionA.csv,"Relational Version A","Relational, read only version A",SMELL,STENCH,Study1,B,42,18,Test,User,-,,Recall,Recall1,5289,Taste,54.545454545455,3621,4201,0,0,,1
5f04d52bebb486153390a90a,2dwtc6dm38,"Deep vs Shallow",1,104,2020-07-08T14:53:33-07:00,6.1011879444122,1,versionA_stim.csv,RLVersionA.csv,"Relational Version A","Relational, read only version A",GREAT,FANTASTIC,Study1,B,35,37,Test,User,-,,Recall,Recall1,4365,,0,-1,-1,0,0,,1
5f04d52bebb486153390a90a,2dwtc6dm38,"Deep vs Shallow",1,105,2020-07-08T14:53:41-07:00,7.9641129970551,1,versionA_stim.csv,RLVersionA.csv,"Relational Version A","Relational, read only version A",PLANE,PILOT,Study1,B,44,13,Test,User,-,,Recall,Recall1,7298,Fly,25,3644,4064,0,0,,1
5f04d52bebb486153390a90a,2dwtc6dm38,"Deep vs Shallow",1,106,2020-07-08T14:54:18-07:00,37.342267990112,1,versionA_stim.csv,RLVersionA.csv,"Relational Version A","Relational, read only version A",NUMBER,AMOUNT,Study1,S,47,54,Test,User,-,,Recall,Recall1,36060,Letter,16.666666666667,26277,27009,0,0,,1
5f04d52bebb486153390a90a,2dwtc6dm38,"Deep vs Shallow",1,107,2020-07-08T14:54:27-07:00,8.2781829833984,1,versionA_stim.csv,RLVersionA.csv,"Relational Version A","Relational, read only version A",DARK,CAVE,Study1,B,28,71,Test,User,-,,Recall,Recall1,7411,Night,0,4876,5419,0,0,,1
5f04d52bebb486153390a90a,2dwtc6dm38,"Deep vs Shallow",1,108,2020-07-08T14:54:40-07:00,13.807996034622,1,versionA_stim.csv,RLVersionA.csv,"Relational Version A","Relational, read only version A",WINE,CHEESE,Study1,S,57,83,Test,User,-,,Recall,Recall1,12912,Taste,36.363636363636,7025,11400,0,0,,1
5f04d52bebb486153390a90a,2dwtc6dm38,"Deep vs Shallow",1,109,2020-07-08T14:56:21-07:00,100.56973600388,1,versionA_stim.csv,RLVersionA.csv,"Relational Version A","Relational, read only version A",LIFT,WOMAN,Study1,U,69,50,Test,User,-,,Recall,Recall1,99362,Weight,18.181818181818,97742,98275,0,0,,1
5f04d52bebb486153390a90a,2dwtc6dm38,"Deep vs Shallow",1,110,2020-07-08T14:56:27-07:00,6.1322121620178,1,versionA_stim.csv,RLVersionA.csv,"Relational Version A","Relational, read only version A",TUNA,FISH,Study1,F,25,52,Test,User,-,,Recall,Recall1,5202,Ocean,0,1289,3742,0,0,,1
5f04d52bebb486153390a90a,2dwtc6dm38,"Deep vs Shallow",1,111,2020-07-08T14:57:23-07:00,55.643026828766,1,versionA_stim.csv,RLVersionA.csv,"Relational Version A","Relational, read only version A",DEBATE,SIGHT,Study1,U,73,35,Test,User,-,,Recall,Recall1,54733,,0,-1,-1,0,0,,1
5f04d52bebb486153390a90a,2dwtc6dm38,"Deep vs Shallow",1,112,2020-07-08T14:57:30-07:00,6.8954141139984,1,versionA_stim.csv,RLVersionA.csv,"Relational Version A","Relational, read only version A",DELINQUENT,BAD,Study1,F,6,84,Test,User,-,,Recall,Recall1,4973,Bad,100,2660,2969,1,1,,1
5f04d52bebb486153390a90a,2dwtc6dm38,"Deep vs Shallow",1,113,2020-07-08T14:57:34-07:00,4.7339060306549,1,versionA_stim.csv,RLVersionA.csv,"Relational Version A","Relational, read only version A",WAY,OUT,Study1,F,16,59,Test,User,-,,Recall,Recall1,3835,,0,-1,-1,0,0,,1
5f04d52bebb486153390a90a,2dwtc6dm38,"Deep vs Shallow",1,114,2020-07-08T14:57:41-07:00,7.0669429302216,1,versionA_stim.csv,RLVersionA.csv,"Relational Version A","Relational, read only version A",CREDIT,CARD,Study1,F,23,15,Test,User,-,,Recall,Recall1,5375,Debt,25,3141,3834,0,0,,1
5f04d52bebb486153390a90a,2dwtc6dm38,"Deep vs Shallow",1,115,2020-07-08T14:57:45-07:00,3.5598180294037,1,versionA_stim.csv,RLVersionA.csv,"Relational Version A","Relational, read only version A",PAW,DOG,Study1,F,15,10,Test,User,-,,Recall,Recall1,2672,,0,-1,-1,0,0,,1
5f04d52bebb486153390a90a,2dwtc6dm38,"Deep vs Shallow",1,116,2020-07-08T14:57:53-07:00,8.0693049430847,1,versionA_stim.csv,RLVersionA.csv,"Relational Version A","Relational, read only version A",DUE,ASSIGNMENT,Study1,S,46,86,Test,User,-,,Recall,Recall1,7297,Deadline,22.222222222222,4507,5706,0,0,,1
5f04d52bebb486153390a90a,2dwtc6dm38,"Deep vs Shallow",1,117,2020-07-08T14:58:02-07:00,8.4105699062347,1,versionA_stim.csv,RLVersionA.csv,"Relational Version A","Relational, read only version A",FIX,HAND,Study1,U,75,61,Test,User,-,,Recall,Recall1,7601,Repair,20,4474,6118,0,0,,1
5f04d52bebb486153390a90a,2dwtc6dm38,"Deep vs Shallow",1,118,2020-07-08T14:58:08-07:00,6.7955961227417,1,versionA_stim.csv,RLVersionA.csv,"Relational Version A","Relational, read only version A",KIDNEY,LIVER,Study1,S,53,32,Test,User,-,,Recall,Recall1,6134,Liver,100,3875,4354,1,1,,1
5f04d52bebb486153390a90a,2dwtc6dm38,"Deep vs Shallow",1,119,2020-07-08T14:58:16-07:00,7.9763240814209,1,versionA_stim.csv,RLVersionA.csv,"Relational Version A","Relational, read only version A",DISCOVER,FLOOR,Study1,U,71,41,Test,User,-,,Recall,Recall1,7196,Journey,33.333333333333,3256,5747,0,0,,1
5f04d52bebb486153390a90a,2dwtc6dm38,"Deep vs Shallow",1,120,2020-07-08T14:58:32-07:00,15.344467878342,1,versionA_stim.csv,RLVersionA.csv,"Relational Version A","Relational, read only version A",ARCHITECTURE,DESIGN,Study1,S,51,25,Test,User,-,,Recall,Recall1,14310,Design,100,2943,12887,1,1,,1
5f04d52bebb486153390a90a,2dwtc6dm38,"Deep vs Shallow",1,121,2020-07-08T14:58:37-07:00,5.2376351356506,1,versionA_stim.csv,RLVersionA.csv,"Relational Version A","Relational, read only version A",SLEEP,DROWSY,Study1,B,41,80,Test,User,-,,Recall,Recall1,4471,Night,0,2512,3013,0,0,,1
5f04d52bebb486153390a90a,2dwtc6dm38,"Deep vs Shallow",1,122,2020-07-08T14:59:31-07:00,53.841446876526,1,versionA_stim.csv,RLVersionA.csv,"Relational Version A","Relational, read only version A",POP,SODA,Study1,S,56,33,Test,User,-,,Recall,Recall1,53059,Drink,22.222222222222,50810,51561,0,0,,1
5f04d52bebb486153390a90a,2dwtc6dm38,"Deep vs Shallow",1,123,2020-07-08T14:59:36-07:00,4.8285429477692,1,versionA_stim.csv,RLVersionA.csv,"Relational Version A","Relational, read only version A",ORCHID,FLOWER,Study1,F,24,42,Test,User,-,,Recall,Recall1,3905,Flower,100,1768,2467,1,1,,1
5f04d52bebb486153390a90a,2dwtc6dm38,"Deep vs Shallow",1,124,2020-07-08T14:59:38-07:00,2.5486271381378,1,versionA_stim.csv,RLVersionA.csv,"Relational Version A","Relational, read only version A",CLOTHES,ATTIRE,Study1,B,43,55,Test,User,-,,Recall,Recall1,1391,,0,-1,-1,0,0,,1
5f04d52bebb486153390a90a,2dwtc6dm38,"Deep vs Shallow",1,125,2020-07-08T14:59:48-07:00,9.7666509151459,1,versionA_stim.csv,RLVersionA.csv,"Relational Version A","Relational, read only version A",CASH,WOULD,Study1,U,83,19,Test,User,-,,Recall,Recall1,8651,Spend,20,5418,7294,0,0,,1
5f04d52bebb486153390a90a,2dwtc6dm38,"Deep vs Shallow",1,126,2020-07-08T14:59:54-07:00,6.496367931366,1,versionA_stim.csv,RLVersionA.csv,"Relational Version A","Relational, read only version A",BITTER,COLD,Study1,F,12,47,Test,User,-,,Recall,Recall1,5565,Sweet,0,1439,2052,0,0,,1
5f04d52bebb486153390a90a,2dwtc6dm38,"Deep vs Shallow",1,127,2020-07-08T15:00:01-07:00,6.8699331283569,1,versionA_stim.csv,RLVersionA.csv,"Relational Version A","Relational, read only version A",ROOT,PLANT,Study1,F,13,76,Test,User,-,,Recall,Recall1,6017,Beer,0,3552,4020,0,0,,1
5f04d52bebb486153390a90a,2dwtc6dm38,"Deep vs Shallow",1,128,2020-07-08T15:00:06-07:00,4.4262709617615,1,versionA_stim.csv,RLVersionA.csv,"Relational Version A","Relational, read only version A",FULL,ENOUGH,Study1,B,26,21,Test,User,-,,Recall,Recall1,3533,,0,-1,-1,0,0,,1
5f04d52bebb486153390a90a,2dwtc6dm38,"Deep vs Shallow",1,129,2020-07-08T15:02:02-07:00,116.14372801781,1,versionA_stim.csv,RLVersionA.csv,"Relational Version A","Relational, read only version A",DIGESTION,STOMACH,Study1,F,7,40,Test,User,-,,Recall,Recall1,115192,Full,0,113484,113913,0,0,,1
5f04d52bebb486153390a90a,2dwtc6dm38,"Deep vs Shallow",1,130,2020-07-08T15:02:07-07:00,4.7900640964508,1,versionA_stim.csv,RLVersionA.csv,"Relational Version A","Relational, read only version A",KEY,LATCH,Study1,B,36,72,Test,User,-,,Recall,Recall1,3773,Lock,44.444444444444,1783,2353,0,0,,1
5f04d52bebb486153390a90a,2dwtc6dm38,"Deep vs Shallow",1,131,2020-07-08T15:02:14-07:00,7.8963189125061,1,versionA_stim.csv,RLVersionA.csv,"Relational Version A","Relational, read only version A",SUGAR,RIDDLE,Study1,U,81,66,Test,User,-,,Recall,Recall1,7155,Sweet,18.181818181818,2255,2894,0,0,,1
5f04d52bebb486153390a90a,2dwtc6dm38,"Deep vs Shallow",1,132,2020-07-08T15:02:17-07:00,2.3980059623718,1,versionA_stim.csv,RLVersionA.csv,"Relational Version A","Relational, read only version A",PUSHER,CLUTTER,Study1,U,66,38,Test,User,-,,Recall,Recall1,1627,,0,-1,-1,0,0,,1
5f04d52bebb486153390a90a,2dwtc6dm38,"Deep vs Shallow",1,133,2020-07-08T15:02:19-07:00,1.9853639602661,1,versionA_stim.csv,RLVersionA.csv,"Relational Version A","Relational, read only version A",CIRCLE,ROUND,Study1,S,65,45,Test,User,-,,Recall,Recall1,1428,,0,-1,-1,0,0,,1
5f04d52bebb486153390a90a,2dwtc6dm38,"Deep vs Shallow",1,134,2020-07-08T15:02:29-07:00,9.9395761489868,1,versionA_stim.csv,RLVersionA.csv,"Relational Version A","Relational, read only version A",HUNGER,FAMINE,Study1,B,40,30,Test,User,-,,Recall,Recall1,9236,Digestion,26.666666666667,3716,7895,0,0,,1
5f04d52bebb486153390a90a,2dwtc6dm38,"Deep vs Shallow",1,135,2020-07-08T15:02:34-07:00,5.2305099964142,1,versionA_stim.csv,RLVersionA.csv,"Relational Version A","Relational, read only version A",MACHINE,POSITION,Study1,U,76,7,Test,User,-,,Recall,Recall1,4309,,0,-1,-1,0,0,,1
5f04d52bebb486153390a90a,2dwtc6dm38,"Deep vs Shallow",1,136,2020-07-08T15:02:40-07:00,5.9112470149994,1,versionA_stim.csv,RLVersionA.csv,"Relational Version A","Relational, read only version A",DIETARY,SACKING,Study1,U,67,27,Test,User,-,,Recall,Recall1,4932,,0,-1,-1,0,0,,1
5f04d52bebb486153390a90a,2dwtc6dm38,"Deep vs Shallow",1,137,2020-07-08T15:02:42-07:00,2.3755478858948,1,versionA_stim.csv,RLVersionA.csv,"Relational Version A","Relational, read only version A",BUG,WASP,Study1,B,32,17,Test,User,-,,Recall,Recall1,1674,,0,-1,-1,0,0,,1
5f04d52bebb486153390a90a,2dwtc6dm38,"Deep vs Shallow",1,138,2020-07-08T15:03:36-07:00,53.491122961044,1,versionA_stim.csv,RLVersionA.csv,"Relational Version A","Relational, read only version A",DRINK,SIP,Study1,B,27,67,Test,User,-,,Recall,Recall1,52479,,0,-1,-1,0,0,,1
5f04d52bebb486153390a90a,2dwtc6dm38,"Deep vs Shallow",1,139,2020-07-08T15:03:41-07:00,5.4315891265869,1,versionA_stim.csv,RLVersionA.csv,"Relational Version A","Relational, read only version A",TRIAL,JURY,Study1,S,50,60,Test,User,-,,Recall,Recall1,4652,Jury,100,2828,3329,1,1,,1
5f04d52bebb486153390a90a,2dwtc6dm38,"Deep vs Shallow",1,140,2020-07-08T15:03:49-07:00,8.1107859611511,1,versionA_stim.csv,RLVersionA.csv,"Relational Version A","Relational, read only version A",HERD,COW,Study1,F,22,75,Test,User,-,,Recall,Recall1,7236,Shephard,0,3010,5806,0,0,,1
5f04d52bebb486153390a90a,2dwtc6dm38,"Deep vs Shallow",1,141,2020-07-08T15:03:56-07:00,6.8270280361176,1,versionA_stim.csv,RLVersionA.csv,"Relational Version A","Relational, read only version A",KING,VASE,Study1,U,85,53,Test,User,-,,Recall,Recall1,6070,,0,-1,-1,0,0,,1
5f04d52bebb486153390a90a,2dwtc6dm38,"Deep vs Shallow",1,142,2020-07-08T15:04:02-07:00,5.3748350143433,1,versionA_stim.csv,RLVersionA.csv,"Relational Version A","Relational, read only version A",BATHROOM,TOILET,Study1,S,58,64,Test,User,-,,Recall,Recall1,4492,Toilet,100,2394,3040,1,1,,1
5f04d52bebb486153390a90a,2dwtc6dm38,"Deep vs Shallow",1,143,2020-07-08T15:04:11-07:00,9.3975899219513,1,versionA_stim.csv,RLVersionA.csv,"Relational Version A","Relational, read only version A",HEIGHT,GROWTH,Study1,B,30,14,Test,User,-,,Recall,Recall1,8820,Weight,33.333333333333,6481,7350,0,0,,1
5f04d52bebb486153390a90a,2dwtc6dm38,"Deep vs Shallow",1,144,2020-07-08T15:05:05-07:00,54.184190034866,1,versionA_stim.csv,RLVersionA.csv,"Relational Version A","Relational, read only version A",HYGIENE,CLEAN,Study1,F,17,65,Test,User,-,,Recall,Recall1,53217,,0,-1,-1,0,0,,1
5f04d52bebb486153390a90a,2dwtc6dm38,"Deep vs Shallow",1,145,2020-07-08T15:05:10-07:00,4.8318228721619,1,versionA_stim.csv,RLVersionA.csv,"Relational Version A","Relational, read only version A",BLOW,WIND,Study1,S,55,20,Test,User,-,,Recall,Recall1,4071,,0,-1,-1,0,0,,1
5f04d52bebb486153390a90a,2dwtc6dm38,"Deep vs Shallow",1,146,2020-07-08T15:05:23-07:00,13.329461097717,1,versionA_stim.csv,RLVersionA.csv,"Relational Version A","Relational, read only version A",BALL,RACKET,Study1,B,38,28,Test,User,-,,Recall,Recall1,12571,Roll,20,10552,11020,0,0,,1
5f04d52bebb486153390a90a,2dwtc6dm38,"Deep vs Shallow",1,147,2020-07-08T15:05:30-07:00,6.7423009872437,1,versionA_stim.csv,RLVersionA.csv,"Relational Version A","Relational, read only version A",LAW,ATTORNEY,Study1,B,34,51,Test,User,-,,Recall,Recall1,5899,Judge,15.384615384615,2882,4448,0,0,,1
5f04d52bebb486153390a90a,2dwtc6dm38,"Deep vs Shallow",1,148,2020-07-08T15:05:33-07:00,2.8291280269623,1,versionA_stim.csv,RLVersionA.csv,"Relational Version A","Relational, read only version A",EDITOR,NEWS,Study1,F,10,24,Test,User,-,,Recall,Recall1,2073,,0,-1,-1,0,0,,1
5f04d52bebb486153390a90a,2dwtc6dm38,"Deep vs Shallow",1,149,2020-07-08T15:05:41-07:00,8.2496008872986,1,versionA_stim.csv,RLVersionA.csv,"Relational Version A","Relational, read only version A",FIRE,BLAZE,Study1,B,45,79,Test,User,-,,Recall,Recall1,7684,Fall,22.222222222222,5734,6170,0,0,,1
5f04d52bebb486153390a90a,2dwtc6dm38,"Deep vs Shallow",1,150,2020-07-08T15:05:43-07:00,2.0660610198975,1,versionA_stim.csv,RLVersionA.csv,"Relational Version A","Relational, read only version A",DISCUSSION,TALK,Study1,F,21,44,Test,User,-,,Recall,Recall1,1319,,0,-1,-1,0,0,,1
5f04d52bebb486153390a90a,2dwtc6dm38,"Deep vs Shallow",1,151,2020-07-08T15:05:52-07:00,9.2854170799255,1,versionA_stim.csv,RLVersionA.csv,"Relational Version A","Relational, read only version A",SOON,BELT,Study1,U,70,70,Test,User,-,,Recall,Recall1,8202,Calendar,16.666666666667,2809,3838,0,0,,1
5f04d52bebb486153390a90a,2dwtc6dm38,"Deep vs Shallow",1,152,2020-07-08T15:05:56-07:00,3.2090830802917,1,versionA_stim.csv,RLVersionA.csv,"Relational Version A","Relational, read only version A",LETTUCE,SALAD,Study1,S,59,39,Test,User,-,,Recall,Recall1,2524,,0,-1,-1,0,0,,1
5f04d52bebb486153390a90a,2dwtc6dm38,"Deep vs Shallow",1,153,2020-07-08T15:06:02-07:00,6.7387290000916,1,versionA_stim.csv,RLVersionA.csv,"Relational Version A","Relational, read only version A",SHOE,FOOT,Study1,S,60,48,Test,User,-,,Recall,Recall1,6004,Walk,0,3498,3908,0,0,,1
5f04d52bebb486153390a90a,2dwtc6dm38,"Deep vs Shallow",1,154,2020-07-08T15:06:07-07:00,4.6513028144836,1,versionA_stim.csv,RLVersionA.csv,"Relational Version A","Relational, read only version A",BEGIN,END,Study1,S,54,81,Test,User,-,,Recall,Recall1,3772,End,100,2080,2355,1,1,,1
5f04d52bebb486153390a90a,2dwtc6dm38,"Deep vs Shallow",1,155,2020-07-08T15:06:24-07:00,16.913872003555,1,versionA_stim.csv,RLVersionA.csv,"Relational Version A","Relational, read only version A",REVOLUTION,WAR,Study1,F,20,73,Test,User,-,,Recall,Recall1,16123,Judgment,0,13696,14603,0,0,,1
5f04d52bebb486153390a90a,2dwtc6dm38,"Deep vs Shallow",1,156,2020-07-08T15:06:32-07:00,7.8673319816589,1,versionA_stim.csv,RLVersionA.csv,"Relational Version A","Relational, read only version A",MATH,DIVISION,Study1,B,33,62,Test,User,-,,Recall,Recall1,7016,Numbers,13.333333333333,4514,5355,0,0,,1
5f04d52bebb486153390a90a,2dwtc6dm38,"Deep vs Shallow",1,157,2020-07-08T15:06:39-07:00,7.0860340595245,1,versionA_stim.csv,RLVersionA.csv,"Relational Version A","Relational, read only version A",VALLEY,ADD,Study1,U,82,69,Test,User,-,,Recall,Recall1,6181,,0,-1,-1,0,0,,1
5f04d52bebb486153390a90a,2dwtc6dm38,"Deep vs Shallow",1,158,2020-07-08T15:06:44-07:00,4.7144711017609,1,versionA_stim.csv,RLVersionA.csv,"Relational Version A","Relational, read only version A",BABY,CHILD,Study1,S,64,82,Test,User,-,,Recall,Recall1,3812,,0,-1,-1,0,0,,1
5f04d52bebb486153390a90a,2dwtc6dm38,"Deep vs Shallow",1,159,2020-07-08T15:06:45-07:00,1.7623009681702,1,versionA_stim.csv,RLVersionA.csv,"Relational Version A","Relational, read only version A",GRILL,BAR,Study1,S,52,78,Test,User,-,,Recall,Recall1,1098,,0,-1,-1,0,0,,1
5f04d52bebb486153390a90a,2dwtc6dm38,"Deep vs Shallow",1,160,2020-07-08T15:08:10-07:00,85.037385940552,1,versionA_stim.csv,RLVersionA.csv,"Relational Version A","Relational, read only version A",LOCATION,SITE,Study1,S,48,56,Test,User,-,,Recall,Recall1,84247,,0,-1,-1,0,0,,1
5f04d52bebb486153390a90a,2dwtc6dm38,"Deep vs Shallow",1,161,2020-07-08T15:08:22-07:00,11.374023914337,1,versionA_stim.csv,RLVersionA.csv,"Relational Version A","Relational, read only version A",HIDE,SICK,Study1,U,84,43,Test,User,-,,Recall,Recall1,10294,Seek,50,2279,3479,0,0,,1
5f04d52bebb486153390a90a,2dwtc6dm38,"Deep vs Shallow",1,162,2020-07-08T15:08:29-07:00,7.0794951915741,1,versionA_stim.csv,RLVersionA.csv,"Relational Version A","Relational, read only version A",WORK,CHORE,Study1,B,39,46,Test,User,-,,Recall,Recall1,6337,,0,-1,-1,0,0,,1
5f04d52bebb486153390a90a,2dwtc6dm38,"Deep vs Shallow",1,163,2020-07-08T15:08:31-07:00,2.3982808589935,1,versionA_stim.csv,RLVersionA.csv,"Relational Version A","Relational, read only version A",HONEY,BEE,Study1,S,63,68,Test,User,-,,Recall,Recall1,1528,,0,-1,-1,0,0,,1
5f04d52bebb486153390a90a,2dwtc6dm38,"Deep vs Shallow",1,164,2020-07-08T15:09:02-07:00,31.131800174713,1,versionA_stim.csv,RLVersionA.csv,"Relational Version A","Relational, read only version A",PARK,HUNGRY,Study1,U,68,8,Test,User,-,,Recall,Recall1,30091,,0,-1,-1,0,0,,1
5f04d52bebb486153390a90a,2dwtc6dm38,"Deep vs Shallow",1,165,2020-07-08T15:09:12-07:00,9.4337458610535,1,versionA_stim.csv,RLVersionA.csv,"Relational Version A","Relational, read only version A",SENTENCE,WORD,Study1,B,31,85,Test,User,-,,Recall,Recall1,8588,Book,25,6198,6769,0,0,,1
5f04d52bebb486153390a90a,2dwtc6dm38,"Deep vs Shallow",1,166,2020-07-08T15:09:15-07:00,2.9503889083862,1,versionA_stim.csv,RLVersionA.csv,"Relational Version A","Relational, read only version A",MEANING,DEFINITION,Study1,S,62,74,Test,User,-,,Recall,Recall1,2232,,0,-1,-1,0,0,,1
5f04d52bebb486153390a90a,2dwtc6dm38,"Deep vs Shallow",1,167,2020-07-08T15:09:21-07:00,6.0517730712891,1,versionA_stim.csv,RLVersionA.csv,"Relational Version A","Relational, read only version A",HORNET,STING,Study1,F,11,11,Test,User,-,,Recall,Recall1,4466,Sting,100,2627,3095,1,1,,1
5f04d52bebb486153390a90a,2dwtc6dm38,"Deep vs Shallow",1,168,2020-07-08T15:09:30-07:00,9.2226250171661,1,versionA_stim.csv,RLVersionA.csv,"Relational Version A","Relational, read only version A",HOT,CHILI,Study1,B,37,12,Test,User,-,,Recall,Recall1,8271,Chill,80,5556,6371,0,1,,1
5f04d52bebb486153390a90a,2dwtc6dm38,"Deep vs Shallow",1,169,2020-07-08T15:09:35-07:00,4.8330600261688,1,versionA_stim.csv,RLVersionA.csv,"Relational Version A","Relational, read only version A",ALLOW,TUCK,Study1,U,78,49,Test,User,-,,Recall,Recall1,3964,,0,-1,-1,0,0,,1
5f04d52bebb486153390a90a,2dwtc6dm38,"Deep vs Shallow",1,170,2020-07-08T15:09:47-07:00,12.141575098038,1,versionA_stim.csv,RLVersionA.csv,"Relational Version A","Relational, read only version A",HAPPY,CAR,Study1,U,77,36,Test,User,-,,Recall,Recall1,11062,Ending,0,5070,6905,0,0,,1
5f04d52bebb486153390a90a,2dwtc6dm38,"Deep vs Shallow",1,171,2020-07-08T15:09:57-07:00,10.107527971268,1,versionA_stim.csv,RLVersionA.csv,"Relational Version A","Relational, read only version A",TAKE,SEIZE,Study1,B,29,9,Test,User,-,,Recall,Recall1,9200,,0,-1,-1,0,0,,1
5f04d52bebb486153390a90a,2dwtc6dm38,"Deep vs Shallow",1,172,2020-07-08T15:10:01-07:00,3.8182368278503,1,versionA_stim.csv,RLVersionA.csv,"Relational Version A","Relational, read only version A",DUMP,WASTE,Study1,S,49,16,Test,User,-,,Recall,Recall1,2997,,0,-1,-1,0,0,,1
5f04d52bebb486153390a90a,2dwtc6dm38,"Deep vs Shallow",1,173,2020-07-08T15:10:09-07:00,8.4335441589355,1,versionA_stim.csv,RLVersionA.csv,"Relational Version A","Relational, read only version A",ART,LION,Study1,U,79,63,Test,User,-,,Recall,Recall1,7487,Lion,100,3604,5879,1,1,,1
5f04d52bebb486153390a90a,2dwtc6dm38,"Deep vs Shallow",1,174,2020-07-08T15:10:19-07:00,9.8954410552979,1,versionA_stim.csv,RLVersionA.csv,"Relational Version A","Relational, read only version A",GEOLOGY,ROCK,Study1,F,19,58,Test,User,-,,Recall,Recall1,9086,Earth,22.222222222222,4259,7170,0,0,,1
5f04d52bebb486153390a90a,2dwtc6dm38,"Deep vs Shallow",1,175,2020-07-08T15:10:27-07:00,7.7388048171997,1,versionA_stim.csv,RLVersionA.csv,"Relational Version A","Relational, read only version A",BRIDGE,WATER,Study1,F,18,26,Test,User,-,,Recall,Recall1,6845,road,22.222222222222,4368,5522,0,0,,1
5f04d52bebb486153390a90a,2dwtc6dm38,"Deep vs Shallow",1,176,2020-07-08T15:10:30-07:00,3.3127839565277,1,versionA_stim.csv,RLVersionA.csv,"Relational Version A","Relational, read only version A",DEATH,BUSINESS,Study1,U,72,77,Test,User,-,,Recall,Recall1,2685,,0,-1,-1,0,0,,1
5f04d52bebb486153390a90a,2dwtc6dm38,"Deep vs Shallow",1,177,2020-07-08T15:10:39-07:00,8.796108007431,1,versionA_stim.csv,RLVersionA.csv,"Relational Version A","Relational, read only version A",PAST,FUTURE,Study1,S,61,57,Test,User,-,,Recall,Recall1,7897,,0,-1,-1,0,0,,1
5f04d52bebb486153390a90a,2dwtc6dm38,"Deep vs Shallow",1,178,2020-07-08T15:10:55-07:00,15.827498197556,1,versionA_stim.csv,RLVersionA.csv,"Relational Version A","Relational, read only version A",SWAN,BIRD,Study1,F,14,23,Test,User,-,,Recall,Recall1,14970,Feather,18.181818181818,10694,13226,0,0,,1
5f04d52bebb486153390a90a,2dwtc6dm38,"Deep vs Shallow",1,179,2020-07-08T15:11:02-07:00,7.0906999111176,1,versionA_stim.csv,RLVersionA.csv,"Relational Version A","Relational, read only version A",CHISEL,HAMMER,Study1,F,9,34,Test,User,-,,Recall,Recall1,6158,Rock,20,3192,4818,0,0,,1
5f04d52bebb486153390a90a,2dwtc6dm38,"Deep vs Shallow",1,180,2020-07-08T15:11:11-07:00,9.150032043457,1,versionA_stim.csv,RLVersionA.csv,"Relational Version A","Relational, read only version A",ARTERY,BRONZE,Study1,U,74,22,Test,User,-,,Recall,Recall1,8278,Heart,18.181818181818,5383,6993,0,0,,1
5f04d52bebb486153390a90a,2dwtc6dm38,"Deep vs Shallow",1,181,2020-07-08T15:11:25-07:00,13.478651046753,1,versionA_stim.csv,RLVersionA.csv,"Relational Version A","Relational, read only version A",,,,,,0,Instruct,-,10,"You will now be presented with a new set of word pairs. Please study each pair. Remember that your memory will be tested! When finished, press Enter to move to the next pair.",Initial_Instruct,Instruct4,12703,,,-1,-1,,,,1
5f04d52bebb486153390a90a,2dwtc6dm38,"Deep vs Shallow",1,182,2020-07-08T15:11:42-07:00,17.712137937546,1,versionA_stim.csv,RLVersionA.csv,"Relational Version A","Relational, read only version A",,,,,,0,Instruct,-,15,"As you study, please think about how the two concepts are RELATED to each other. For example, if you see the pair TURTLE-CAT, think about how both are alive, they are both animals, and both can be kept as pets.",,Instruct20,16772,,,-1,-1,,,,1
5f04d52bebb486153390a90a,2dwtc6dm38,"Deep vs Shallow",1,183,2020-07-08T15:11:56-07:00,13.89407992363,1,versionA_stim.csv,RLVersionA.csv,"Relational Version A","Relational, read only version A",,,,,,0,FreeRecall,-,10,"What you should think about as you study each item pair? Type your response in the box below.",,CHECK4,12950,"how they are related",0,4492,10681,0,0,,1
5f04d52bebb486153390a90a,2dwtc6dm38,"Deep vs Shallow",1,184,2020-07-08T15:11:59-07:00,2.8499500751495,1,versionA_stim.csv,RLVersionA.csv,"Relational Version A","Relational, read only version A",,,,,,0,Instruct,User,-,"Press Enter when you are readty to begin",,Instruct11,2102,,,-1,-1,,,,1
5f04d52bebb486153390a90a,2dwtc6dm38,"Deep vs Shallow",1,185,2020-07-08T15:12:35-07:00,35.490412950516,1,versionA_stim.csv,RLVersionA.csv,"Relational Version A","Relational, read only version A",NOODLE,STRING,BUFFER3,Buffer,92,96,Study,User,-,,Study/JOL,BUFFER3,34740,,,-1,-1,,,,1
5f04d52bebb486153390a90a,2dwtc6dm38,"Deep vs Shallow",1,186,2020-07-08T15:12:37-07:00,2.6925659179688,1,versionA_stim.csv,RLVersionA.csv,"Relational Version A","Relational, read only version A",SHRIMP,FISH,BUFFER3,Buffer,93,92,Study,User,-,,Study/JOL,BUFFER3,1891,,,-1,-1,,,,1
5f04d52bebb486153390a90a,2dwtc6dm38,"Deep vs Shallow",1,187,2020-07-08T15:12:40-07:00,2.8347370624542,1,versionA_stim.csv,RLVersionA.csv,"Relational Version A","Relational, read only version A",ICE,FROZEN,BUFFER3,Buffer,94,93,Study,User,-,,Study/JOL,BUFFER3,1685,,,-1,-1,,,,1
5f04d52bebb486153390a90a,2dwtc6dm38,"Deep vs Shallow",1,188,2020-07-08T15:12:42-07:00,2.1335890293121,1,versionA_stim.csv,RLVersionA.csv,"Relational Version A","Relational, read only version A",CAMP,ADVENTURE,BUFFER3,Buffer,95,95,Study,User,-,,Study/JOL,BUFFER3,1296,,,-1,-1,,,,1
5f04d52bebb486153390a90a,2dwtc6dm38,"Deep vs Shallow",1,189,2020-07-08T15:12:44-07:00,1.7244279384613,1,versionA_stim.csv,RLVersionA.csv,"Relational Version A","Relational, read only version A",CARROT,POTATO,BUFFER3,Buffer,91,94,Study,User,-,,Study/JOL,BUFFER3,853,,,-1,-1,,,,1
5f04d52bebb486153390a90a,2dwtc6dm38,"Deep vs Shallow",1,190,2020-07-08T15:12:47-07:00,2.4785859584808,1,versionA_stim.csv,RLVersionA.csv,"Relational Version A","Relational, read only version A",FISH,SARDINE,Study2,B,130,166,Study,User,-,,Study/JOL,"Study Phase2",1642,,,-1,-1,,,,1
5f04d52bebb486153390a90a,2dwtc6dm38,"Deep vs Shallow",1,191,2020-07-08T15:12:49-07:00,2.7187402248383,1,versionA_stim.csv,RLVersionA.csv,"Relational Version A","Relational, read only version A",BASEBALL,LEAGUE,Study2,B,131,144,Study,User,-,,Study/JOL,"Study Phase2",2098,,,-1,-1,,,,1
5f04d52bebb486153390a90a,2dwtc6dm38,"Deep vs Shallow",1,192,2020-07-08T15:12:51-07:00,2.0976519584656,1,versionA_stim.csv,RLVersionA.csv,"Relational Version A","Relational, read only version A",WATER,DRINK,Study2,S,143,148,Study,User,-,,Study/JOL,"Study Phase2",1362,,,-1,-1,,,,1
5f04d52bebb486153390a90a,2dwtc6dm38,"Deep vs Shallow",1,193,2020-07-08T15:12:53-07:00,1.7657618522644,1,versionA_stim.csv,RLVersionA.csv,"Relational Version A","Relational, read only version A",Shell,SHAKE,Study2,U,163,168,Study,User,-,,Study/JOL,"Study Phase2",752,,,-1,-1,,,,1
5f04d52bebb486153390a90a,2dwtc6dm38,"Deep vs Shallow",1,194,2020-07-08T15:12:56-07:00,2.4194340705872,1,versionA_stim.csv,RLVersionA.csv,"Relational Version A","Relational, read only version A",FURRY,DOG,Study2,F,102,119,Study,User,-,,Study/JOL,"Study Phase2",1671,,,-1,-1,,,,1
5f04d52bebb486153390a90a,2dwtc6dm38,"Deep vs Shallow",1,195,2020-07-08T15:12:59-07:00,3.7503108978271,1,versionA_stim.csv,RLVersionA.csv,"Relational Version A","Relational, read only version A",GIVE,STEAK,Study2,U,158,110,Study,User,-,,Study/JOL,"Study Phase2",2959,,,-1,-1,,,,1
5f04d52bebb486153390a90a,2dwtc6dm38,"Deep vs Shallow",1,196,2020-07-08T15:13:01-07:00,2.1123201847076,1,versionA_stim.csv,RLVersionA.csv,"Relational Version A","Relational, read only version A",MULE,DONKEY,Study2,F,108,108,Study,User,-,,Study/JOL,"Study Phase2",1448,,,-1,-1,,,,1
5f04d52bebb486153390a90a,2dwtc6dm38,"Deep vs Shallow",1,197,2020-07-08T15:13:04-07:00,2.4995489120483,1,versionA_stim.csv,RLVersionA.csv,"Relational Version A","Relational, read only version A",CANDLE,WAX,Study2,S,139,176,Study,User,-,,Study/JOL,"Study Phase2",1878,,,-1,-1,,,,1
5f04d52bebb486153390a90a,2dwtc6dm38,"Deep vs Shallow",1,198,2020-07-08T15:13:06-07:00,1.7205820083618,1,versionA_stim.csv,RLVersionA.csv,"Relational Version A","Relational, read only version A",CHOP,CUT,Study2,F,107,114,Study,User,-,,Study/JOL,"Study Phase2",861,,,-1,-1,,,,1
5f04d52bebb486153390a90a,2dwtc6dm38,"Deep vs Shallow",1,199,2020-07-08T15:13:07-07:00,1.3307180404663,1,versionA_stim.csv,RLVersionA.csv,"Relational Version A","Relational, read only version A",FEUD,FIGHT,Study2,F,113,135,Study,User,-,,Study/JOL,"Study Phase2",613,,,-1,-1,,,,1
5f04d52bebb486153390a90a,2dwtc6dm38,"Deep vs Shallow",1,200,2020-07-08T15:13:09-07:00,1.8545689582825,1,versionA_stim.csv,RLVersionA.csv,"Relational Version A","Relational, read only version A",RIGHTS,EQUAL,Study2,S,137,129,Study,User,-,,Study/JOL,"Study Phase2",1094,,,-1,-1,,,,1
5f04d52bebb486153390a90a,2dwtc6dm38,"Deep vs Shallow",1,201,2020-07-08T15:13:10-07:00,1.2921750545502,1,versionA_stim.csv,RLVersionA.csv,"Relational Version A","Relational, read only version A",DETECTIVE,MYSTERY,Study2,F,100,173,Study,User,-,,Study/JOL,"Study Phase2",755,,,-1,-1,,,,1
5f04d52bebb486153390a90a,2dwtc6dm38,"Deep vs Shallow",1,202,2020-07-08T15:13:11-07:00,1.2991628646851,1,versionA_stim.csv,RLVersionA.csv,"Relational Version A","Relational, read only version A",LOAN,SIGN,Study2,U,171,113,Study,User,-,,Study/JOL,"Study Phase2",559,,,-1,-1,,,,1
5f04d52bebb486153390a90a,2dwtc6dm38,"Deep vs Shallow",1,203,2020-07-08T15:13:13-07:00,1.8303790092468,1,versionA_stim.csv,RLVersionA.csv,"Relational Version A","Relational, read only version A",ALONE,LONELY,Study2,S,145,140,Study,User,-,,Study/JOL,"Study Phase2",1067,,,-1,-1,,,,1
5f04d52bebb486153390a90a,2dwtc6dm38,"Deep vs Shallow",1,204,2020-07-08T15:13:15-07:00,1.5614831447601,1,versionA_stim.csv,RLVersionA.csv,"Relational Version A","Relational, read only version A",FRUIT,STRAWBERRY,Study2,B,124,106,Study,User,-,,Study/JOL,"Study Phase2",689,,,-1,-1,,,,1
5f04d52bebb486153390a90a,2dwtc6dm38,"Deep vs Shallow",1,205,2020-07-08T15:13:16-07:00,1.2357239723206,1,versionA_stim.csv,RLVersionA.csv,"Relational Version A","Relational, read only version A",LEASE,TOIL,Study2,U,170,128,Study,User,-,,Study/JOL,"Study Phase2",588,,,-1,-1,,,,1
5f04d52bebb486153390a90a,2dwtc6dm38,"Deep vs Shallow",1,206,2020-07-08T15:13:19-07:00,2.5586669445038,1,versionA_stim.csv,RLVersionA.csv,"Relational Version A","Relational, read only version A",GONE,AWAY,Study2,S,142,149,Study,User,-,,Study/JOL,"Study Phase2",1757,,,-1,-1,,,,1
5f04d52bebb486153390a90a,2dwtc6dm38,"Deep vs Shallow",1,207,2020-07-08T15:13:21-07:00,2.1441330909729,1,versionA_stim.csv,RLVersionA.csv,"Relational Version A","Relational, read only version A",CLUE,GAME,Study2,F,97,131,Study,User,-,,Study/JOL,"Study Phase2",1317,,,-1,-1,,,,1
5f04d52bebb486153390a90a,2dwtc6dm38,"Deep vs Shallow",1,208,2020-07-08T15:13:22-07:00,1.7310199737549,1,versionA_stim.csv,RLVersionA.csv,"Relational Version A","Relational, read only version A",WRIST,BRACELET,Study2,S,140,105,Study,User,-,,Study/JOL,"Study Phase2",1073,,,-1,-1,,,,1
5f04d52bebb486153390a90a,2dwtc6dm38,"Deep vs Shallow",1,209,2020-07-08T15:13:24-07:00,1.7835810184479,1,versionA_stim.csv,RLVersionA.csv,"Relational Version A","Relational, read only version A",MAZE,ELECTION,Study2,U,159,98,Study,User,-,,Study/JOL,"Study Phase2",802,,,-1,-1,,,,1
5f04d52bebb486153390a90a,2dwtc6dm38,"Deep vs Shallow",1,210,2020-07-08T15:13:26-07:00,1.6169228553772,1,versionA_stim.csv,RLVersionA.csv,"Relational Version A","Relational, read only version A",MAIN,SCAR,Study2,U,175,139,Study,User,-,,Study/JOL,"Study Phase2",912,,,-1,-1,,,,1
5f04d52bebb486153390a90a,2dwtc6dm38,"Deep vs Shallow",1,211,2020-07-08T15:13:28-07:00,2.1473941802979,1,versionA_stim.csv,RLVersionA.csv,"Relational Version A","Relational, read only version A",ADJOURN,END,Study2,F,101,120,Study,User,-,,Study/JOL,"Study Phase2",1227,,,-1,-1,,,,1
5f04d52bebb486153390a90a,2dwtc6dm38,"Deep vs Shallow",1,212,2020-07-08T15:13:30-07:00,1.8917388916016,1,versionA_stim.csv,RLVersionA.csv,"Relational Version A","Relational, read only version A",DEAD,COFFIN,Study2,B,128,153,Study,User,-,,Study/JOL,"Study Phase2",987,,,-1,-1,,,,1
5f04d52bebb486153390a90a,2dwtc6dm38,"Deep vs Shallow",1,213,2020-07-08T15:13:32-07:00,2.2768130302429,1,versionA_stim.csv,RLVersionA.csv,"Relational Version A","Relational, read only version A",FIGHT,BRAWL,Study2,B,135,138,Study,User,-,,Study/JOL,"Study Phase2",1477,,,-1,-1,,,,1
5f04d52bebb486153390a90a,2dwtc6dm38,"Deep vs Shallow",1,214,2020-07-08T15:13:34-07:00,1.3856589794159,1,versionA_stim.csv,RLVersionA.csv,"Relational Version A","Relational, read only version A",TRUTH,LIE,Study2,S,148,133,Study,User,-,,Study/JOL,"Study Phase2",658,,,-1,-1,,,,1
5f04d52bebb486153390a90a,2dwtc6dm38,"Deep vs Shallow",1,215,2020-07-08T15:13:36-07:00,2.580668926239,1,versionA_stim.csv,RLVersionA.csv,"Relational Version A","Relational, read only version A",SAFETY,SEATBELT,Study2,S,147,125,Study,User,-,,Study/JOL,"Study Phase2",1755,,,-1,-1,,,,1
5f04d52bebb486153390a90a,2dwtc6dm38,"Deep vs Shallow",1,216,2020-07-08T15:13:38-07:00,1.4661061763763,1,versionA_stim.csv,RLVersionA.csv,"Relational Version A","Relational, read only version A",FLEA,TICK,Study2,S,151,174,Study,User,-,,Study/JOL,"Study Phase2",735,,,-1,-1,,,,1
5f04d52bebb486153390a90a,2dwtc6dm38,"Deep vs Shallow",1,217,2020-07-08T15:13:41-07:00,3.2831938266754,1,versionA_stim.csv,RLVersionA.csv,"Relational Version A","Relational, read only version A",SHEARS,SCISSORS,Study2,F,112,175,Study,User,-,,Study/JOL,"Study Phase2",2327,,,-1,-1,,,,1
5f04d52bebb486153390a90a,2dwtc6dm38,"Deep vs Shallow",1,218,2020-07-08T15:13:44-07:00,3.1077749729156,1,versionA_stim.csv,RLVersionA.csv,"Relational Version A","Relational, read only version A",CAT,PANTHER,Study2,B,126,157,Study,User,-,,Study/JOL,"Study Phase2",1973,,,-1,-1,,,,1
5f04d52bebb486153390a90a,2dwtc6dm38,"Deep vs Shallow",1,219,2020-07-08T15:13:46-07:00,2.0763142108917,1,versionA_stim.csv,RLVersionA.csv,"Relational Version A","Relational, read only version A",EXTENSION,LONG,Study2,F,96,165,Study,User,-,,Study/JOL,"Study Phase2",1474,,,-1,-1,,,,1
5f04d52bebb486153390a90a,2dwtc6dm38,"Deep vs Shallow",1,220,2020-07-08T15:13:48-07:00,2.3465678691864,1,versionA_stim.csv,RLVersionA.csv,"Relational Version A","Relational, read only version A",MONEY,BANKER,Study2,B,132,136,Study,User,-,,Study/JOL,"Study Phase2",1435,,,-1,-1,,,,1
5f04d52bebb486153390a90a,2dwtc6dm38,"Deep vs Shallow",1,221,2020-07-08T15:13:51-07:00,2.1246199607849,1,versionA_stim.csv,RLVersionA.csv,"Relational Version A","Relational, read only version A",TEMPERATURE,Morning,Study2,U,173,159,Study,User,-,,Study/JOL,"Study Phase2",1342,,,-1,-1,,,,1
5f04d52bebb486153390a90a,2dwtc6dm38,"Deep vs Shallow",1,222,2020-07-08T15:13:52-07:00,1.6998131275177,1,versionA_stim.csv,RLVersionA.csv,"Relational Version A","Relational, read only version A",EVEN,REVENGE,Study2,B,122,169,Study,User,-,,Study/JOL,"Study Phase2",744,,,-1,-1,,,,1
5f04d52bebb486153390a90a,2dwtc6dm38,"Deep vs Shallow",1,223,2020-07-08T15:13:54-07:00,1.9526059627533,1,versionA_stim.csv,RLVersionA.csv,"Relational Version A","Relational, read only version A",NAME,HATE,Study2,U,167,130,Study,User,-,,Study/JOL,"Study Phase2",1083,,,-1,-1,,,,1
5f04d52bebb486153390a90a,2dwtc6dm38,"Deep vs Shallow",1,224,2020-07-08T15:14:00-07:00,5.4899170398712,1,versionA_stim.csv,RLVersionA.csv,"Relational Version A","Relational, read only version A",,,,,,0,Instruct,-,3,"Remember to focus on how the two items are similiar while you study!",,CHECK5,4308,,,-1,-1,,,,1
5f04d52bebb486153390a90a,2dwtc6dm38,"Deep vs Shallow",1,225,2020-07-08T15:14:04-07:00,4.6486539840698,1,versionA_stim.csv,RLVersionA.csv,"Relational Version A","Relational, read only version A",LITTER,TRASH,Study2,F,103,103,Study,User,-,,Study/JOL,"Study Phase2",2807,,,-1,-1,,,,1
5f04d52bebb486153390a90a,2dwtc6dm38,"Deep vs Shallow",1,226,2020-07-08T15:14:06-07:00,1.2865769863129,1,versionA_stim.csv,RLVersionA.csv,"Relational Version A","Relational, read only version A",VEHICLE,CHARM,Study2,U,160,172,Study,User,-,,Study/JOL,"Study Phase2",599,,,-1,-1,,,,1
5f04d52bebb486153390a90a,2dwtc6dm38,"Deep vs Shallow",1,227,2020-07-08T15:14:07-07:00,1.5716359615326,1,versionA_stim.csv,RLVersionA.csv,"Relational Version A","Relational, read only version A",MIRROR,CHILDREN,Study2,U,174,123,Study,User,-,,Study/JOL,"Study Phase2",833,,,-1,-1,,,,1
5f04d52bebb486153390a90a,2dwtc6dm38,"Deep vs Shallow",1,228,2020-07-08T15:14:09-07:00,1.7069990634918,1,versionA_stim.csv,RLVersionA.csv,"Relational Version A","Relational, read only version A",OWN,HAVE,Study2,S,153,147,Study,User,-,,Study/JOL,"Study Phase2",597,,,-1,-1,,,,1
5f04d52bebb486153390a90a,2dwtc6dm38,"Deep vs Shallow",1,229,2020-07-08T15:14:12-07:00,2.6933078765869,1,versionA_stim.csv,RLVersionA.csv,"Relational Version A","Relational, read only version A",INCENSE,SMELL,Study2,F,110,102,Study,User,-,,Study/JOL,"Study Phase2",779,,,-1,-1,,,,1
5f04d52bebb486153390a90a,2dwtc6dm38,"Deep vs Shallow",1,230,2020-07-08T15:14:15-07:00,3.2933790683746,1,versionA_stim.csv,RLVersionA.csv,"Relational Version A","Relational, read only version A",ROD,REEL,Study2,S,150,121,Study,User,-,,Study/JOL,"Study Phase2",2158,,,-1,-1,,,,1
5f04d52bebb486153390a90a,2dwtc6dm38,"Deep vs Shallow",1,231,2020-07-08T15:14:17-07:00,1.8959789276123,1,versionA_stim.csv,RLVersionA.csv,"Relational Version A","Relational, read only version A",BOTH,OUNCE,Study2,U,172,126,Study,User,-,,Study/JOL,"Study Phase2",1144,,,-1,-1,,,,1
5f04d52bebb486153390a90a,2dwtc6dm38,"Deep vs Shallow",1,232,2020-07-08T15:14:18-07:00,1.6407470703125,1,versionA_stim.csv,RLVersionA.csv,"Relational Version A","Relational, read only version A",CAR,WINDSHIELD,Study2,B,117,150,Study,User,-,,Study/JOL,"Study Phase2",905,,,-1,-1,,,,1
5f04d52bebb486153390a90a,2dwtc6dm38,"Deep vs Shallow",1,233,2020-07-08T15:14:20-07:00,1.6404919624329,1,versionA_stim.csv,RLVersionA.csv,"Relational Version A","Relational, read only version A",MEAT,OBTAIN,Study2,U,161,116,Study,User,-,,Study/JOL,"Study Phase2",685,,,-1,-1,,,,1
5f04d52bebb486153390a90a,2dwtc6dm38,"Deep vs Shallow",1,234,2020-07-08T15:14:22-07:00,2.3056039810181,1,versionA_stim.csv,RLVersionA.csv,"Relational Version A","Relational, read only version A",DRIVER,CAR,Study2,F,106,99,Study,User,-,,Study/JOL,"Study Phase2",1338,,,-1,-1,,,,1
5f04d52bebb486153390a90a,2dwtc6dm38,"Deep vs Shallow",1,235,2020-07-08T15:14:24-07:00,1.9222550392151,1,versionA_stim.csv,RLVersionA.csv,"Relational Version A","Relational, read only version A",HONEST,TRUTHFUL,Study2,B,133,146,Study,User,-,,Study/JOL,"Study Phase2",1103,,,-1,-1,,,,1
5f04d52bebb486153390a90a,2dwtc6dm38,"Deep vs Shallow",1,236,2020-07-08T15:14:26-07:00,1.5758159160614,1,versionA_stim.csv,RLVersionA.csv,"Relational Version A","Relational, read only version A",POP,BALLOON,Study2,B,123,155,Study,User,-,,Study/JOL,"Study Phase2",914,,,-1,-1,,,,1
5f04d52bebb486153390a90a,2dwtc6dm38,"Deep vs Shallow",1,237,2020-07-08T15:14:28-07:00,1.6698081493378,1,versionA_stim.csv,RLVersionA.csv,"Relational Version A","Relational, read only version A",CACTUS,PLANT,Study2,F,98,112,Study,User,-,,Study/JOL,"Study Phase2",999,,,-1,-1,,,,1
5f04d52bebb486153390a90a,2dwtc6dm38,"Deep vs Shallow",1,238,2020-07-08T15:14:30-07:00,2.4407930374146,1,versionA_stim.csv,RLVersionA.csv,"Relational Version A","Relational, read only version A",DOCUMENT,PAPER,Study2,F,109,124,Study,User,-,,Study/JOL,"Study Phase2",1693,,,-1,-1,,,,1
5f04d52bebb486153390a90a,2dwtc6dm38,"Deep vs Shallow",1,239,2020-07-08T15:15:00-07:00,29.686757802963,1,versionA_stim.csv,RLVersionA.csv,"Relational Version A","Relational, read only version A",BIRD,PENGUIN,Study2,B,119,156,Study,User,-,,Study/JOL,"Study Phase2",28842,,,-1,-1,,,,1
5f04d52bebb486153390a90a,2dwtc6dm38,"Deep vs Shallow",1,240,2020-07-08T15:15:01-07:00,1.7834060192108,1,versionA_stim.csv,RLVersionA.csv,"Relational Version A","Relational, read only version A",EARTH,GROUND,Study2,S,144,122,Study,User,-,,Study/JOL,"Study Phase2",852,,,-1,-1,,,,1
5f04d52bebb486153390a90a,2dwtc6dm38,"Deep vs Shallow",1,241,2020-07-08T15:15:03-07:00,1.6410930156708,1,versionA_stim.csv,RLVersionA.csv,"Relational Version A","Relational, read only version A",DRY,WET,Study2,S,146,141,Study,User,-,,Study/JOL,"Study Phase2",566,,,-1,-1,,,,1
5f04d52bebb486153390a90a,2dwtc6dm38,"Deep vs Shallow",1,242,2020-07-08T15:15:05-07:00,1.6434500217438,1,versionA_stim.csv,RLVersionA.csv,"Relational Version A","Relational, read only version A",SUN,TAN,Study2,S,155,100,Study,User,-,,Study/JOL,"Study Phase2",522,,,-1,-1,,,,1
5f04d52bebb486153390a90a,2dwtc6dm38,"Deep vs Shallow",1,243,2020-07-08T15:15:07-07:00,2.3297710418701,1,versionA_stim.csv,RLVersionA.csv,"Relational Version A","Relational, read only version A",BEST,FAVORITE,Study2,B,125,171,Study,User,-,,Study/JOL,"Study Phase2",1182,,,-1,-1,,,,1
5f04d52bebb486153390a90a,2dwtc6dm38,"Deep vs Shallow",1,244,2020-07-08T15:15:11-07:00,3.9404799938202,1,versionA_stim.csv,RLVersionA.csv,"Relational Version A","Relational, read only version A",CAKE,CLOTHES,Study2,U,166,117,Study,User,-,,Study/JOL,"Study Phase2",3022,,,-1,-1,,,,1
5f04d52bebb486153390a90a,2dwtc6dm38,"Deep vs Shallow",1,245,2020-07-08T15:15:24-07:00,12.690422058105,1,versionA_stim.csv,RLVersionA.csv,"Relational Version A","Relational, read only version A",SHOELACE,TIE,Study2,F,99,167,Study,User,-,,Study/JOL,"Study Phase2",11724,,,-1,-1,,,,1
5f04d52bebb486153390a90a,2dwtc6dm38,"Deep vs Shallow",1,246,2020-07-08T15:15:25-07:00,1.6162588596344,1,versionA_stim.csv,RLVersionA.csv,"Relational Version A","Relational, read only version A",LOUD,NOISE,Study2,S,152,137,Study,User,-,,Study/JOL,"Study Phase2",818,,,-1,-1,,,,1
5f04d52bebb486153390a90a,2dwtc6dm38,"Deep vs Shallow",1,247,2020-07-08T15:15:27-07:00,2.1691091060638,1,versionA_stim.csv,RLVersionA.csv,"Relational Version A","Relational, read only version A",RAZOR,SHAVE,Study2,S,136,101,Study,User,-,,Study/JOL,"Study Phase2",1303,,,-1,-1,,,,1
5f04d52bebb486153390a90a,2dwtc6dm38,"Deep vs Shallow",1,248,2020-07-08T15:15:29-07:00,1.4230809211731,1,versionA_stim.csv,RLVersionA.csv,"Relational Version A","Relational, read only version A",JUSTICE,MAROON,Study2,U,156,134,Study,User,-,,Study/JOL,"Study Phase2",787,,,-1,-1,,,,1
5f04d52bebb486153390a90a,2dwtc6dm38,"Deep vs Shallow",1,249,2020-07-08T15:15:30-07:00,1.3804321289062,1,versionA_stim.csv,RLVersionA.csv,"Relational Version A","Relational, read only version A",THREAD,THIMBLE,Study2,B,121,160,Study,User,-,,Study/JOL,"Study Phase2",402,,,-1,-1,,,,1
5f04d52bebb486153390a90a,2dwtc6dm38,"Deep vs Shallow",1,250,2020-07-08T15:15:32-07:00,1.4391708374023,1,versionA_stim.csv,RLVersionA.csv,"Relational Version A","Relational, read only version A",TURN,FLIP,Study2,B,116,118,Study,User,-,,Study/JOL,"Study Phase2",601,,,-1,-1,,,,1
5f04d52bebb486153390a90a,2dwtc6dm38,"Deep vs Shallow",1,251,2020-07-08T15:15:34-07:00,1.8826739788055,1,versionA_stim.csv,RLVersionA.csv,"Relational Version A","Relational, read only version A",CHILL,COLD,Study2,F,114,158,Study,User,-,,Study/JOL,"Study Phase2",1024,,,-1,-1,,,,1
5f04d52bebb486153390a90a,2dwtc6dm38,"Deep vs Shallow",1,252,2020-07-08T15:15:35-07:00,1.4263172149658,1,versionA_stim.csv,RLVersionA.csv,"Relational Version A","Relational, read only version A",BAD,VILLAIN,Study2,B,118,145,Study,User,-,,Study/JOL,"Study Phase2",676,,,-1,-1,,,,1
5f04d52bebb486153390a90a,2dwtc6dm38,"Deep vs Shallow",1,253,2020-07-08T15:15:36-07:00,1.2439229488373,1,versionA_stim.csv,RLVersionA.csv,"Relational Version A","Relational, read only version A",MASON,JAR,Study2,S,138,109,Study,User,-,,Study/JOL,"Study Phase2",690,,,-1,-1,,,,1
5f04d52bebb486153390a90a,2dwtc6dm38,"Deep vs Shallow",1,254,2020-07-08T15:15:38-07:00,1.6955578327179,1,versionA_stim.csv,RLVersionA.csv,"Relational Version A","Relational, read only version A",AFFECTION,LOVE,Study2,F,115,111,Study,User,-,,Study/JOL,"Study Phase2",582,,,-1,-1,,,,1
5f04d52bebb486153390a90a,2dwtc6dm38,"Deep vs Shallow",1,255,2020-07-08T15:15:40-07:00,1.6504690647125,1,versionA_stim.csv,RLVersionA.csv,"Relational Version A","Relational, read only version A",TANTRUM,TEMPER,Study2,S,154,115,Study,User,-,,Study/JOL,"Study Phase2",876,,,-1,-1,,,,1
5f04d52bebb486153390a90a,2dwtc6dm38,"Deep vs Shallow",1,256,2020-07-08T15:15:41-07:00,1.3383350372314,1,versionA_stim.csv,RLVersionA.csv,"Relational Version A","Relational, read only version A",CHERRY,RED,Study2,F,104,132,Study,User,-,,Study/JOL,"Study Phase2",468,,,-1,-1,,,,1
5f04d52bebb486153390a90a,2dwtc6dm38,"Deep vs Shallow",1,257,2020-07-08T15:15:42-07:00,1.4134550094604,1,versionA_stim.csv,RLVersionA.csv,"Relational Version A","Relational, read only version A",FUZZY,BANG,Study2,U,168,154,Study,User,-,,Study/JOL,"Study Phase2",825,,,-1,-1,,,,1
5f04d52bebb486153390a90a,2dwtc6dm38,"Deep vs Shallow",1,258,2020-07-08T15:15:44-07:00,1.5232839584351,1,versionA_stim.csv,RLVersionA.csv,"Relational Version A","Relational, read only version A",GLASS,BREAKABLE,Study2,B,127,104,Study,User,-,,Study/JOL,"Study Phase2",704,,,-1,-1,,,,1
5f04d52bebb486153390a90a,2dwtc6dm38,"Deep vs Shallow",1,259,2020-07-08T15:15:45-07:00,1.330353975296,1,versionA_stim.csv,RLVersionA.csv,"Relational Version A","Relational, read only version A",DINE,EAT,Study2,F,111,162,Study,User,-,,Study/JOL,"Study Phase2",552,,,-1,-1,,,,1
5f04d52bebb486153390a90a,2dwtc6dm38,"Deep vs Shallow",1,260,2020-07-08T15:15:47-07:00,1.6399459838867,1,versionA_stim.csv,RLVersionA.csv,"Relational Version A","Relational, read only version A",MOAT,CLEAR,Study2,U,169,142,Study,User,-,,Study/JOL,"Study Phase2",855,,,-1,-1,,,,1
5f04d52bebb486153390a90a,2dwtc6dm38,"Deep vs Shallow",1,261,2020-07-08T15:15:48-07:00,1.4277901649475,1,versionA_stim.csv,RLVersionA.csv,"Relational Version A","Relational, read only version A",STAR,ACTRESS,Study2,B,120,170,Study,User,-,,Study/JOL,"Study Phase2",820,,,-1,-1,,,,1
5f04d52bebb486153390a90a,2dwtc6dm38,"Deep vs Shallow",1,262,2020-07-08T15:15:50-07:00,1.4788889884949,1,versionA_stim.csv,RLVersionA.csv,"Relational Version A","Relational, read only version A",CRACKLE,ABLE,Study2,U,162,143,Study,User,-,,Study/JOL,"Study Phase2",866,,,-1,-1,,,,1
5f04d52bebb486153390a90a,2dwtc6dm38,"Deep vs Shallow",1,263,2020-07-08T15:15:53-07:00,3.363126039505,1,versionA_stim.csv,RLVersionA.csv,"Relational Version A","Relational, read only version A",ELEMENT,CARBON,Study2,S,141,164,Study,User,-,,Study/JOL,"Study Phase2",1555,,,-1,-1,,,,1
5f04d52bebb486153390a90a,2dwtc6dm38,"Deep vs Shallow",1,264,2020-07-08T15:15:55-07:00,1.7839558124542,1,versionA_stim.csv,RLVersionA.csv,"Relational Version A","Relational, read only version A",SLEEP,NAP,Study2,B,134,107,Study,User,-,,Study/JOL,"Study Phase2",830,,,-1,-1,,,,1
5f04d52bebb486153390a90a,2dwtc6dm38,"Deep vs Shallow",1,265,2020-07-08T15:15:56-07:00,1.376876115799,1,versionA_stim.csv,RLVersionA.csv,"Relational Version A","Relational, read only version A",KEYS,JOKE,Study2,U,165,151,Study,User,-,,Study/JOL,"Study Phase2",529,,,-1,-1,,,,1
5f04d52bebb486153390a90a,2dwtc6dm38,"Deep vs Shallow",1,266,2020-07-08T15:15:57-07:00,1.1877310276031,1,versionA_stim.csv,RLVersionA.csv,"Relational Version A","Relational, read only version A",STRETCH,CLOTH,Study2,U,157,97,Study,User,-,,Study/JOL,"Study Phase2",493,,,-1,-1,,,,1
5f04d52bebb486153390a90a,2dwtc6dm38,"Deep vs Shallow",1,267,2020-07-08T15:15:59-07:00,1.8368849754333,1,versionA_stim.csv,RLVersionA.csv,"Relational Version A","Relational, read only version A",PHONE,COMMUNICATION,Study2,S,149,163,Study,User,-,,Study/JOL,"Study Phase2",677,,,-1,-1,,,,1
5f04d52bebb486153390a90a,2dwtc6dm38,"Deep vs Shallow",1,268,2020-07-08T15:16:01-07:00,1.393965959549,1,versionA_stim.csv,RLVersionA.csv,"Relational Version A","Relational, read only version A",SCALP,HEAD,Study2,F,105,161,Study,User,-,,Study/JOL,"Study Phase2",450,,,-1,-1,,,,1
5f04d52bebb486153390a90a,2dwtc6dm38,"Deep vs Shallow",1,269,2020-07-08T15:16:02-07:00,1.2433130741119,1,versionA_stim.csv,RLVersionA.csv,"Relational Version A","Relational, read only version A",PLANE,AIRCRAFT,Study2,B,129,152,Study,User,-,,Study/JOL,"Study Phase2",434,,,-1,-1,,,,1
5f04d52bebb486153390a90a,2dwtc6dm38,"Deep vs Shallow",1,270,2020-07-08T15:16:03-07:00,1.2503168582916,1,versionA_stim.csv,RLVersionA.csv,"Relational Version A","Relational, read only version A",LISTEN,FICTION,Study2,U,164,127,Study,User,-,,Study/JOL,"Study Phase2",473,,,-1,-1,,,,1
5f04d52bebb486153390a90a,2dwtc6dm38,"Deep vs Shallow",1,271,2020-07-08T15:16:04-07:00,1.1178710460663,1,versionA_stim.csv,RLVersionA.csv,"Relational Version A","Relational, read only version A",MONTH,YEAR,BUFFER4,Buffer,177,179,Study,User,-,,Study/JOL,BUFFER4,565,,,-1,-1,,,,1
5f04d52bebb486153390a90a,2dwtc6dm38,"Deep vs Shallow",1,272,2020-07-08T15:16:06-07:00,1.3016369342804,1,versionA_stim.csv,RLVersionA.csv,"Relational Version A","Relational, read only version A",OCTOBER,SPOOKY,BUFFER4,Buffer,180,178,Study,User,-,,Study/JOL,BUFFER4,518,,,-1,-1,,,,1
5f04d52bebb486153390a90a,2dwtc6dm38,"Deep vs Shallow",1,273,2020-07-08T15:16:07-07:00,1.3597421646118,1,versionA_stim.csv,RLVersionA.csv,"Relational Version A","Relational, read only version A",DAYS,WEAKS,BUFFER4,Buffer,176,180,Study,User,-,,Study/JOL,BUFFER4,620,,,-1,-1,,,,1
5f04d52bebb486153390a90a,2dwtc6dm38,"Deep vs Shallow",1,274,2020-07-08T15:16:12-07:00,4.9555649757385,1,versionA_stim.csv,RLVersionA.csv,"Relational Version A","Relational, read only version A",SPRING,MARCH,BUFFER4,Buffer,179,177,Study,User,-,,Study/JOL,BUFFER4,4107,,,-1,-1,,,,1
5f04d52bebb486153390a90a,2dwtc6dm38,"Deep vs Shallow",1,275,2020-07-08T15:16:15-07:00,3.2435729503632,1,versionA_stim.csv,RLVersionA.csv,"Relational Version A","Relational, read only version A",TOOL,SHED,BUFFER4,Buffer,178,181,Study,User,-,,Study/JOL,BUFFER4,2441,,,-1,-1,,,,1
5f04d52bebb486153390a90a,2dwtc6dm38,"Deep vs Shallow",1,276,2020-07-08T15:16:18-07:00,2.5643839836121,1,versionA_stim.csv,RLVersionA.csv,"Relational Version A","Relational, read only version A",,,,,,0,Instruct,User,-,"You have completed this section. Please press Enter.",Filler_Instruction,Instruct5,1894,,,-1,-1,,,,1
5f04d52bebb486153390a90a,2dwtc6dm38,"Deep vs Shallow",1,277,2020-07-08T15:16:30-07:00,11.927563905716,1,versionA_stim.csv,RLVersionA.csv,"Relational Version A","Relational, read only version A",,,,,,0,FreeRecall,-,10,"What were you supposed to focus on while you studied each pair? (Hint: Think back to the instructions). Type your answer in the space below.",,CHECK3,11044,"How they were related",0,3255,5704,0,0,,1
5f04d52bebb486153390a90a,2dwtc6dm38,"Deep vs Shallow",1,278,2020-07-08T15:16:32-07:00,2.4793381690979,1,versionA_stim.csv,RLVersionA.csv,"Relational Version A","Relational, read only version A",,,,,,0,Instruct,User,-,"You have completed this section. Please press Enter.",Filler_Instruction,Instruct5,1747,,,-1,-1,,,,1
5f04d52bebb486153390a90a,2dwtc6dm38,"Deep vs Shallow",1,279,2020-07-08T15:18:33-07:00,120.90559005737,1,versionA_stim.csv,RLVersionA.csv,"Relational Version A","Relational, read only version A",,,,,,0,FreeRecall,120,120,"Please list the 50 US states in reverse alphabetical order (z - a). The task will automatically advance to the next screen after two minutes.",,Filler2,120003,"Wyoming Wisconsin VIrginia Texas Tennessee Rhode Island New York New Jersey New Hampshire Indiana Colorado CALIFORNIA Arizona Alaska Alabama",0,10692,99014,0,0,,1
5f04d52bebb486153390a90a,2dwtc6dm38,"Deep vs Shallow",1,280,2020-07-08T15:18:45-07:00,11.823412895203,1,versionA_stim.csv,RLVersionA.csv,"Relational Version A","Relational, read only version A",,,,,,0,Instruct,-,10,"You will now be presented with the first word from each of the previously studied item pairs. Please type the missing word. If you do not know the word, you may guess or press Enter to skip forward to the next pair.",,Instruct6,11053,,,-1,-1,,,,1
5f04d52bebb486153390a90a,2dwtc6dm38,"Deep vs Shallow",1,281,2020-07-08T15:18:55-07:00,9.8086099624634,1,versionA_stim.csv,RLVersionA.csv,"Relational Version A","Relational, read only version A",POP,BALLOON,Study2,B,123,155,Test,User,-,,Recall,Recall2,9105,balloon,100,7332,8213,1,1,,1
5f04d52bebb486153390a90a,2dwtc6dm38,"Deep vs Shallow",1,282,2020-07-08T15:18:57-07:00,2.6751470565796,1,versionA_stim.csv,RLVersionA.csv,"Relational Version A","Relational, read only version A",INCENSE,SMELL,Study2,F,110,102,Test,User,-,,Recall,Recall2,1940,smell,100,1250,1771,1,1,,1
5f04d52bebb486153390a90a,2dwtc6dm38,"Deep vs Shallow",1,283,2020-07-08T15:19:02-07:00,4.6148910522461,1,versionA_stim.csv,RLVersionA.csv,"Relational Version A","Relational, read only version A",FLEA,TICK,Study2,S,151,174,Test,User,-,,Recall,Recall2,2993,pest,25,2416,2822,0,0,,1
5f04d52bebb486153390a90a,2dwtc6dm38,"Deep vs Shallow",1,284,2020-07-08T15:19:32-07:00,29.975914955139,1,versionA_stim.csv,RLVersionA.csv,"Relational Version A","Relational, read only version A",EVEN,REVENGE,Study2,B,122,169,Test,User,-,,Recall,Recall2,28966,,0,-1,-1,0,0,,1
5f04d52bebb486153390a90a,2dwtc6dm38,"Deep vs Shallow",1,285,2020-07-08T15:19:36-07:00,3.8513958454132,1,versionA_stim.csv,RLVersionA.csv,"Relational Version A","Relational, read only version A",FIGHT,BRAWL,Study2,B,135,138,Test,User,-,,Recall,Recall2,3093,brawl,100,2242,2869,1,1,,1
5f04d52bebb486153390a90a,2dwtc6dm38,"Deep vs Shallow",1,286,2020-07-08T15:19:55-07:00,19.368420124054,1,versionA_stim.csv,RLVersionA.csv,"Relational Version A","Relational, read only version A",DRIVER,CAR,Study2,F,106,99,Test,User,-,,Recall,Recall2,18395,,0,-1,-1,0,0,,1
5f04d52bebb486153390a90a,2dwtc6dm38,"Deep vs Shallow",1,287,2020-07-08T15:20:08-07:00,12.615766048431,1,versionA_stim.csv,RLVersionA.csv,"Relational Version A","Relational, read only version A",BOTH,OUNCE,Study2,U,172,126,Test,User,-,,Recall,Recall2,11616,,0,-1,-1,0,0,,1
5f04d52bebb486153390a90a,2dwtc6dm38,"Deep vs Shallow",1,288,2020-07-08T15:20:15-07:00,7.5332369804382,1,versionA_stim.csv,RLVersionA.csv,"Relational Version A","Relational, read only version A",CACTUS,PLANT,Study2,F,98,112,Test,User,-,,Recall,Recall2,6819,plant,100,6000,6616,1,1,,1
5f04d52bebb486153390a90a,2dwtc6dm38,"Deep vs Shallow",1,289,2020-07-08T15:20:20-07:00,4.5718629360199,1,versionA_stim.csv,RLVersionA.csv,"Relational Version A","Relational, read only version A",CRACKLE,ABLE,Study2,U,162,143,Test,User,-,,Recall,Recall2,3739,sparkle,54.545454545455,2937,3600,0,0,,1
5f04d52bebb486153390a90a,2dwtc6dm38,"Deep vs Shallow",1,290,2020-07-08T15:20:23-07:00,3.2387540340424,1,versionA_stim.csv,RLVersionA.csv,"Relational Version A","Relational, read only version A",MEAT,OBTAIN,Study2,U,161,116,Test,User,-,,Recall,Recall2,2420,give,20,1884,2229,0,0,,1
5f04d52bebb486153390a90a,2dwtc6dm38,"Deep vs Shallow",1,291,2020-07-08T15:20:26-07:00,2.4943389892578,1,versionA_stim.csv,RLVersionA.csv,"Relational Version A","Relational, read only version A",ADJOURN,END,Study2,F,101,120,Test,User,-,,Recall,Recall2,1637,end,100,1279,1500,1,1,,1
5f04d52bebb486153390a90a,2dwtc6dm38,"Deep vs Shallow",1,292,2020-07-08T15:20:36-07:00,10.054352998734,1,versionA_stim.csv,RLVersionA.csv,"Relational Version A","Relational, read only version A",MIRROR,CHILDREN,Study2,U,174,123,Test,User,-,,Recall,Recall2,9134,break,30.769230769231,5888,6734,0,0,,1
5f04d52bebb486153390a90a,2dwtc6dm38,"Deep vs Shallow",1,293,2020-07-08T15:20:41-07:00,5.6786201000214,1,versionA_stim.csv,RLVersionA.csv,"Relational Version A","Relational, read only version A",FUZZY,BANG,Study2,U,168,154,Test,User,-,,Recall,Recall2,4968,Dog,28.571428571429,4489,4782,0,0,,1
5f04d52bebb486153390a90a,2dwtc6dm38,"Deep vs Shallow",1,294,2020-07-08T15:20:47-07:00,5.7378017902374,1,versionA_stim.csv,RLVersionA.csv,"Relational Version A","Relational, read only version A",CANDLE,WAX,Study2,S,139,176,Test,User,-,,Recall,Recall2,5065,Wick,28.571428571429,4010,4809,0,0,,1
5f04d52bebb486153390a90a,2dwtc6dm38,"Deep vs Shallow",1,295,2020-07-08T15:20:52-07:00,5.078125,1,versionA_stim.csv,RLVersionA.csv,"Relational Version A","Relational, read only version A",MAZE,ELECTION,Study2,U,159,98,Test,User,-,,Recall,Recall2,4554,,0,-1,-1,0,0,,1
5f04d52bebb486153390a90a,2dwtc6dm38,"Deep vs Shallow",1,296,2020-07-08T15:21:00-07:00,7.8744301795959,1,versionA_stim.csv,RLVersionA.csv,"Relational Version A","Relational, read only version A",MASON,JAR,Study2,S,138,109,Test,User,-,,Recall,Recall2,7074,Jar,100,6701,6934,1,1,,1
5f04d52bebb486153390a90a,2dwtc6dm38,"Deep vs Shallow",1,297,2020-07-08T15:21:07-07:00,7.3881139755249,1,versionA_stim.csv,RLVersionA.csv,"Relational Version A","Relational, read only version A",TRUTH,LIE,Study2,S,148,133,Test,User,-,,Recall,Recall2,5716,Honest,22.222222222222,4262,5557,0,0,,1
5f04d52bebb486153390a90a,2dwtc6dm38,"Deep vs Shallow",1,298,2020-07-08T15:21:10-07:00,2.5108029842377,1,versionA_stim.csv,RLVersionA.csv,"Relational Version A","Relational, read only version A",PLANE,AIRCRAFT,Study2,B,129,152,Test,User,-,,Recall,Recall2,1719,,0,-1,-1,0,0,,1
5f04d52bebb486153390a90a,2dwtc6dm38,"Deep vs Shallow",1,299,2020-07-08T15:21:11-07:00,1.4662668704987,1,versionA_stim.csv,RLVersionA.csv,"Relational Version A","Relational, read only version A",FEUD,FIGHT,Study2,F,113,135,Test,User,-,,Recall,Recall2,758,,0,-1,-1,0,0,,1
5f04d52bebb486153390a90a,2dwtc6dm38,"Deep vs Shallow",1,300,2020-07-08T15:21:13-07:00,1.4534361362457,1,versionA_stim.csv,RLVersionA.csv,"Relational Version A","Relational, read only version A",STAR,ACTRESS,Study2,B,120,170,Test,User,-,,Recall,Recall2,885,,0,-1,-1,0,0,,1
5f04d52bebb486153390a90a,2dwtc6dm38,"Deep vs Shallow",1,301,2020-07-08T15:21:33-07:00,20.456179857254,1,versionA_stim.csv,RLVersionA.csv,"Relational Version A","Relational, read only version A",TANTRUM,TEMPER,Study2,S,154,115,Test,User,-,,Recall,Recall2,19817,temper,100,19143,19664,1,1,,1
5f04d52bebb486153390a90a,2dwtc6dm38,"Deep vs Shallow",1,302,2020-07-08T15:21:40-07:00,6.2308170795441,1,versionA_stim.csv,RLVersionA.csv,"Relational Version A","Relational, read only version A",SHEARS,SCISSORS,Study2,F,112,175,Test,User,-,,Recall,Recall2,4491,scissors,100,1652,3883,1,1,,1
5f04d52bebb486153390a90a,2dwtc6dm38,"Deep vs Shallow",1,303,2020-07-08T15:21:57-07:00,17.689932107925,1,versionA_stim.csv,RLVersionA.csv,"Relational Version A","Relational, read only version A",LITTER,TRASH,Study2,F,103,103,Test,User,-,,Recall,Recall2,16686,trash,100,15892,16461,1,1,,1
5f04d52bebb486153390a90a,2dwtc6dm38,"Deep vs Shallow",1,304,2020-07-08T15:22:01-07:00,3.3686668872833,1,versionA_stim.csv,RLVersionA.csv,"Relational Version A","Relational, read only version A",SAFETY,SEATBELT,Study2,S,147,125,Test,User,-,,Recall,Recall2,2308,,0,-1,-1,0,0,,1
5f04d52bebb486153390a90a,2dwtc6dm38,"Deep vs Shallow",1,305,2020-07-08T15:22:05-07:00,4.126237154007,1,versionA_stim.csv,RLVersionA.csv,"Relational Version A","Relational, read only version A",EARTH,GROUND,Study2,S,144,122,Test,User,-,,Recall,Recall2,3326,ground,100,2588,3141,1,1,,1
5f04d52bebb486153390a90a,2dwtc6dm38,"Deep vs Shallow",1,306,2020-07-08T15:22:16-07:00,11.401075839996,1,versionA_stim.csv,RLVersionA.csv,"Relational Version A","Relational, read only version A",WRIST,BRACELET,Study2,S,140,105,Test,User,-,,Recall,Recall2,10239,,0,-1,-1,0,0,,1
5f04d52bebb486153390a90a,2dwtc6dm38,"Deep vs Shallow",1,307,2020-07-08T15:22:19-07:00,3.1938741207123,1,versionA_stim.csv,RLVersionA.csv,"Relational Version A","Relational, read only version A",ELEMENT,CARBON,Study2,S,141,164,Test,User,-,,Recall,Recall2,2307,carbon,100,1385,2067,1,1,,1
5f04d52bebb486153390a90a,2dwtc6dm38,"Deep vs Shallow",1,308,2020-07-08T15:22:23-07:00,3.1841118335724,1,versionA_stim.csv,RLVersionA.csv,"Relational Version A","Relational, read only version A",CHILL,COLD,Study2,F,114,158,Test,User,-,,Recall,Recall2,2521,cold,100,1992,2361,1,1,,1
5f04d52bebb486153390a90a,2dwtc6dm38,"Deep vs Shallow",1,309,2020-07-08T15:22:33-07:00,10.782240152359,1,versionA_stim.csv,RLVersionA.csv,"Relational Version A","Relational, read only version A",KEYS,JOKE,Study2,U,165,151,Test,User,-,,Recall,Recall2,9725,drive,22.222222222222,8898,9572,0,0,,1
5f04d52bebb486153390a90a,2dwtc6dm38,"Deep vs Shallow",1,310,2020-07-08T15:22:51-07:00,18.175987958908,1,versionA_stim.csv,RLVersionA.csv,"Relational Version A","Relational, read only version A",SCALP,HEAD,Study2,F,105,161,Test,User,-,,Recall,Recall2,17159,,0,-1,-1,0,0,,1
5f04d52bebb486153390a90a,2dwtc6dm38,"Deep vs Shallow",1,311,2020-07-08T15:22:55-07:00,3.0622160434723,1,versionA_stim.csv,RLVersionA.csv,"Relational Version A","Relational, read only version A",GIVE,STEAK,Study2,U,158,110,Test,User,-,,Recall,Recall2,2285,meat,44.444444444444,1888,2183,0,0,,1
5f04d52bebb486153390a90a,2dwtc6dm38,"Deep vs Shallow",1,312,2020-07-08T15:23:14-07:00,19.237860918045,1,versionA_stim.csv,RLVersionA.csv,"Relational Version A","Relational, read only version A",VEHICLE,CHARM,Study2,U,160,172,Test,User,-,,Recall,Recall2,18330,,0,-1,-1,0,0,,1
5f04d52bebb486153390a90a,2dwtc6dm38,"Deep vs Shallow",1,313,2020-07-08T15:23:23-07:00,9.2093501091003,1,versionA_stim.csv,RLVersionA.csv,"Relational Version A","Relational, read only version A",RAZOR,SHAVE,Study2,S,136,101,Test,User,-,,Recall,Recall2,8399,,0,-1,-1,0,0,,1
5f04d52bebb486153390a90a,2dwtc6dm38,"Deep vs Shallow",1,314,2020-07-08T15:23:44-07:00,21.140513896942,1,versionA_stim.csv,RLVersionA.csv,"Relational Version A","Relational, read only version A",BAD,VILLAIN,Study2,B,118,145,Test,User,-,,Recall,Recall2,19212,,0,-1,-1,0,0,,1
5f04d52bebb486153390a90a,2dwtc6dm38,"Deep vs Shallow",1,315,2020-07-08T15:23:49-07:00,4.6124639511108,1,versionA_stim.csv,RLVersionA.csv,"Relational Version A","Relational, read only version A",OWN,HAVE,Study2,S,153,147,Test,User,-,,Recall,Recall2,3961,have,100,3410,3797,1,1,,1
5f04d52bebb486153390a90a,2dwtc6dm38,"Deep vs Shallow",1,316,2020-07-08T15:23:52-07:00,3.7350280284882,1,versionA_stim.csv,RLVersionA.csv,"Relational Version A","Relational, read only version A",LOAN,SIGN,Study2,U,171,113,Test,User,-,,Recall,Recall2,2895,lend,25,2406,2740,0,0,,1
5f04d52bebb486153390a90a,2dwtc6dm38,"Deep vs Shallow",1,317,2020-07-08T15:23:55-07:00,2.5428340435028,1,versionA_stim.csv,RLVersionA.csv,"Relational Version A","Relational, read only version A",CLUE,GAME,Study2,F,97,131,Test,User,-,,Recall,Recall2,1541,game,100,1145,1421,1,1,,1
5f04d52bebb486153390a90a,2dwtc6dm38,"Deep vs Shallow",1,318,2020-07-08T15:23:57-07:00,1.9333779811859,1,versionA_stim.csv,RLVersionA.csv,"Relational Version A","Relational, read only version A",THREAD,THIMBLE,Study2,B,121,160,Test,User,-,,Recall,Recall2,1205,,0,-1,-1,0,0,,1
5f04d52bebb486153390a90a,2dwtc6dm38,"Deep vs Shallow",1,319,2020-07-08T15:24:00-07:00,3.1227650642395,1,versionA_stim.csv,RLVersionA.csv,"Relational Version A","Relational, read only version A",DINE,EAT,Study2,F,111,162,Test,User,-,,Recall,Recall2,2219,,0,-1,-1,0,0,,1
5f04d52bebb486153390a90a,2dwtc6dm38,"Deep vs Shallow",1,320,2020-07-08T15:24:02-07:00,1.5164399147034,1,versionA_stim.csv,RLVersionA.csv,"Relational Version A","Relational, read only version A",NAME,HATE,Study2,U,167,130,Test,User,-,,Recall,Recall2,764,,0,-1,-1,0,0,,1
5f04d52bebb486153390a90a,2dwtc6dm38,"Deep vs Shallow",1,321,2020-07-08T15:24:09-07:00,7.5563530921936,1,versionA_stim.csv,RLVersionA.csv,"Relational Version A","Relational, read only version A",SLEEP,NAP,Study2,B,134,107,Test,User,-,,Recall,Recall2,6559,nap,100,5951,6319,1,1,,1
5f04d52bebb486153390a90a,2dwtc6dm38,"Deep vs Shallow",1,322,2020-07-08T15:24:19-07:00,9.8850018978119,1,versionA_stim.csv,RLVersionA.csv,"Relational Version A","Relational, read only version A",STRETCH,CLOTH,Study2,U,157,97,Test,User,-,,Recall,Recall2,9196,,0,-1,-1,0,0,,1
5f04d52bebb486153390a90a,2dwtc6dm38,"Deep vs Shallow",1,323,2020-07-08T15:24:30-07:00,10.905588150024,1,versionA_stim.csv,RLVersionA.csv,"Relational Version A","Relational, read only version A",CAR,WINDSHIELD,Study2,B,117,150,Test,User,-,,Recall,Recall2,10221,,0,-1,-1,0,0,,1
5f04d52bebb486153390a90a,2dwtc6dm38,"Deep vs Shallow",1,324,2020-07-08T15:24:35-07:00,5.3272187709808,1,versionA_stim.csv,RLVersionA.csv,"Relational Version A","Relational, read only version A",SHOELACE,TIE,Study2,F,99,167,Test,User,-,,Recall,Recall2,4619,tie,100,3358,4063,1,1,,1
5f04d52bebb486153390a90a,2dwtc6dm38,"Deep vs Shallow",1,325,2020-07-08T15:24:37-07:00,1.5332210063934,1,versionA_stim.csv,RLVersionA.csv,"Relational Version A","Relational, read only version A",CAKE,CLOTHES,Study2,U,166,117,Test,User,-,,Recall,Recall2,706,,0,-1,-1,0,0,,1
5f04d52bebb486153390a90a,2dwtc6dm38,"Deep vs Shallow",1,326,2020-07-08T15:24:38-07:00,1.4501922130585,1,versionA_stim.csv,RLVersionA.csv,"Relational Version A","Relational, read only version A",Shell,SHAKE,Study2,U,163,168,Test,User,-,,Recall,Recall2,512,,0,-1,-1,0,0,,1
5f04d52bebb486153390a90a,2dwtc6dm38,"Deep vs Shallow",1,327,2020-07-08T15:24:45-07:00,6.882572889328,1,versionA_stim.csv,RLVersionA.csv,"Relational Version A","Relational, read only version A",DRY,WET,Study2,S,146,141,Test,User,-,,Recall,Recall2,5905,wet,100,4878,5393,1,1,,1
5f04d52bebb486153390a90a,2dwtc6dm38,"Deep vs Shallow",1,328,2020-07-08T15:24:50-07:00,4.8827049732208,1,versionA_stim.csv,RLVersionA.csv,"Relational Version A","Relational, read only version A",LOUD,NOISE,Study2,S,152,137,Test,User,-,,Recall,Recall2,3256,,0,-1,-1,0,0,,1
5f04d52bebb486153390a90a,2dwtc6dm38,"Deep vs Shallow",1,329,2020-07-08T15:25:29-07:00,38.825909137726,1,versionA_stim.csv,RLVersionA.csv,"Relational Version A","Relational, read only version A",LISTEN,FICTION,Study2,U,164,127,Test,User,-,,Recall,Recall2,37962,,0,-1,-1,0,0,,1
5f04d52bebb486153390a90a,2dwtc6dm38,"Deep vs Shallow",1,330,2020-07-08T15:25:43-07:00,13.678581953049,1,versionA_stim.csv,RLVersionA.csv,"Relational Version A","Relational, read only version A",DOCUMENT,PAPER,Study2,F,109,124,Test,User,-,,Recall,Recall2,12675,,0,-1,-1,0,0,,1
5f04d52bebb486153390a90a,2dwtc6dm38,"Deep vs Shallow",1,331,2020-07-08T15:25:49-07:00,6.8278169631958,1,versionA_stim.csv,RLVersionA.csv,"Relational Version A","Relational, read only version A",BIRD,PENGUIN,Study2,B,119,156,Test,User,-,,Recall,Recall2,5533,penguin,100,3239,5293,1,1,,1
5f04d52bebb486153390a90a,2dwtc6dm38,"Deep vs Shallow",1,332,2020-07-08T15:25:52-07:00,2.7664721012115,1,versionA_stim.csv,RLVersionA.csv,"Relational Version A","Relational, read only version A",TURN,FLIP,Study2,B,116,118,Test,User,-,,Recall,Recall2,1944,,0,-1,-1,0,0,,1
5f04d52bebb486153390a90a,2dwtc6dm38,"Deep vs Shallow",1,333,2020-07-08T15:26:00-07:00,7.4622428417206,1,versionA_stim.csv,RLVersionA.csv,"Relational Version A","Relational, read only version A",DEAD,COFFIN,Study2,B,128,153,Test,User,-,,Recall,Recall2,6578,,0,-1,-1,0,0,,1
5f04d52bebb486153390a90a,2dwtc6dm38,"Deep vs Shallow",1,334,2020-07-08T15:26:14-07:00,14.288999080658,1,versionA_stim.csv,RLVersionA.csv,"Relational Version A","Relational, read only version A",GONE,AWAY,Study2,S,142,149,Test,User,-,,Recall,Recall2,13300,,0,-1,-1,0,0,,1
5f04d52bebb486153390a90a,2dwtc6dm38,"Deep vs Shallow",1,335,2020-07-08T15:26:26-07:00,11.827033996582,1,versionA_stim.csv,RLVersionA.csv,"Relational Version A","Relational, read only version A",MULE,DONKEY,Study2,F,108,108,Test,User,-,,Recall,Recall2,10563,donkey,100,3694,9911,1,1,,1
5f04d52bebb486153390a90a,2dwtc6dm38,"Deep vs Shallow",1,336,2020-07-08T15:26:45-07:00,19.423619031906,1,versionA_stim.csv,RLVersionA.csv,"Relational Version A","Relational, read only version A",FRUIT,STRAWBERRY,Study2,B,124,106,Test,User,-,,Recall,Recall2,18541,,0,-1,-1,0,0,,1
5f04d52bebb486153390a90a,2dwtc6dm38,"Deep vs Shallow",1,337,2020-07-08T15:26:50-07:00,4.4368588924408,1,versionA_stim.csv,RLVersionA.csv,"Relational Version A","Relational, read only version A",WATER,DRINK,Study2,S,143,148,Test,User,-,,Recall,Recall2,3572,,0,-1,-1,0,0,,1
5f04d52bebb486153390a90a,2dwtc6dm38,"Deep vs Shallow",1,338,2020-07-08T15:27:02-07:00,12.011760950089,1,versionA_stim.csv,RLVersionA.csv,"Relational Version A","Relational, read only version A",DETECTIVE,MYSTERY,Study2,F,100,173,Test,User,-,,Recall,Recall2,10905,,0,-1,-1,0,0,,1
5f04d52bebb486153390a90a,2dwtc6dm38,"Deep vs Shallow",1,339,2020-07-08T15:27:03-07:00,1.4558551311493,1,versionA_stim.csv,RLVersionA.csv,"Relational Version A","Relational, read only version A",ALONE,LONELY,Study2,S,145,140,Test,User,-,,Recall,Recall2,817,,0,-1,-1,0,0,,1
5f04d52bebb486153390a90a,2dwtc6dm38,"Deep vs Shallow",1,340,2020-07-08T15:27:25-07:00,21.906345844269,1,versionA_stim.csv,RLVersionA.csv,"Relational Version A","Relational, read only version A",SUN,TAN,Study2,S,155,100,Test,User,-,,Recall,Recall2,21044,tan,100,19563,20393,1,1,,1
5f04d52bebb486153390a90a,2dwtc6dm38,"Deep vs Shallow",1,341,2020-07-08T15:27:27-07:00,1.6253271102905,1,versionA_stim.csv,RLVersionA.csv,"Relational Version A","Relational, read only version A",EXTENSION,LONG,Study2,F,96,165,Test,User,-,,Recall,Recall2,743,,0,-1,-1,0,0,,1
5f04d52bebb486153390a90a,2dwtc6dm38,"Deep vs Shallow",1,342,2020-07-08T15:27:31-07:00,4.5355169773102,1,versionA_stim.csv,RLVersionA.csv,"Relational Version A","Relational, read only version A",RIGHTS,EQUAL,Study2,S,137,129,Test,User,-,,Recall,Recall2,3763,equal,100,1718,3412,1,1,,1
5f04d52bebb486153390a90a,2dwtc6dm38,"Deep vs Shallow",1,343,2020-07-08T15:27:40-07:00,8.8227519989014,1,versionA_stim.csv,RLVersionA.csv,"Relational Version A","Relational, read only version A",AFFECTION,LOVE,Study2,F,115,111,Test,User,-,,Recall,Recall2,8035,,0,-1,-1,0,0,,1
5f04d52bebb486153390a90a,2dwtc6dm38,"Deep vs Shallow",1,344,2020-07-08T15:27:43-07:00,3.1324031352997,1,versionA_stim.csv,RLVersionA.csv,"Relational Version A","Relational, read only version A",MAIN,SCAR,Study2,U,175,139,Test,User,-,,Recall,Recall2,2536,,0,-1,-1,0,0,,1
5f04d52bebb486153390a90a,2dwtc6dm38,"Deep vs Shallow",1,345,2020-07-08T15:27:51-07:00,8.2466468811035,1,versionA_stim.csv,RLVersionA.csv,"Relational Version A","Relational, read only version A",FISH,SARDINE,Study2,B,130,166,Test,User,-,,Recall,Recall2,7244,shrimp,46.153846153846,6232,6983,0,0,,1
5f04d52bebb486153390a90a,2dwtc6dm38,"Deep vs Shallow",1,346,2020-07-08T15:28:01-07:00,9.6269359588623,1,versionA_stim.csv,RLVersionA.csv,"Relational Version A","Relational, read only version A",CHERRY,RED,Study2,F,104,132,Test,User,-,,Recall,Recall2,8885,,0,-1,-1,0,0,,1
5f04d52bebb486153390a90a,2dwtc6dm38,"Deep vs Shallow",1,347,2020-07-08T15:28:22-07:00,21.196871995926,1,versionA_stim.csv,RLVersionA.csv,"Relational Version A","Relational, read only version A",JUSTICE,MAROON,Study2,U,156,134,Test,User,-,,Recall,Recall2,20318,,0,-1,-1,0,0,,1
5f04d52bebb486153390a90a,2dwtc6dm38,"Deep vs Shallow",1,348,2020-07-08T15:28:30-07:00,8.1056571006775,1,versionA_stim.csv,RLVersionA.csv,"Relational Version A","Relational, read only version A",GLASS,BREAKABLE,Study2,B,127,104,Test,User,-,,Recall,Recall2,7021,,0,-1,-1,0,0,,1
