Username,ID,ExperimentName,Session,Trial,Date,TimeDif,"Condition Number","Stimuli File","Order File","Condition Description","Condition Notes",Stimuli*Cue,Stimuli*Answer,Stimuli*Shuffle,"Stimuli*Stimuli Notes",Stimuli*Value,Procedure*Item,"Procedure*Trial Type","Procedure*Max Time","Procedure*Min Time",Procedure*Text,"Procedure*Procedure Notes",Procedure*Shuffle,Response*RT,Response*Response,Response*Accuracy,Response*RTfirst,Response*RTlast,Response*strictAcc,Response*lenientAcc,Response*focus,Response*Focus
5aaa7bde56c51000018cc7b5,7kzk9a67tv,"Deep vs Shallow",1,1,2020-07-08T14:11:02-07:00,12.847594022751,3,versionC_stim.csv,RLVersionC.csv,"Realational Version C","Relational, read only version C",,,,,,0,Instruct,-,10,"In this section, you will be presented with a series of word pairs. Please study both items in the pair.",,Instruct15,12509,,,-1,-1,,,,1
5aaa7bde56c51000018cc7b5,7kzk9a67tv,"Deep vs Shallow",1,2,2020-07-08T14:11:18-07:00,16.383759975433,3,versionC_stim.csv,RLVersionC.csv,"Realational Version C","Relational, read only version C",,,,,,0,Instruct,-,15,"As you study, please think about how the two concepts are RELATED to each other. For example, if you see the pair TURTLE-CAT, think about how both are alive, they are both animals, and both can be kept as pets.",,Instruct19,15998,,,-1,-1,,,,1
5aaa7bde56c51000018cc7b5,7kzk9a67tv,"Deep vs Shallow",1,3,2020-07-08T14:11:40-07:00,22.192392110825,3,versionC_stim.csv,RLVersionC.csv,"Realational Version C","Relational, read only version C",,,,,,0,FreeRecall,-,10,"What you should think about as you study each item pair? Type your response in the box below.",,CHECK1,21802,"How the items are related to each other. For example if both are animals, then this links them, they are both alive etc.",0,4049,20725,0,0,,1
5aaa7bde56c51000018cc7b5,7kzk9a67tv,"Deep vs Shallow",1,4,2020-07-08T14:11:45-07:00,4.4419090747833,3,versionC_stim.csv,RLVersionC.csv,"Realational Version C","Relational, read only version C",,,,,,0,Instruct,User,-,"You will now begin the experiment. Press ENTER when you are ready to begin.",,Instruct000,2931,,,-1,-1,,,,1
5aaa7bde56c51000018cc7b5,7kzk9a67tv,"Deep vs Shallow",1,5,2020-07-08T14:11:55-07:00,9.8415129184723,3,versionC_stim.csv,RLVersionC.csv,"Realational Version C","Relational, read only version C",JAM,SPACE,BUFFER1,Buffer,5,4,Study,User,-,,Study/JOL,BUFFER,9421,,,-1,-1,,,,1
5aaa7bde56c51000018cc7b5,7kzk9a67tv,"Deep vs Shallow",1,6,2020-07-08T14:12:06-07:00,11.096451997757,3,versionC_stim.csv,RLVersionC.csv,"Realational Version C","Relational, read only version C",BUTTER,PEANUT,BUFFER1,Buffer,3,3,Study,User,-,,Study/JOL,BUFFER,10628,,,-1,-1,,,,1
5aaa7bde56c51000018cc7b5,7kzk9a67tv,"Deep vs Shallow",1,7,2020-07-08T14:12:13-07:00,7.2079989910126,3,versionC_stim.csv,RLVersionC.csv,"Realational Version C","Relational, read only version C",HIDE,SCARE,BUFFER1,Buffer,4,5,Study,User,-,,Study/JOL,BUFFER,6773,,,-1,-1,,,,1
5aaa7bde56c51000018cc7b5,7kzk9a67tv,"Deep vs Shallow",1,8,2020-07-08T14:12:18-07:00,4.8378410339355,3,versionC_stim.csv,RLVersionC.csv,"Realational Version C","Relational, read only version C",GREEN,TREES,BUFFER1,Buffer,1,6,Study,User,-,,Study/JOL,BUFFER,4435,,,-1,-1,,,,1
5aaa7bde56c51000018cc7b5,7kzk9a67tv,"Deep vs Shallow",1,9,2020-07-08T14:12:23-07:00,5.2134430408478,3,versionC_stim.csv,RLVersionC.csv,"Realational Version C","Relational, read only version C",CATCHER,BASEBALL,BUFFER1,Buffer,2,2,Study,User,-,,Study/JOL,BUFFER,4833,,,-1,-1,,,,1
5aaa7bde56c51000018cc7b5,7kzk9a67tv,"Deep vs Shallow",1,10,2020-07-08T14:12:27-07:00,3.8037970066071,3,versionC_stim.csv,RLVersionC.csv,"Realational Version C","Relational, read only version C",WIND,BLOW,Study1,S,55,53,Study,User,-,,Study/JOL,"Study Phase",3428,,,-1,-1,,,,1
5aaa7bde56c51000018cc7b5,7kzk9a67tv,"Deep vs Shallow",1,11,2020-07-08T14:12:35-07:00,8.0096979141235,3,versionC_stim.csv,RLVersionC.csv,"Realational Version C","Relational, read only version C",ADD,VALLEY,Study1,U,82,52,Study,User,-,,Study/JOL,"Study Phase",7642,,,-1,-1,,,,1
5aaa7bde56c51000018cc7b5,7kzk9a67tv,"Deep vs Shallow",1,12,2020-07-08T14:12:46-07:00,10.982234954834,3,versionC_stim.csv,RLVersionC.csv,"Realational Version C","Relational, read only version C",ACCIDENT,STRONG,Study1,U,80,55,Study,User,-,,Study/JOL,"Study Phase",10535,,,-1,-1,,,,1
5aaa7bde56c51000018cc7b5,7kzk9a67tv,"Deep vs Shallow",1,13,2020-07-08T14:12:49-07:00,3.5444650650024,3,versionC_stim.csv,RLVersionC.csv,"Realational Version C","Relational, read only version C",WAR,REVOLUTION,Study1,B,20,72,Study,User,-,,Study/JOL,"Study Phase",3122,,,-1,-1,,,,1
5aaa7bde56c51000018cc7b5,7kzk9a67tv,"Deep vs Shallow",1,14,2020-07-08T14:12:54-07:00,4.3226149082184,3,versionC_stim.csv,RLVersionC.csv,"Realational Version C","Relational, read only version C",FANTASTIC,GREAT,Study1,F,35,83,Study,User,-,,Study/JOL,"Study Phase",3861,,,-1,-1,,,,1
5aaa7bde56c51000018cc7b5,7kzk9a67tv,"Deep vs Shallow",1,15,2020-07-08T14:12:58-07:00,4.5951170921326,3,versionC_stim.csv,RLVersionC.csv,"Realational Version C","Relational, read only version C",ENOUGH,FULL,Study1,F,26,37,Study,User,-,,Study/JOL,"Study Phase",4157,,,-1,-1,,,,1
5aaa7bde56c51000018cc7b5,7kzk9a67tv,"Deep vs Shallow",1,16,2020-07-08T14:13:05-07:00,6.1232469081879,3,versionC_stim.csv,RLVersionC.csv,"Realational Version C","Relational, read only version C",WOULD,CASH,Study1,U,83,23,Study,User,-,,Study/JOL,"Study Phase",5658,,,-1,-1,,,,1
5aaa7bde56c51000018cc7b5,7kzk9a67tv,"Deep vs Shallow",1,17,2020-07-08T14:13:08-07:00,3.6782219409943,3,versionC_stim.csv,RLVersionC.csv,"Realational Version C","Relational, read only version C",FAMINE,HUNGER,Study1,F,40,16,Study,User,-,,Study/JOL,"Study Phase",3305,,,-1,-1,,,,1
5aaa7bde56c51000018cc7b5,7kzk9a67tv,"Deep vs Shallow",1,18,2020-07-08T14:13:12-07:00,3.713219165802,3,versionC_stim.csv,RLVersionC.csv,"Realational Version C","Relational, read only version C",WORD,SENTENCE,Study1,F,31,38,Study,User,-,,Study/JOL,"Study Phase",3344,,,-1,-1,,,,1
5aaa7bde56c51000018cc7b5,7kzk9a67tv,"Deep vs Shallow",1,19,2020-07-08T14:13:14-07:00,2.5135209560394,3,versionC_stim.csv,RLVersionC.csv,"Realational Version C","Relational, read only version C",CARD,CREDIT,Study1,B,23,59,Study,User,-,,Study/JOL,"Study Phase",2060,,,-1,-1,,,,1
5aaa7bde56c51000018cc7b5,7kzk9a67tv,"Deep vs Shallow",1,20,2020-07-08T14:13:24-07:00,10.073875904083,3,versionC_stim.csv,RLVersionC.csv,"Realational Version C","Relational, read only version C",LION,ART,Study1,U,79,28,Study,User,-,,Study/JOL,"Study Phase",9672,,,-1,-1,,,,1
5aaa7bde56c51000018cc7b5,7kzk9a67tv,"Deep vs Shallow",1,21,2020-07-08T14:13:28-07:00,3.7345871925354,3,versionC_stim.csv,RLVersionC.csv,"Realational Version C","Relational, read only version C",DEFINITION,MEANING,Study1,S,62,20,Study,User,-,,Study/JOL,"Study Phase",3277,,,-1,-1,,,,1
5aaa7bde56c51000018cc7b5,7kzk9a67tv,"Deep vs Shallow",1,22,2020-07-08T14:13:39-07:00,10.729556798935,3,versionC_stim.csv,RLVersionC.csv,"Realational Version C","Relational, read only version C",VASE,KING,Study1,U,85,26,Study,User,-,,Study/JOL,"Study Phase",10320,,,-1,-1,,,,1
5aaa7bde56c51000018cc7b5,7kzk9a67tv,"Deep vs Shallow",1,23,2020-07-08T14:13:42-07:00,2.9087011814117,3,versionC_stim.csv,RLVersionC.csv,"Realational Version C","Relational, read only version C",CHILI,HOT,Study1,F,37,42,Study,User,-,,Study/JOL,"Study Phase",2480,,,-1,-1,,,,1
5aaa7bde56c51000018cc7b5,7kzk9a67tv,"Deep vs Shallow",1,24,2020-07-08T14:13:45-07:00,3.3685100078583,3,versionC_stim.csv,RLVersionC.csv,"Realational Version C","Relational, read only version C",HAMMER,CHISEL,Study1,B,9,7,Study,User,-,,Study/JOL,"Study Phase",2971,,,-1,-1,,,,1
5aaa7bde56c51000018cc7b5,7kzk9a67tv,"Deep vs Shallow",1,25,2020-07-08T14:13:49-07:00,3.4497399330139,3,versionC_stim.csv,RLVersionC.csv,"Realational Version C","Relational, read only version C",PLANT,ROOT,Study1,B,13,63,Study,User,-,,Study/JOL,"Study Phase",3052,,,-1,-1,,,,1
5aaa7bde56c51000018cc7b5,7kzk9a67tv,"Deep vs Shallow",1,26,2020-07-08T14:13:59-07:00,10.051655054092,3,versionC_stim.csv,RLVersionC.csv,"Realational Version C","Relational, read only version C",RIDDLE,SUGAR,Study1,U,81,67,Study,User,-,,Study/JOL,"Study Phase",9621,,,-1,-1,,,,1
5aaa7bde56c51000018cc7b5,7kzk9a67tv,"Deep vs Shallow",1,27,2020-07-08T14:14:02-07:00,3.6435089111328,3,versionC_stim.csv,RLVersionC.csv,"Realational Version C","Relational, read only version C",SITE,LOCATION,Study1,S,48,24,Study,User,-,,Study/JOL,"Study Phase",3227,,,-1,-1,,,,1
5aaa7bde56c51000018cc7b5,7kzk9a67tv,"Deep vs Shallow",1,28,2020-07-08T14:14:08-07:00,5.4590899944305,3,versionC_stim.csv,RLVersionC.csv,"Realational Version C","Relational, read only version C",BAD,DELINQUENT,Study1,B,6,71,Study,User,-,,Study/JOL,"Study Phase",5002,,,-1,-1,,,,1
5aaa7bde56c51000018cc7b5,7kzk9a67tv,"Deep vs Shallow",1,29,2020-07-08T14:14:11-07:00,3.3543829917908,3,versionC_stim.csv,RLVersionC.csv,"Realational Version C","Relational, read only version C",SALAD,LETTUCE,Study1,S,59,85,Study,User,-,,Study/JOL,"Study Phase",2924,,,-1,-1,,,,1
5aaa7bde56c51000018cc7b5,7kzk9a67tv,"Deep vs Shallow",1,30,2020-07-08T14:14:14-07:00,3.2569279670715,3,versionC_stim.csv,RLVersionC.csv,"Realational Version C","Relational, read only version C",NEWS,EDITOR,Study1,B,10,84,Study,User,-,,Study/JOL,"Study Phase",2800,,,-1,-1,,,,1
5aaa7bde56c51000018cc7b5,7kzk9a67tv,"Deep vs Shallow",1,31,2020-07-08T14:14:17-07:00,2.4094231128693,3,versionC_stim.csv,RLVersionC.csv,"Realational Version C","Relational, read only version C",OUT,WAY,Study1,B,16,12,Study,User,-,,Study/JOL,"Study Phase",2038,,,-1,-1,,,,1
5aaa7bde56c51000018cc7b5,7kzk9a67tv,"Deep vs Shallow",1,32,2020-07-08T14:14:46-07:00,29.09264588356,3,versionC_stim.csv,RLVersionC.csv,"Realational Version C","Relational, read only version C",SIP,DRINK,Study1,F,27,35,Study,User,-,,Study/JOL,"Study Phase",10075,,,-1,-1,,,,0.912
5aaa7bde56c51000018cc7b5,7kzk9a67tv,"Deep vs Shallow",1,33,2020-07-08T14:14:53-07:00,7.1182310581207,3,versionC_stim.csv,RLVersionC.csv,"Realational Version C","Relational, read only version C",LIVER,KIDNEY,Study1,S,53,65,Study,User,-,,Study/JOL,"Study Phase",6711,,,-1,-1,,,,1
5aaa7bde56c51000018cc7b5,7kzk9a67tv,"Deep vs Shallow",1,34,2020-07-08T14:15:01-07:00,7.5217509269714,3,versionC_stim.csv,RLVersionC.csv,"Realational Version C","Relational, read only version C",HAND,FIX,Study1,U,75,34,Study,User,-,,Study/JOL,"Study Phase",7068,,,-1,-1,,,,1
5aaa7bde56c51000018cc7b5,7kzk9a67tv,"Deep vs Shallow",1,35,2020-07-08T14:15:09-07:00,8.8346149921417,3,versionC_stim.csv,RLVersionC.csv,"Realational Version C","Relational, read only version C",FLOOR,DISCOVER,Study1,U,71,77,Study,User,-,,Study/JOL,"Study Phase",8422,,,-1,-1,,,,1
5aaa7bde56c51000018cc7b5,7kzk9a67tv,"Deep vs Shallow",1,36,2020-07-08T14:15:14-07:00,4.677029132843,3,versionC_stim.csv,RLVersionC.csv,"Realational Version C","Relational, read only version C",STING,HORNET,Study1,B,11,86,Study,User,-,,Study/JOL,"Study Phase",4296,,,-1,-1,,,,1
5aaa7bde56c51000018cc7b5,7kzk9a67tv,"Deep vs Shallow",1,37,2020-07-08T14:15:30-07:00,16.316874027252,3,versionC_stim.csv,RLVersionC.csv,"Realational Version C","Relational, read only version C",SICK,HIDE,Study1,U,84,41,Study,User,-,,Study/JOL,"Study Phase",15882,,,-1,-1,,,,1
5aaa7bde56c51000018cc7b5,7kzk9a67tv,"Deep vs Shallow",1,38,2020-07-08T14:15:34-07:00,3.1337029933929,3,versionC_stim.csv,RLVersionC.csv,"Realational Version C","Relational, read only version C",CAVE,DARK,Study1,F,28,32,Study,User,-,,Study/JOL,"Study Phase",2752,,,-1,-1,,,,1
5aaa7bde56c51000018cc7b5,7kzk9a67tv,"Deep vs Shallow",1,39,2020-07-08T14:15:37-07:00,3.7922220230103,3,versionC_stim.csv,RLVersionC.csv,"Realational Version C","Relational, read only version C",CAR,HAPPY,Study1,U,77,40,Study,User,-,,Study/JOL,"Study Phase",3423,,,-1,-1,,,,1
5aaa7bde56c51000018cc7b5,7kzk9a67tv,"Deep vs Shallow",1,40,2020-07-08T14:15:40-07:00,3.0557429790497,3,versionC_stim.csv,RLVersionC.csv,"Realational Version C","Relational, read only version C",WATER,BRIDGE,Study1,B,18,81,Study,User,-,,Study/JOL,"Study Phase",2640,,,-1,-1,,,,1
5aaa7bde56c51000018cc7b5,7kzk9a67tv,"Deep vs Shallow",1,41,2020-07-08T14:15:45-07:00,4.6558628082275,3,versionC_stim.csv,RLVersionC.csv,"Realational Version C","Relational, read only version C",MONEY,WAGE,Study1,B,8,46,Study,User,-,,Study/JOL,"Study Phase",4219,,,-1,-1,,,,1
5aaa7bde56c51000018cc7b5,7kzk9a67tv,"Deep vs Shallow",1,42,2020-07-08T14:15:54-07:00,8.9264712333679,3,versionC_stim.csv,RLVersionC.csv,"Realational Version C","Relational, read only version C",TUCK,ALLOW,Study1,U,78,39,Study,User,-,,Study/JOL,"Study Phase",8540,,,-1,-1,,,,1
5aaa7bde56c51000018cc7b5,7kzk9a67tv,"Deep vs Shallow",1,43,2020-07-08T14:16:04-07:00,10.092246770859,3,versionC_stim.csv,RLVersionC.csv,"Realational Version C","Relational, read only version C",BUSINESS,DEATH,Study1,U,72,68,Study,User,-,,Study/JOL,"Study Phase",9707,,,-1,-1,,,,1
5aaa7bde56c51000018cc7b5,7kzk9a67tv,"Deep vs Shallow",1,44,2020-07-08T14:16:09-07:00,5.1954531669617,3,versionC_stim.csv,RLVersionC.csv,"Realational Version C","Relational, read only version C",,,,,,0,Instruct,-,3,"Remember to focus on how the two items are similiar while you study!",,CHECK2,4823,,,-1,-1,,,,1
5aaa7bde56c51000018cc7b5,7kzk9a67tv,"Deep vs Shallow",1,45,2020-07-08T14:16:14-07:00,4.9898149967194,3,versionC_stim.csv,RLVersionC.csv,"Realational Version C","Relational, read only version C",END,BEGIN,Study1,S,54,47,Study,User,-,,Study/JOL,"Study Phase",4543,,,-1,-1,,,,1
5aaa7bde56c51000018cc7b5,7kzk9a67tv,"Deep vs Shallow",1,46,2020-07-08T14:16:18-07:00,3.8775808811188,3,versionC_stim.csv,RLVersionC.csv,"Realational Version C","Relational, read only version C",RACKET,BALL,Study1,F,38,14,Study,User,-,,Study/JOL,"Study Phase",3497,,,-1,-1,,,,1
5aaa7bde56c51000018cc7b5,7kzk9a67tv,"Deep vs Shallow",1,47,2020-07-08T14:16:22-07:00,4.2043521404266,3,versionC_stim.csv,RLVersionC.csv,"Realational Version C","Relational, read only version C",BAR,GRILL,Study1,S,52,36,Study,User,-,,Study/JOL,"Study Phase",3825,,,-1,-1,,,,1
5aaa7bde56c51000018cc7b5,7kzk9a67tv,"Deep vs Shallow",1,48,2020-07-08T14:16:27-07:00,4.6597158908844,3,versionC_stim.csv,RLVersionC.csv,"Realational Version C","Relational, read only version C",CHORE,WORK,Study1,F,39,69,Study,User,-,,Study/JOL,"Study Phase",4184,,,-1,-1,,,,1
5aaa7bde56c51000018cc7b5,7kzk9a67tv,"Deep vs Shallow",1,49,2020-07-08T14:16:31-07:00,4.2457630634308,3,versionC_stim.csv,RLVersionC.csv,"Realational Version C","Relational, read only version C",FLOWER,ORCHID,Study1,B,24,9,Study,User,-,,Study/JOL,"Study Phase",3823,,,-1,-1,,,,1
5aaa7bde56c51000018cc7b5,7kzk9a67tv,"Deep vs Shallow",1,50,2020-07-08T14:16:42-07:00,10.308050870895,3,versionC_stim.csv,RLVersionC.csv,"Realational Version C","Relational, read only version C",WOMAN,LIFT,Study1,U,69,27,Study,User,-,,Study/JOL,"Study Phase",9928,,,-1,-1,,,,1
5aaa7bde56c51000018cc7b5,7kzk9a67tv,"Deep vs Shallow",1,51,2020-07-08T14:16:45-07:00,3.3667960166931,3,versionC_stim.csv,RLVersionC.csv,"Realational Version C","Relational, read only version C",DOG,PAW,Study1,B,15,58,Study,User,-,,Study/JOL,"Study Phase",2955,,,-1,-1,,,,1
5aaa7bde56c51000018cc7b5,7kzk9a67tv,"Deep vs Shallow",1,52,2020-07-08T14:16:50-07:00,4.6005680561066,3,versionC_stim.csv,RLVersionC.csv,"Realational Version C","Relational, read only version C",STOMACH,DIGESTION,Study1,B,7,48,Study,User,-,,Study/JOL,"Study Phase",4180,,,-1,-1,,,,1
5aaa7bde56c51000018cc7b5,7kzk9a67tv,"Deep vs Shallow",1,53,2020-07-08T14:16:55-07:00,5.3706970214844,3,versionC_stim.csv,RLVersionC.csv,"Realational Version C","Relational, read only version C",AMOUNT,NUMBER,Study1,S,47,50,Study,User,-,,Study/JOL,"Study Phase",4934,,,-1,-1,,,,1
5aaa7bde56c51000018cc7b5,7kzk9a67tv,"Deep vs Shallow",1,54,2020-07-08T14:17:00-07:00,4.9025530815125,3,versionC_stim.csv,RLVersionC.csv,"Realational Version C","Relational, read only version C",TALK,DISCUSSION,Study1,B,21,61,Study,User,-,,Study/JOL,"Study Phase",4513,,,-1,-1,,,,1
5aaa7bde56c51000018cc7b5,7kzk9a67tv,"Deep vs Shallow",1,55,2020-07-08T14:17:05-07:00,5.2539749145508,3,versionC_stim.csv,RLVersionC.csv,"Realational Version C","Relational, read only version C",COLD,BITTER,Study1,B,12,49,Study,User,-,,Study/JOL,"Study Phase",4864,,,-1,-1,,,,1
5aaa7bde56c51000018cc7b5,7kzk9a67tv,"Deep vs Shallow",1,56,2020-07-08T14:17:11-07:00,6.3694128990173,3,versionC_stim.csv,RLVersionC.csv,"Realational Version C","Relational, read only version C",FUTURE,PAST,Study1,S,61,79,Study,User,-,,Study/JOL,"Study Phase",5981,,,-1,-1,,,,1
5aaa7bde56c51000018cc7b5,7kzk9a67tv,"Deep vs Shallow",1,57,2020-07-08T14:17:20-07:00,8.9305701255798,3,versionC_stim.csv,RLVersionC.csv,"Realational Version C","Relational, read only version C",BELT,SOON,Study1,U,70,45,Study,User,-,,Study/JOL,"Study Phase",8564,,,-1,-1,,,,1
5aaa7bde56c51000018cc7b5,7kzk9a67tv,"Deep vs Shallow",1,58,2020-07-08T14:17:24-07:00,3.5932860374451,3,versionC_stim.csv,RLVersionC.csv,"Realational Version C","Relational, read only version C",BIRD,SWAN,Study1,B,14,60,Study,User,-,,Study/JOL,"Study Phase",3167,,,-1,-1,,,,1
5aaa7bde56c51000018cc7b5,7kzk9a67tv,"Deep vs Shallow",1,59,2020-07-08T14:17:28-07:00,3.7956788539886,3,versionC_stim.csv,RLVersionC.csv,"Realational Version C","Relational, read only version C",CLEAN,HYGIENE,Study1,B,17,51,Study,User,-,,Study/JOL,"Study Phase",3372,,,-1,-1,,,,1
5aaa7bde56c51000018cc7b5,7kzk9a67tv,"Deep vs Shallow",1,60,2020-07-08T14:17:33-07:00,4.9564020633698,3,versionC_stim.csv,RLVersionC.csv,"Realational Version C","Relational, read only version C",ROCK,GEOLOGY,Study1,B,19,57,Study,User,-,,Study/JOL,"Study Phase",4577,,,-1,-1,,,,1
5aaa7bde56c51000018cc7b5,7kzk9a67tv,"Deep vs Shallow",1,61,2020-07-08T14:17:37-07:00,4.1668379306793,3,versionC_stim.csv,RLVersionC.csv,"Realational Version C","Relational, read only version C",ATTORNEY,LAW,Study1,F,34,18,Study,User,-,,Study/JOL,"Study Phase",3795,,,-1,-1,,,,1
5aaa7bde56c51000018cc7b5,7kzk9a67tv,"Deep vs Shallow",1,62,2020-07-08T14:17:42-07:00,4.651358127594,3,versionC_stim.csv,RLVersionC.csv,"Realational Version C","Relational, read only version C",DROWSY,SLEEP,Study1,F,41,30,Study,User,-,,Study/JOL,"Study Phase",4246,,,-1,-1,,,,1
5aaa7bde56c51000018cc7b5,7kzk9a67tv,"Deep vs Shallow",1,63,2020-07-08T14:17:45-07:00,3.4894449710846,3,versionC_stim.csv,RLVersionC.csv,"Realational Version C","Relational, read only version C",CHEESE,WINE,Study1,S,57,22,Study,User,-,,Study/JOL,"Study Phase",3031,,,-1,-1,,,,1
5aaa7bde56c51000018cc7b5,7kzk9a67tv,"Deep vs Shallow",1,64,2020-07-08T14:17:51-07:00,6.0698049068451,3,versionC_stim.csv,RLVersionC.csv,"Realational Version C","Relational, read only version C",SEIZE,TAKE,Study1,F,29,82,Study,User,-,,Study/JOL,"Study Phase",5701,,,-1,-1,,,,1
5aaa7bde56c51000018cc7b5,7kzk9a67tv,"Deep vs Shallow",1,65,2020-07-08T14:17:54-07:00,3.3070390224457,3,versionC_stim.csv,RLVersionC.csv,"Realational Version C","Relational, read only version C",FISH,TUNA,Study1,B,25,31,Study,User,-,,Study/JOL,"Study Phase",2885,,,-1,-1,,,,1
5aaa7bde56c51000018cc7b5,7kzk9a67tv,"Deep vs Shallow",1,66,2020-07-08T14:18:13-07:00,18.470438957214,3,versionC_stim.csv,RLVersionC.csv,"Realational Version C","Relational, read only version C",BRONZE,ARTERY,Study1,U,74,76,Study,User,-,,Study/JOL,"Study Phase",18070,,,-1,-1,,,,1
5aaa7bde56c51000018cc7b5,7kzk9a67tv,"Deep vs Shallow",1,67,2020-07-08T14:18:17-07:00,4.3961720466614,3,versionC_stim.csv,RLVersionC.csv,"Realational Version C","Relational, read only version C",TOILET,BATHROOM,Study1,S,58,33,Study,User,-,,Study/JOL,"Study Phase",3937,,,-1,-1,,,,1
5aaa7bde56c51000018cc7b5,7kzk9a67tv,"Deep vs Shallow",1,68,2020-07-08T14:18:21-07:00,3.4690749645233,3,versionC_stim.csv,RLVersionC.csv,"Realational Version C","Relational, read only version C",ASSIGNMENT,DUE,Study1,S,46,8,Study,User,-,,Study/JOL,"Study Phase",3061,,,-1,-1,,,,1
5aaa7bde56c51000018cc7b5,7kzk9a67tv,"Deep vs Shallow",1,69,2020-07-08T14:18:24-07:00,3.3052191734314,3,versionC_stim.csv,RLVersionC.csv,"Realational Version C","Relational, read only version C",ATTIRE,CLOTHES,Study1,F,43,80,Study,User,-,,Study/JOL,"Study Phase",2945,,,-1,-1,,,,1
5aaa7bde56c51000018cc7b5,7kzk9a67tv,"Deep vs Shallow",1,70,2020-07-08T14:18:29-07:00,5.2280089855194,3,versionC_stim.csv,RLVersionC.csv,"Realational Version C","Relational, read only version C",POSITION,MACHINE,Study1,U,76,21,Study,User,-,,Study/JOL,"Study Phase",4869,,,-1,-1,,,,1
5aaa7bde56c51000018cc7b5,7kzk9a67tv,"Deep vs Shallow",1,71,2020-07-08T14:18:33-07:00,3.4696769714355,3,versionC_stim.csv,RLVersionC.csv,"Realational Version C","Relational, read only version C",HUNGRY,PARK,Study1,U,68,17,Study,User,-,,Study/JOL,"Study Phase",3026,,,-1,-1,,,,1
5aaa7bde56c51000018cc7b5,7kzk9a67tv,"Deep vs Shallow",1,72,2020-07-08T14:18:40-07:00,7.4425849914551,3,versionC_stim.csv,RLVersionC.csv,"Realational Version C","Relational, read only version C",LATCH,KEY,Study1,F,36,11,Study,User,-,,Study/JOL,"Study Phase",7070,,,-1,-1,,,,1
5aaa7bde56c51000018cc7b5,7kzk9a67tv,"Deep vs Shallow",1,73,2020-07-08T14:18:43-07:00,2.8653380870819,3,versionC_stim.csv,RLVersionC.csv,"Realational Version C","Relational, read only version C",BEE,HONEY,Study1,S,63,66,Study,User,-,,Study/JOL,"Study Phase",2469,,,-1,-1,,,,1
5aaa7bde56c51000018cc7b5,7kzk9a67tv,"Deep vs Shallow",1,74,2020-07-08T14:18:46-07:00,3.0729358196259,3,versionC_stim.csv,RLVersionC.csv,"Realational Version C","Relational, read only version C",STENCH,SMELL,Study1,F,42,56,Study,User,-,,Study/JOL,"Study Phase",2685,,,-1,-1,,,,1
5aaa7bde56c51000018cc7b5,7kzk9a67tv,"Deep vs Shallow",1,75,2020-07-08T14:18:50-07:00,3.5900521278381,3,versionC_stim.csv,RLVersionC.csv,"Realational Version C","Relational, read only version C",PILOT,PLANE,Study1,F,44,29,Study,User,-,,Study/JOL,"Study Phase",3196,,,-1,-1,,,,1
5aaa7bde56c51000018cc7b5,7kzk9a67tv,"Deep vs Shallow",1,76,2020-07-08T14:18:57-07:00,7.5413429737091,3,versionC_stim.csv,RLVersionC.csv,"Realational Version C","Relational, read only version C",DESIGN,ARCHITECTURE,Study1,S,51,74,Study,User,-,,Study/JOL,"Study Phase",7155,,,-1,-1,,,,1
5aaa7bde56c51000018cc7b5,7kzk9a67tv,"Deep vs Shallow",1,77,2020-07-08T14:19:06-07:00,8.7378349304199,3,versionC_stim.csv,RLVersionC.csv,"Realational Version C","Relational, read only version C",JURY,TRIAL,Study1,S,50,15,Study,User,-,,Study/JOL,"Study Phase",8320,,,-1,-1,,,,1
5aaa7bde56c51000018cc7b5,7kzk9a67tv,"Deep vs Shallow",1,78,2020-07-08T14:19:11-07:00,4.9645631313324,3,versionC_stim.csv,RLVersionC.csv,"Realational Version C","Relational, read only version C",FOOT,SHOE,Study1,S,60,25,Study,User,-,,Study/JOL,"Study Phase",3491,,,-1,-1,,,,1
5aaa7bde56c51000018cc7b5,7kzk9a67tv,"Deep vs Shallow",1,79,2020-07-08T14:19:14-07:00,3.5043098926544,3,versionC_stim.csv,RLVersionC.csv,"Realational Version C","Relational, read only version C",WASTE,DUMP,Study1,S,49,64,Study,User,-,,Study/JOL,"Study Phase",3055,,,-1,-1,,,,1
5aaa7bde56c51000018cc7b5,7kzk9a67tv,"Deep vs Shallow",1,80,2020-07-08T14:19:24-07:00,9.7654259204865,3,versionC_stim.csv,RLVersionC.csv,"Realational Version C","Relational, read only version C",SACKING,DIETARY,Study1,U,67,13,Study,User,-,,Study/JOL,"Study Phase",9350,,,-1,-1,,,,1
5aaa7bde56c51000018cc7b5,7kzk9a67tv,"Deep vs Shallow",1,81,2020-07-08T14:19:27-07:00,2.406524181366,3,versionC_stim.csv,RLVersionC.csv,"Realational Version C","Relational, read only version C",CHILD,BABY,Study1,S,64,73,Study,User,-,,Study/JOL,"Study Phase",2043,,,-1,-1,,,,1
5aaa7bde56c51000018cc7b5,7kzk9a67tv,"Deep vs Shallow",1,82,2020-07-08T14:19:31-07:00,4.4439568519592,3,versionC_stim.csv,RLVersionC.csv,"Realational Version C","Relational, read only version C",GROWTH,HEIGHT,Study1,F,30,78,Study,User,-,,Study/JOL,"Study Phase",4016,,,-1,-1,,,,1
5aaa7bde56c51000018cc7b5,7kzk9a67tv,"Deep vs Shallow",1,83,2020-07-08T14:19:39-07:00,8.3987729549408,3,versionC_stim.csv,RLVersionC.csv,"Realational Version C","Relational, read only version C",CLUTTER,PUSHER,Study1,U,66,10,Study,User,-,,Study/JOL,"Study Phase",8015,,,-1,-1,,,,1
5aaa7bde56c51000018cc7b5,7kzk9a67tv,"Deep vs Shallow",1,84,2020-07-08T14:19:42-07:00,2.4462871551514,3,versionC_stim.csv,RLVersionC.csv,"Realational Version C","Relational, read only version C",ROUND,CIRCLE,Study1,S,65,44,Study,User,-,,Study/JOL,"Study Phase",2064,,,-1,-1,,,,1
5aaa7bde56c51000018cc7b5,7kzk9a67tv,"Deep vs Shallow",1,85,2020-07-08T14:19:45-07:00,2.8466608524323,3,versionC_stim.csv,RLVersionC.csv,"Realational Version C","Relational, read only version C",COW,HERD,Study1,B,22,62,Study,User,-,,Study/JOL,"Study Phase",2484,,,-1,-1,,,,1
5aaa7bde56c51000018cc7b5,7kzk9a67tv,"Deep vs Shallow",1,86,2020-07-08T14:19:49-07:00,4.1418430805206,3,versionC_stim.csv,RLVersionC.csv,"Realational Version C","Relational, read only version C",SODA,POP,Study1,S,56,75,Study,User,-,,Study/JOL,"Study Phase",3725,,,-1,-1,,,,1
5aaa7bde56c51000018cc7b5,7kzk9a67tv,"Deep vs Shallow",1,87,2020-07-08T14:19:55-07:00,5.7323789596558,3,versionC_stim.csv,RLVersionC.csv,"Realational Version C","Relational, read only version C",DIVISION,MATH,Study1,F,33,19,Study,User,-,,Study/JOL,"Study Phase",5362,,,-1,-1,,,,1
5aaa7bde56c51000018cc7b5,7kzk9a67tv,"Deep vs Shallow",1,88,2020-07-08T14:20:02-07:00,7.0995810031891,3,versionC_stim.csv,RLVersionC.csv,"Realational Version C","Relational, read only version C",SIGHT,DEBATE,Study1,U,73,54,Study,User,-,,Study/JOL,"Study Phase",6622,,,-1,-1,,,,1
5aaa7bde56c51000018cc7b5,7kzk9a67tv,"Deep vs Shallow",1,89,2020-07-08T14:20:06-07:00,4.7161610126495,3,versionC_stim.csv,RLVersionC.csv,"Realational Version C","Relational, read only version C",BLAZE,FIRE,Study1,F,45,70,Study,User,-,,Study/JOL,"Study Phase",4339,,,-1,-1,,,,1
5aaa7bde56c51000018cc7b5,7kzk9a67tv,"Deep vs Shallow",1,90,2020-07-08T14:20:16-07:00,9.9678571224213,3,versionC_stim.csv,RLVersionC.csv,"Realational Version C","Relational, read only version C",WASP,BUG,Study1,F,32,43,Study,User,-,,Study/JOL,"Study Phase",9593,,,-1,-1,,,,1
5aaa7bde56c51000018cc7b5,7kzk9a67tv,"Deep vs Shallow",1,91,2020-07-08T14:20:24-07:00,8.0381498336792,3,versionC_stim.csv,RLVersionC.csv,"Realational Version C","Relational, read only version C",STUFF,THING,BUFFER2,Buffer,90,91,Study,User,-,,Study/JOL,BUFFER2,7673,,,-1,-1,,,,1
5aaa7bde56c51000018cc7b5,7kzk9a67tv,"Deep vs Shallow",1,92,2020-07-08T14:20:29-07:00,4.6984860897064,3,versionC_stim.csv,RLVersionC.csv,"Realational Version C","Relational, read only version C",POLICE,SHERRIF,BUFFER2,Buffer,87,90,Study,User,-,,Study/JOL,BUFFER2,4248,,,-1,-1,,,,1
5aaa7bde56c51000018cc7b5,7kzk9a67tv,"Deep vs Shallow",1,93,2020-07-08T14:20:42-07:00,12.911360025406,3,versionC_stim.csv,RLVersionC.csv,"Realational Version C","Relational, read only version C",CHOCOLATE,MALT,BUFFER2,Buffer,88,89,Study,User,-,,Study/JOL,BUFFER2,12444,,,-1,-1,,,,1
5aaa7bde56c51000018cc7b5,7kzk9a67tv,"Deep vs Shallow",1,94,2020-07-08T14:20:46-07:00,3.8760938644409,3,versionC_stim.csv,RLVersionC.csv,"Realational Version C","Relational, read only version C",SPACE,MOON,BUFFER2,Buffer,89,88,Study,User,-,,Study/JOL,BUFFER2,3425,,,-1,-1,,,,1
5aaa7bde56c51000018cc7b5,7kzk9a67tv,"Deep vs Shallow",1,95,2020-07-08T14:20:51-07:00,5.160471200943,3,versionC_stim.csv,RLVersionC.csv,"Realational Version C","Relational, read only version C",GOOSE,GEESE,BUFFER2,Buffer,86,87,Study,User,-,,Study/JOL,BUFFER2,4688,,,-1,-1,,,,1
5aaa7bde56c51000018cc7b5,7kzk9a67tv,"Deep vs Shallow",1,96,2020-07-08T14:20:56-07:00,4.5444538593292,3,versionC_stim.csv,RLVersionC.csv,"Realational Version C","Relational, read only version C",,,,,,0,Instruct,User,-,"You have completed this section. Please press Enter.",Filler_Instruction,Instruct2,4182,,,-1,-1,,,,1
5aaa7bde56c51000018cc7b5,7kzk9a67tv,"Deep vs Shallow",1,97,2020-07-08T14:21:04-07:00,7.9346671104431,3,versionC_stim.csv,RLVersionC.csv,"Realational Version C","Relational, read only version C",,,,,,0,Instruct,User,-,"You have completed this section. Please press Enter.",Filler_Instruction,Instruct5,7546,,,-1,-1,,,,1
5aaa7bde56c51000018cc7b5,7kzk9a67tv,"Deep vs Shallow",1,98,2020-07-08T14:21:31-07:00,27.025864839554,3,versionC_stim.csv,RLVersionC.csv,"Realational Version C","Relational, read only version C",,,,,,0,FreeRecall,-,10,"What were you supposed to focus on while you studied each pair? (Hint: Think back to the instructions). Type your answer in the space below.",,CHECK3,26661,"How the words were related to each other",0,4246,13813,0,0,,1
5aaa7bde56c51000018cc7b5,7kzk9a67tv,"Deep vs Shallow",1,99,2020-07-08T14:23:31-07:00,120.46434402466,3,versionC_stim.csv,RLVersionC.csv,"Realational Version C","Relational, read only version C",,,,,,0,FreeRecall,120,120,"Please list the 50 US states in alphabetical order. The task will automatically advance to the next screen after two minutes.",,Filler1,120003,"arkansas, atlanta, california, florida, georgia, miami, minnesota, ohio, texas, utah",0,15647,95956,0,0,,1
5aaa7bde56c51000018cc7b5,7kzk9a67tv,"Deep vs Shallow",1,100,2020-07-08T14:23:43-07:00,11.665892124176,3,versionC_stim.csv,RLVersionC.csv,"Realational Version C","Relational, read only version C",,,,,,0,Instruct,-,10,"You will now be presented with the first word from each of the previously studied item pairs. Please type the missing word. If you do not know the word, you may guess or press Enter to skip forward to the next pair.",,Instruct3,11293,,,-1,-1,,,,1
5aaa7bde56c51000018cc7b5,7kzk9a67tv,"Deep vs Shallow",1,101,2020-07-08T14:23:47-07:00,4.636214017868,3,versionC_stim.csv,RLVersionC.csv,"Realational Version C","Relational, read only version C",CHEESE,WINE,Study1,S,57,22,Test,User,-,,Recall,Recall1,4264,wine,100,1649,3167,1,1,,1
5aaa7bde56c51000018cc7b5,7kzk9a67tv,"Deep vs Shallow",1,102,2020-07-08T14:24:01-07:00,13.221685886383,3,versionC_stim.csv,RLVersionC.csv,"Realational Version C","Relational, read only version C",DESIGN,ARCHITECTURE,Study1,S,51,74,Test,User,-,,Recall,Recall1,12856,architecture,100,2059,5987,1,1,,1
5aaa7bde56c51000018cc7b5,7kzk9a67tv,"Deep vs Shallow",1,103,2020-07-08T14:24:05-07:00,4.905403137207,3,versionC_stim.csv,RLVersionC.csv,"Realational Version C","Relational, read only version C",FISH,TUNA,Study1,B,25,31,Test,User,-,,Recall,Recall1,4529,tuna,100,3464,3743,1,1,,1
5aaa7bde56c51000018cc7b5,7kzk9a67tv,"Deep vs Shallow",1,104,2020-07-08T14:24:09-07:00,3.1596789360046,3,versionC_stim.csv,RLVersionC.csv,"Realational Version C","Relational, read only version C",FOOT,SHOE,Study1,S,60,25,Test,User,-,,Recall,Recall1,2776,shoe,100,1315,2471,1,1,,1
5aaa7bde56c51000018cc7b5,7kzk9a67tv,"Deep vs Shallow",1,105,2020-07-08T14:24:11-07:00,2.6048500537872,3,versionC_stim.csv,RLVersionC.csv,"Realational Version C","Relational, read only version C",FUTURE,PAST,Study1,S,61,79,Test,User,-,,Recall,Recall1,2205,past,100,1644,2098,1,1,,1
5aaa7bde56c51000018cc7b5,7kzk9a67tv,"Deep vs Shallow",1,106,2020-07-08T14:24:24-07:00,12.621912002563,3,versionC_stim.csv,RLVersionC.csv,"Realational Version C","Relational, read only version C",CHILI,HOT,Study1,F,37,42,Test,User,-,,Recall,Recall1,4671,hot,100,1153,2497,1,1,,1
5aaa7bde56c51000018cc7b5,7kzk9a67tv,"Deep vs Shallow",1,107,2020-07-08T14:24:33-07:00,8.9655148983002,3,versionC_stim.csv,RLVersionC.csv,"Realational Version C","Relational, read only version C",OUT,WAY,Study1,B,16,12,Test,User,-,,Recall,Recall1,8533,way,100,4816,5100,1,1,,1
5aaa7bde56c51000018cc7b5,7kzk9a67tv,"Deep vs Shallow",1,108,2020-07-08T14:24:42-07:00,8.9249489307404,3,versionC_stim.csv,RLVersionC.csv,"Realational Version C","Relational, read only version C",SICK,HIDE,Study1,U,84,41,Test,User,-,,Recall,Recall1,8550,hide,100,5504,5860,1,1,,1
5aaa7bde56c51000018cc7b5,7kzk9a67tv,"Deep vs Shallow",1,109,2020-07-08T14:25:17-07:00,35.453495979309,3,versionC_stim.csv,RLVersionC.csv,"Realational Version C","Relational, read only version C",ADD,VALLEY,Study1,U,82,52,Test,User,-,,Recall,Recall1,35086,,0,-1,-1,0,0,,1
5aaa7bde56c51000018cc7b5,7kzk9a67tv,"Deep vs Shallow",1,110,2020-07-08T14:25:22-07:00,5.2076301574707,3,versionC_stim.csv,RLVersionC.csv,"Realational Version C","Relational, read only version C",SITE,LOCATION,Study1,S,48,24,Test,User,-,,Recall,Recall1,4768,location,100,2642,3556,1,1,,1
5aaa7bde56c51000018cc7b5,7kzk9a67tv,"Deep vs Shallow",1,111,2020-07-08T14:25:31-07:00,8.2496929168701,3,versionC_stim.csv,RLVersionC.csv,"Realational Version C","Relational, read only version C",HAND,FIX,Study1,U,75,34,Test,User,-,,Recall,Recall1,7797,fix,100,6651,7071,1,1,,1
5aaa7bde56c51000018cc7b5,7kzk9a67tv,"Deep vs Shallow",1,112,2020-07-08T14:25:35-07:00,4.3707871437073,3,versionC_stim.csv,RLVersionC.csv,"Realational Version C","Relational, read only version C",CHILD,BABY,Study1,S,64,73,Test,User,-,,Recall,Recall1,4002,baby,100,1784,2762,1,1,,1
5aaa7bde56c51000018cc7b5,7kzk9a67tv,"Deep vs Shallow",1,113,2020-07-08T14:25:46-07:00,11.295154809952,3,versionC_stim.csv,RLVersionC.csv,"Realational Version C","Relational, read only version C",TOILET,BATHROOM,Study1,S,58,33,Test,User,-,,Recall,Recall1,10923,,0,-1,-1,0,0,,1
5aaa7bde56c51000018cc7b5,7kzk9a67tv,"Deep vs Shallow",1,114,2020-07-08T14:26:06-07:00,20.155950069427,3,versionC_stim.csv,RLVersionC.csv,"Realational Version C","Relational, read only version C",SIGHT,DEBATE,Study1,U,73,54,Test,User,-,,Recall,Recall1,19787,,0,-1,-1,0,0,,1
5aaa7bde56c51000018cc7b5,7kzk9a67tv,"Deep vs Shallow",1,115,2020-07-08T14:26:14-07:00,7.4027969837189,3,versionC_stim.csv,RLVersionC.csv,"Realational Version C","Relational, read only version C",MONEY,WAGE,Study1,B,8,46,Test,User,-,,Recall,Recall1,6991,wage,100,2946,3884,1,1,,1
5aaa7bde56c51000018cc7b5,7kzk9a67tv,"Deep vs Shallow",1,116,2020-07-08T14:26:20-07:00,5.7714810371399,3,versionC_stim.csv,RLVersionC.csv,"Realational Version C","Relational, read only version C",VASE,KING,Study1,U,85,26,Test,User,-,,Recall,Recall1,5394,king,100,3667,3987,1,1,,1
5aaa7bde56c51000018cc7b5,7kzk9a67tv,"Deep vs Shallow",1,117,2020-07-08T14:26:32-07:00,11.909377098083,3,versionC_stim.csv,RLVersionC.csv,"Realational Version C","Relational, read only version C",STENCH,SMELL,Study1,F,42,56,Test,User,-,,Recall,Recall1,5553,smell,100,729,1316,1,1,,1
5aaa7bde56c51000018cc7b5,7kzk9a67tv,"Deep vs Shallow",1,118,2020-07-08T14:26:38-07:00,6.6282439231873,3,versionC_stim.csv,RLVersionC.csv,"Realational Version C","Relational, read only version C",STOMACH,DIGESTION,Study1,B,7,48,Test,User,-,,Recall,Recall1,6264,digestion,100,2843,4477,1,1,,1
5aaa7bde56c51000018cc7b5,7kzk9a67tv,"Deep vs Shallow",1,119,2020-07-08T14:26:46-07:00,7.6397080421448,3,versionC_stim.csv,RLVersionC.csv,"Realational Version C","Relational, read only version C",DEFINITION,MEANING,Study1,S,62,20,Test,User,-,,Recall,Recall1,7224,meaning,100,1743,2219,1,1,,1
5aaa7bde56c51000018cc7b5,7kzk9a67tv,"Deep vs Shallow",1,120,2020-07-08T14:26:51-07:00,5.4944260120392,3,versionC_stim.csv,RLVersionC.csv,"Realational Version C","Relational, read only version C",LIVER,KIDNEY,Study1,S,53,65,Test,User,-,,Recall,Recall1,5133,kidney,100,1993,3302,1,1,,1
5aaa7bde56c51000018cc7b5,7kzk9a67tv,"Deep vs Shallow",1,121,2020-07-08T14:27:07-07:00,15.219659805298,3,versionC_stim.csv,RLVersionC.csv,"Realational Version C","Relational, read only version C",SEIZE,TAKE,Study1,F,29,82,Test,User,-,,Recall,Recall1,14847,,0,-1,-1,0,0,,1
5aaa7bde56c51000018cc7b5,7kzk9a67tv,"Deep vs Shallow",1,122,2020-07-08T14:27:13-07:00,6.0270612239838,3,versionC_stim.csv,RLVersionC.csv,"Realational Version C","Relational, read only version C",RIDDLE,SUGAR,Study1,U,81,67,Test,User,-,,Recall,Recall1,5653,sugar,100,2024,2579,1,1,,1
5aaa7bde56c51000018cc7b5,7kzk9a67tv,"Deep vs Shallow",1,123,2020-07-08T14:27:22-07:00,9.1566648483276,3,versionC_stim.csv,RLVersionC.csv,"Realational Version C","Relational, read only version C",BRONZE,ARTERY,Study1,U,74,76,Test,User,-,,Recall,Recall1,8687,artery,100,1677,6141,1,1,,1
5aaa7bde56c51000018cc7b5,7kzk9a67tv,"Deep vs Shallow",1,124,2020-07-08T14:27:43-07:00,21.00331902504,3,versionC_stim.csv,RLVersionC.csv,"Realational Version C","Relational, read only version C",AMOUNT,NUMBER,Study1,S,47,50,Test,User,-,,Recall,Recall1,20630,number,100,15608,16217,1,1,,1
5aaa7bde56c51000018cc7b5,7kzk9a67tv,"Deep vs Shallow",1,125,2020-07-08T14:27:50-07:00,7.6676709651947,3,versionC_stim.csv,RLVersionC.csv,"Realational Version C","Relational, read only version C",FANTASTIC,GREAT,Study1,F,35,83,Test,User,-,,Recall,Recall1,7295,great,100,4801,5648,1,1,,1
5aaa7bde56c51000018cc7b5,7kzk9a67tv,"Deep vs Shallow",1,126,2020-07-08T14:27:55-07:00,5.0636169910431,3,versionC_stim.csv,RLVersionC.csv,"Realational Version C","Relational, read only version C",ATTIRE,CLOTHES,Study1,F,43,80,Test,User,-,,Recall,Recall1,4631,clothes,100,1742,2598,1,1,,1
5aaa7bde56c51000018cc7b5,7kzk9a67tv,"Deep vs Shallow",1,127,2020-07-08T14:28:21-07:00,25.535948991776,3,versionC_stim.csv,RLVersionC.csv,"Realational Version C","Relational, read only version C",TUCK,ALLOW,Study1,U,78,39,Test,User,-,,Recall,Recall1,25152,,0,-1,-1,0,0,,1
5aaa7bde56c51000018cc7b5,7kzk9a67tv,"Deep vs Shallow",1,128,2020-07-08T14:28:32-07:00,10.882665157318,3,versionC_stim.csv,RLVersionC.csv,"Realational Version C","Relational, read only version C",TALK,DISCUSSION,Study1,B,21,61,Test,User,-,,Recall,Recall1,10434,,0,-1,-1,0,0,,1
5aaa7bde56c51000018cc7b5,7kzk9a67tv,"Deep vs Shallow",1,129,2020-07-08T14:28:44-07:00,12.576277017593,3,versionC_stim.csv,RLVersionC.csv,"Realational Version C","Relational, read only version C",FLOOR,DISCOVER,Study1,U,71,77,Test,User,-,,Recall,Recall1,12213,discover,100,11144,11893,1,1,,1
5aaa7bde56c51000018cc7b5,7kzk9a67tv,"Deep vs Shallow",1,130,2020-07-08T14:28:51-07:00,6.4294798374176,3,versionC_stim.csv,RLVersionC.csv,"Realational Version C","Relational, read only version C",BAD,DELINQUENT,Study1,B,6,71,Test,User,-,,Recall,Recall1,6062,delinquent,100,4134,5353,1,1,,1
5aaa7bde56c51000018cc7b5,7kzk9a67tv,"Deep vs Shallow",1,131,2020-07-08T14:29:01-07:00,10.217174053192,3,versionC_stim.csv,RLVersionC.csv,"Realational Version C","Relational, read only version C",POSITION,MACHINE,Study1,U,76,21,Test,User,-,,Recall,Recall1,9845,,0,-1,-1,0,0,,1
5aaa7bde56c51000018cc7b5,7kzk9a67tv,"Deep vs Shallow",1,132,2020-07-08T14:29:04-07:00,2.8855540752411,3,versionC_stim.csv,RLVersionC.csv,"Realational Version C","Relational, read only version C",CAVE,DARK,Study1,F,28,32,Test,User,-,,Recall,Recall1,2504,dark,100,1487,1801,1,1,,1
5aaa7bde56c51000018cc7b5,7kzk9a67tv,"Deep vs Shallow",1,133,2020-07-08T14:29:10-07:00,6.3776199817657,3,versionC_stim.csv,RLVersionC.csv,"Realational Version C","Relational, read only version C",ROCK,GEOLOGY,Study1,B,19,57,Test,User,-,,Recall,Recall1,5804,geology,100,3545,4263,1,1,,1
5aaa7bde56c51000018cc7b5,7kzk9a67tv,"Deep vs Shallow",1,134,2020-07-08T14:29:17-07:00,7.0599749088287,3,versionC_stim.csv,RLVersionC.csv,"Realational Version C","Relational, read only version C",HUNGRY,PARK,Study1,U,68,17,Test,User,-,,Recall,Recall1,6634,park,100,4006,4309,1,1,,1
5aaa7bde56c51000018cc7b5,7kzk9a67tv,"Deep vs Shallow",1,135,2020-07-08T14:29:25-07:00,7.4756419658661,3,versionC_stim.csv,RLVersionC.csv,"Realational Version C","Relational, read only version C",WAR,REVOLUTION,Study1,B,20,72,Test,User,-,,Recall,Recall1,7108,revolution,100,2849,4825,1,1,,1
5aaa7bde56c51000018cc7b5,7kzk9a67tv,"Deep vs Shallow",1,136,2020-07-08T14:29:38-07:00,12.890530109406,3,versionC_stim.csv,RLVersionC.csv,"Realational Version C","Relational, read only version C",DROWSY,SLEEP,Study1,F,41,30,Test,User,-,,Recall,Recall1,12509,sleep,100,6029,6907,1,1,,1
5aaa7bde56c51000018cc7b5,7kzk9a67tv,"Deep vs Shallow",1,137,2020-07-08T14:29:52-07:00,14.41339302063,3,versionC_stim.csv,RLVersionC.csv,"Realational Version C","Relational, read only version C",ACCIDENT,STRONG,Study1,U,80,55,Test,User,-,,Recall,Recall1,14042,strong,100,3119,4209,1,1,,1
5aaa7bde56c51000018cc7b5,7kzk9a67tv,"Deep vs Shallow",1,138,2020-07-08T14:30:03-07:00,10.672749042511,3,versionC_stim.csv,RLVersionC.csv,"Realational Version C","Relational, read only version C",DIVISION,MATH,Study1,F,33,19,Test,User,-,,Recall,Recall1,10177,maths,88.888888888889,3354,8253,0,1,,1
5aaa7bde56c51000018cc7b5,7kzk9a67tv,"Deep vs Shallow",1,139,2020-07-08T14:30:07-07:00,3.7284579277039,3,versionC_stim.csv,RLVersionC.csv,"Realational Version C","Relational, read only version C",JURY,TRIAL,Study1,S,50,15,Test,User,-,,Recall,Recall1,3353,trial,100,1417,1909,1,1,,1
5aaa7bde56c51000018cc7b5,7kzk9a67tv,"Deep vs Shallow",1,140,2020-07-08T14:30:15-07:00,8.6125519275665,3,versionC_stim.csv,RLVersionC.csv,"Realational Version C","Relational, read only version C",NEWS,EDITOR,Study1,B,10,84,Test,User,-,,Recall,Recall1,8241,editor,100,5072,5860,1,1,,1
5aaa7bde56c51000018cc7b5,7kzk9a67tv,"Deep vs Shallow",1,141,2020-07-08T14:30:19-07:00,3.5334010124207,3,versionC_stim.csv,RLVersionC.csv,"Realational Version C","Relational, read only version C",ROUND,CIRCLE,Study1,S,65,44,Test,User,-,,Recall,Recall1,3119,circle,100,1684,2295,1,1,,1
5aaa7bde56c51000018cc7b5,7kzk9a67tv,"Deep vs Shallow",1,142,2020-07-08T14:30:30-07:00,11.476511955261,3,versionC_stim.csv,RLVersionC.csv,"Realational Version C","Relational, read only version C",WOULD,CASH,Study1,U,83,23,Test,User,-,,Recall,Recall1,11103,,0,-1,-1,0,0,,1
5aaa7bde56c51000018cc7b5,7kzk9a67tv,"Deep vs Shallow",1,143,2020-07-08T14:30:37-07:00,6.3077821731567,3,versionC_stim.csv,RLVersionC.csv,"Realational Version C","Relational, read only version C",HAMMER,CHISEL,Study1,B,9,7,Test,User,-,,Recall,Recall1,5934,chisel,100,2719,3872,1,1,,1
5aaa7bde56c51000018cc7b5,7kzk9a67tv,"Deep vs Shallow",1,144,2020-07-08T14:30:55-07:00,18.218709945679,3,versionC_stim.csv,RLVersionC.csv,"Realational Version C","Relational, read only version C",ASSIGNMENT,DUE,Study1,S,46,8,Test,User,-,,Recall,Recall1,17845,,0,-1,-1,0,0,,1
5aaa7bde56c51000018cc7b5,7kzk9a67tv,"Deep vs Shallow",1,145,2020-07-08T14:30:59-07:00,3.8371160030365,3,versionC_stim.csv,RLVersionC.csv,"Realational Version C","Relational, read only version C",SODA,POP,Study1,S,56,75,Test,User,-,,Recall,Recall1,3444,pop,100,1742,2075,1,1,,1
5aaa7bde56c51000018cc7b5,7kzk9a67tv,"Deep vs Shallow",1,146,2020-07-08T14:31:03-07:00,3.9965019226074,3,versionC_stim.csv,RLVersionC.csv,"Realational Version C","Relational, read only version C",ATTORNEY,LAW,Study1,F,34,18,Test,User,-,,Recall,Recall1,3635,law,100,1007,1305,1,1,,1
5aaa7bde56c51000018cc7b5,7kzk9a67tv,"Deep vs Shallow",1,147,2020-07-08T14:31:08-07:00,5.8072581291199,3,versionC_stim.csv,RLVersionC.csv,"Realational Version C","Relational, read only version C",BLAZE,FIRE,Study1,F,45,70,Test,User,-,,Recall,Recall1,5432,fire,100,1623,1889,1,1,,1
5aaa7bde56c51000018cc7b5,7kzk9a67tv,"Deep vs Shallow",1,148,2020-07-08T14:31:13-07:00,4.7803938388824,3,versionC_stim.csv,RLVersionC.csv,"Realational Version C","Relational, read only version C",CARD,CREDIT,Study1,B,23,59,Test,User,-,,Recall,Recall1,4388,credit,100,1312,1966,1,1,,1
5aaa7bde56c51000018cc7b5,7kzk9a67tv,"Deep vs Shallow",1,149,2020-07-08T14:31:17-07:00,3.7703990936279,3,versionC_stim.csv,RLVersionC.csv,"Realational Version C","Relational, read only version C",DOG,PAW,Study1,B,15,58,Test,User,-,,Recall,Recall1,3399,paw,100,1701,1970,1,1,,1
5aaa7bde56c51000018cc7b5,7kzk9a67tv,"Deep vs Shallow",1,150,2020-07-08T14:31:21-07:00,4.4753360748291,3,versionC_stim.csv,RLVersionC.csv,"Realational Version C","Relational, read only version C",STING,HORNET,Study1,B,11,86,Test,User,-,,Recall,Recall1,4105,hornet,100,1372,2841,1,1,,1
5aaa7bde56c51000018cc7b5,7kzk9a67tv,"Deep vs Shallow",1,151,2020-07-08T14:31:31-07:00,9.1338880062103,3,versionC_stim.csv,RLVersionC.csv,"Realational Version C","Relational, read only version C",RACKET,BALL,Study1,F,38,14,Test,User,-,,Recall,Recall1,8769,ball,100,3451,5312,1,1,,1
5aaa7bde56c51000018cc7b5,7kzk9a67tv,"Deep vs Shallow",1,152,2020-07-08T14:31:41-07:00,10.777839899063,3,versionC_stim.csv,RLVersionC.csv,"Realational Version C","Relational, read only version C",WIND,BLOW,Study1,S,55,53,Test,User,-,,Recall,Recall1,10412,blow,100,2175,2597,1,1,,1
5aaa7bde56c51000018cc7b5,7kzk9a67tv,"Deep vs Shallow",1,153,2020-07-08T14:31:55-07:00,13.359803915024,3,versionC_stim.csv,RLVersionC.csv,"Realational Version C","Relational, read only version C",END,BEGIN,Study1,S,54,47,Test,User,-,,Recall,Recall1,12981,,0,9652,10120,0,0,,1
5aaa7bde56c51000018cc7b5,7kzk9a67tv,"Deep vs Shallow",1,154,2020-07-08T14:32:01-07:00,6.4097321033478,3,versionC_stim.csv,RLVersionC.csv,"Realational Version C","Relational, read only version C",FLOWER,ORCHID,Study1,B,24,9,Test,User,-,,Recall,Recall1,6036,orchid,100,3717,4185,1,1,,1
5aaa7bde56c51000018cc7b5,7kzk9a67tv,"Deep vs Shallow",1,155,2020-07-08T14:32:12-07:00,10.493675947189,3,versionC_stim.csv,RLVersionC.csv,"Realational Version C","Relational, read only version C",CLEAN,HYGIENE,Study1,B,17,51,Test,User,-,,Recall,Recall1,10130,,0,-1,-1,0,0,,1
5aaa7bde56c51000018cc7b5,7kzk9a67tv,"Deep vs Shallow",1,156,2020-07-08T14:32:16-07:00,4.6627049446106,3,versionC_stim.csv,RLVersionC.csv,"Realational Version C","Relational, read only version C",COLD,BITTER,Study1,B,12,49,Test,User,-,,Recall,Recall1,4289,bitter,100,2386,2900,1,1,,1
5aaa7bde56c51000018cc7b5,7kzk9a67tv,"Deep vs Shallow",1,157,2020-07-08T14:32:38-07:00,21.792052984238,3,versionC_stim.csv,RLVersionC.csv,"Realational Version C","Relational, read only version C",SACKING,DIETARY,Study1,U,67,13,Test,User,-,,Recall,Recall1,21420,,0,-1,-1,0,0,,1
5aaa7bde56c51000018cc7b5,7kzk9a67tv,"Deep vs Shallow",1,158,2020-07-08T14:32:44-07:00,5.9372341632843,3,versionC_stim.csv,RLVersionC.csv,"Realational Version C","Relational, read only version C",WORD,SENTENCE,Study1,F,31,38,Test,User,-,,Recall,Recall1,5563,sentence,100,2802,4382,1,1,,1
5aaa7bde56c51000018cc7b5,7kzk9a67tv,"Deep vs Shallow",1,159,2020-07-08T14:32:55-07:00,11.099442005157,3,versionC_stim.csv,RLVersionC.csv,"Realational Version C","Relational, read only version C",BELT,SOON,Study1,U,70,45,Test,User,-,,Recall,Recall1,10715,soon,100,8498,9396,1,1,,1
5aaa7bde56c51000018cc7b5,7kzk9a67tv,"Deep vs Shallow",1,160,2020-07-08T14:33:06-07:00,10.491194009781,3,versionC_stim.csv,RLVersionC.csv,"Realational Version C","Relational, read only version C",WATER,BRIDGE,Study1,B,18,81,Test,User,-,,Recall,Recall1,10126,cold,20,3463,9853,0,0,,1
5aaa7bde56c51000018cc7b5,7kzk9a67tv,"Deep vs Shallow",1,161,2020-07-08T14:33:11-07:00,5.1930758953094,3,versionC_stim.csv,RLVersionC.csv,"Realational Version C","Relational, read only version C",ENOUGH,FULL,Study1,F,26,37,Test,User,-,,Recall,Recall1,4819,full,100,2723,3380,1,1,,1
5aaa7bde56c51000018cc7b5,7kzk9a67tv,"Deep vs Shallow",1,162,2020-07-08T14:33:17-07:00,6.472706079483,3,versionC_stim.csv,RLVersionC.csv,"Realational Version C","Relational, read only version C",FAMINE,HUNGER,Study1,F,40,16,Test,User,-,,Recall,Recall1,6088,hunger,100,2011,4837,1,1,,1
5aaa7bde56c51000018cc7b5,7kzk9a67tv,"Deep vs Shallow",1,163,2020-07-08T14:33:29-07:00,11.471151828766,3,versionC_stim.csv,RLVersionC.csv,"Realational Version C","Relational, read only version C",CAR,HAPPY,Study1,U,77,40,Test,User,-,,Recall,Recall1,10095,,0,-1,-1,0,0,,1
5aaa7bde56c51000018cc7b5,7kzk9a67tv,"Deep vs Shallow",1,164,2020-07-08T14:34:04-07:00,34.870997190475,3,versionC_stim.csv,RLVersionC.csv,"Realational Version C","Relational, read only version C",WASP,BUG,Study1,F,32,43,Test,User,-,,Recall,Recall1,33408,,0,-1,-1,0,0,,1
5aaa7bde56c51000018cc7b5,7kzk9a67tv,"Deep vs Shallow",1,165,2020-07-08T14:34:19-07:00,15.618753910065,3,versionC_stim.csv,RLVersionC.csv,"Realational Version C","Relational, read only version C",LION,ART,Study1,U,79,28,Test,User,-,,Recall,Recall1,15208,art,100,14442,15045,1,1,,1
5aaa7bde56c51000018cc7b5,7kzk9a67tv,"Deep vs Shallow",1,166,2020-07-08T14:34:30-07:00,10.708724975586,3,versionC_stim.csv,RLVersionC.csv,"Realational Version C","Relational, read only version C",BUSINESS,DEATH,Study1,U,72,68,Test,User,-,,Recall,Recall1,10320,death,100,6181,6747,1,1,,1
5aaa7bde56c51000018cc7b5,7kzk9a67tv,"Deep vs Shallow",1,167,2020-07-08T14:34:37-07:00,7.1616089344025,3,versionC_stim.csv,RLVersionC.csv,"Realational Version C","Relational, read only version C",BAR,GRILL,Study1,S,52,36,Test,User,-,,Recall,Recall1,6786,grill,100,3125,3843,1,1,,1
5aaa7bde56c51000018cc7b5,7kzk9a67tv,"Deep vs Shallow",1,168,2020-07-08T14:34:41-07:00,3.8251180648804,3,versionC_stim.csv,RLVersionC.csv,"Realational Version C","Relational, read only version C",GROWTH,HEIGHT,Study1,F,30,78,Test,User,-,,Recall,Recall1,3454,height,100,1122,2611,1,1,,1
5aaa7bde56c51000018cc7b5,7kzk9a67tv,"Deep vs Shallow",1,169,2020-07-08T14:34:53-07:00,11.658941030502,3,versionC_stim.csv,RLVersionC.csv,"Realational Version C","Relational, read only version C",SIP,DRINK,Study1,F,27,35,Test,User,-,,Recall,Recall1,11281,drink,100,9812,10266,1,1,,1
5aaa7bde56c51000018cc7b5,7kzk9a67tv,"Deep vs Shallow",1,170,2020-07-08T14:35:03-07:00,9.9832520484924,3,versionC_stim.csv,RLVersionC.csv,"Realational Version C","Relational, read only version C",WASTE,DUMP,Study1,S,49,64,Test,User,-,,Recall,Recall1,9609,,0,-1,-1,0,0,,1
5aaa7bde56c51000018cc7b5,7kzk9a67tv,"Deep vs Shallow",1,171,2020-07-08T14:35:30-07:00,27.828310966492,3,versionC_stim.csv,RLVersionC.csv,"Realational Version C","Relational, read only version C",CLUTTER,PUSHER,Study1,U,66,10,Test,User,-,,Recall,Recall1,27426,,0,-1,-1,0,0,,1
5aaa7bde56c51000018cc7b5,7kzk9a67tv,"Deep vs Shallow",1,172,2020-07-08T14:35:41-07:00,10.926606893539,3,versionC_stim.csv,RLVersionC.csv,"Realational Version C","Relational, read only version C",CHORE,WORK,Study1,F,39,69,Test,User,-,,Recall,Recall1,10550,cleaning,0,8800,9747,0,0,,1
5aaa7bde56c51000018cc7b5,7kzk9a67tv,"Deep vs Shallow",1,173,2020-07-08T14:35:46-07:00,4.3776881694794,3,versionC_stim.csv,RLVersionC.csv,"Realational Version C","Relational, read only version C",COW,HERD,Study1,B,22,62,Test,User,-,,Recall,Recall1,3994,herd,100,3397,3748,1,1,,1
5aaa7bde56c51000018cc7b5,7kzk9a67tv,"Deep vs Shallow",1,174,2020-07-08T14:35:49-07:00,3.7439188957214,3,versionC_stim.csv,RLVersionC.csv,"Realational Version C","Relational, read only version C",SALAD,LETTUCE,Study1,S,59,85,Test,User,-,,Recall,Recall1,3352,lettuce,100,2098,2794,1,1,,1
5aaa7bde56c51000018cc7b5,7kzk9a67tv,"Deep vs Shallow",1,175,2020-07-08T14:35:57-07:00,7.804801940918,3,versionC_stim.csv,RLVersionC.csv,"Realational Version C","Relational, read only version C",WOMAN,LIFT,Study1,U,69,27,Test,User,-,,Recall,Recall1,7437,,0,-1,-1,0,0,,1
5aaa7bde56c51000018cc7b5,7kzk9a67tv,"Deep vs Shallow",1,176,2020-07-08T14:36:00-07:00,3.0444672107697,3,versionC_stim.csv,RLVersionC.csv,"Realational Version C","Relational, read only version C",BEE,HONEY,Study1,S,63,66,Test,User,-,,Recall,Recall1,2676,honey,100,971,1416,1,1,,1
5aaa7bde56c51000018cc7b5,7kzk9a67tv,"Deep vs Shallow",1,177,2020-07-08T14:36:04-07:00,3.3530027866364,3,versionC_stim.csv,RLVersionC.csv,"Realational Version C","Relational, read only version C",PILOT,PLANE,Study1,F,44,29,Test,User,-,,Recall,Recall1,2987,plane,100,1276,1599,1,1,,1
5aaa7bde56c51000018cc7b5,7kzk9a67tv,"Deep vs Shallow",1,178,2020-07-08T14:36:09-07:00,5.331207036972,3,versionC_stim.csv,RLVersionC.csv,"Realational Version C","Relational, read only version C",BIRD,SWAN,Study1,B,14,60,Test,User,-,,Recall,Recall1,4960,swan,100,2807,3190,1,1,,1
5aaa7bde56c51000018cc7b5,7kzk9a67tv,"Deep vs Shallow",1,179,2020-07-08T14:36:31-07:00,22.46871304512,3,versionC_stim.csv,RLVersionC.csv,"Realational Version C","Relational, read only version C",PLANT,ROOT,Study1,B,13,63,Test,User,-,,Recall,Recall1,22072,roots,88.888888888889,20710,21106,0,1,,1
5aaa7bde56c51000018cc7b5,7kzk9a67tv,"Deep vs Shallow",1,180,2020-07-08T14:36:34-07:00,3.0438148975372,3,versionC_stim.csv,RLVersionC.csv,"Realational Version C","Relational, read only version C",LATCH,KEY,Study1,F,36,11,Test,User,-,,Recall,Recall1,2645,key,100,1330,1584,1,1,,1
5aaa7bde56c51000018cc7b5,7kzk9a67tv,"Deep vs Shallow",1,181,2020-07-08T14:36:49-07:00,14.70800614357,3,versionC_stim.csv,RLVersionC.csv,"Realational Version C","Relational, read only version C",,,,,,0,Instruct,,10,"You will now be presented with a new set of word pairs. Please study each pair. Remember that your memory will be tested! When finished, press Enter to move to the next pair.",Initial_Instruct,Instruct4,14328,,,-1,-1,,,,0.986
5aaa7bde56c51000018cc7b5,7kzk9a67tv,"Deep vs Shallow",1,182,2020-07-08T14:37:29-07:00,39.550217866898,3,versionC_stim.csv,RLVersionC.csv,"Realational Version C","Relational, read only version C",,,,,,0,Instruct,-,15,"As you study, please think about how the two concepts are RELATED to each other. For example, if you see the pair TURTLE-CAT, think about how both are alive, they are both animals, and both can be kept as pets.",,Instruct20,39181,,,-1,-1,,,,0.413
5aaa7bde56c51000018cc7b5,7kzk9a67tv,"Deep vs Shallow",1,183,2020-07-08T14:37:47-07:00,18.558660030365,3,versionC_stim.csv,RLVersionC.csv,"Realational Version C","Relational, read only version C",,,,,,0,FreeRecall,-,10,"What you should think about as you study each item pair? Type your response in the box below.",,CHECK4,18090,"How they are related to each other",0,2223,14519,0,0,,1
5aaa7bde56c51000018cc7b5,7kzk9a67tv,"Deep vs Shallow",1,184,2020-07-08T14:37:49-07:00,1.7550091743469,3,versionC_stim.csv,RLVersionC.csv,"Realational Version C","Relational, read only version C",,,,,,0,Instruct,User,-,"Press Enter when you are readty to begin",,Instruct11,1463,,,-1,-1,,,,1
5aaa7bde56c51000018cc7b5,7kzk9a67tv,"Deep vs Shallow",1,185,2020-07-08T14:37:55-07:00,5.7530248165131,3,versionC_stim.csv,RLVersionC.csv,"Realational Version C","Relational, read only version C",FROZEN,ICE,BUFFER3,Buffer,94,94,Study,User,-,,Study/JOL,BUFFER3,5370,,,-1,-1,,,,1
5aaa7bde56c51000018cc7b5,7kzk9a67tv,"Deep vs Shallow",1,186,2020-07-08T14:38:26-07:00,30.805623054504,3,versionC_stim.csv,RLVersionC.csv,"Realational Version C","Relational, read only version C",FISH,SHRIMP,BUFFER3,Buffer,93,93,Study,User,-,,Study/JOL,BUFFER3,30429,,,-1,-1,,,,0.973
5aaa7bde56c51000018cc7b5,7kzk9a67tv,"Deep vs Shallow",1,187,2020-07-08T14:38:33-07:00,7.1955490112305,3,versionC_stim.csv,RLVersionC.csv,"Realational Version C","Relational, read only version C",STRING,NOODLE,BUFFER3,Buffer,92,95,Study,User,-,,Study/JOL,BUFFER3,6816,,,-1,-1,,,,1
5aaa7bde56c51000018cc7b5,7kzk9a67tv,"Deep vs Shallow",1,188,2020-07-08T14:38:38-07:00,5.0831370353699,3,versionC_stim.csv,RLVersionC.csv,"Realational Version C","Relational, read only version C",POTATO,CARROT,BUFFER3,Buffer,91,92,Study,User,-,,Study/JOL,BUFFER3,4686,,,-1,-1,,,,1
5aaa7bde56c51000018cc7b5,7kzk9a67tv,"Deep vs Shallow",1,189,2020-07-08T14:38:43-07:00,5.3603909015656,3,versionC_stim.csv,RLVersionC.csv,"Realational Version C","Relational, read only version C",ADVENTURE,CAMP,BUFFER3,Buffer,95,96,Study,User,-,,Study/JOL,BUFFER3,4978,,,-1,-1,,,,1
5aaa7bde56c51000018cc7b5,7kzk9a67tv,"Deep vs Shallow",1,190,2020-07-08T14:38:49-07:00,5.4469060897827,3,versionC_stim.csv,RLVersionC.csv,"Realational Version C","Relational, read only version C",BRAWL,FIGHT,Study2,F,135,130,Study,User,-,,Study/JOL,"Study Phase2",5073,,,-1,-1,,,,1
5aaa7bde56c51000018cc7b5,7kzk9a67tv,"Deep vs Shallow",1,191,2020-07-08T14:38:51-07:00,2.690661907196,3,versionC_stim.csv,RLVersionC.csv,"Realational Version C","Relational, read only version C",TRUTHFUL,HONEST,Study2,F,133,97,Study,User,-,,Study/JOL,"Study Phase2",2315,,,-1,-1,,,,1
5aaa7bde56c51000018cc7b5,7kzk9a67tv,"Deep vs Shallow",1,192,2020-07-08T14:38:55-07:00,3.6000390052795,3,versionC_stim.csv,RLVersionC.csv,"Realational Version C","Relational, read only version C",CAR,DRIVER,Study2,B,106,161,Study,User,-,,Study/JOL,"Study Phase2",3222,,,-1,-1,,,,1
5aaa7bde56c51000018cc7b5,7kzk9a67tv,"Deep vs Shallow",1,193,2020-07-08T14:38:58-07:00,3.10285115242,3,versionC_stim.csv,RLVersionC.csv,"Realational Version C","Relational, read only version C",TIE,SHOELACE,Study2,B,99,168,Study,User,-,,Study/JOL,"Study Phase2",2719,,,-1,-1,,,,1
5aaa7bde56c51000018cc7b5,7kzk9a67tv,"Deep vs Shallow",1,194,2020-07-08T14:39:01-07:00,3.1889169216156,3,versionC_stim.csv,RLVersionC.csv,"Realational Version C","Relational, read only version C",SARDINE,FISH,Study2,F,130,171,Study,User,-,,Study/JOL,"Study Phase2",2815,,,-1,-1,,,,1
5aaa7bde56c51000018cc7b5,7kzk9a67tv,"Deep vs Shallow",1,195,2020-07-08T14:39:05-07:00,3.941545009613,3,versionC_stim.csv,RLVersionC.csv,"Realational Version C","Relational, read only version C",DOG,FURRY,Study2,B,102,114,Study,User,-,,Study/JOL,"Study Phase2",3561,,,-1,-1,,,,1
5aaa7bde56c51000018cc7b5,7kzk9a67tv,"Deep vs Shallow",1,196,2020-07-08T14:39:18-07:00,12.275861024857,3,versionC_stim.csv,RLVersionC.csv,"Realational Version C","Relational, read only version C",SIGN,LOAN,Study2,U,171,164,Study,User,-,,Study/JOL,"Study Phase2",11897,,,-1,-1,,,,1
5aaa7bde56c51000018cc7b5,7kzk9a67tv,"Deep vs Shallow",1,197,2020-07-08T14:39:20-07:00,2.628014087677,3,versionC_stim.csv,RLVersionC.csv,"Realational Version C","Relational, read only version C",NOISE,LOUD,Study2,S,152,111,Study,User,-,,Study/JOL,"Study Phase2",2250,,,-1,-1,,,,1
5aaa7bde56c51000018cc7b5,7kzk9a67tv,"Deep vs Shallow",1,198,2020-07-08T14:39:22-07:00,1.8488478660583,3,versionC_stim.csv,RLVersionC.csv,"Realational Version C","Relational, read only version C",STRAWBERRY,FRUIT,Study2,F,124,176,Study,User,-,,Study/JOL,"Study Phase2",1552,,,-1,-1,,,,1
5aaa7bde56c51000018cc7b5,7kzk9a67tv,"Deep vs Shallow",1,199,2020-07-08T14:39:31-07:00,8.9223139286041,3,versionC_stim.csv,RLVersionC.csv,"Realational Version C","Relational, read only version C",FIGHT,FEUD,Study2,B,113,153,Study,User,-,,Study/JOL,"Study Phase2",8423,,,-1,-1,,,,1
5aaa7bde56c51000018cc7b5,7kzk9a67tv,"Deep vs Shallow",1,200,2020-07-08T14:40:05-07:00,33.629254102707,3,versionC_stim.csv,RLVersionC.csv,"Realational Version C","Relational, read only version C",LIE,TRUTH,Study2,S,148,115,Study,User,-,,Study/JOL,"Study Phase2",33252,,,-1,-1,,,,1
5aaa7bde56c51000018cc7b5,7kzk9a67tv,"Deep vs Shallow",1,201,2020-07-08T14:40:07-07:00,2.8690500259399,3,versionC_stim.csv,RLVersionC.csv,"Realational Version C","Relational, read only version C",EQUAL,RIGHTS,Study2,S,137,138,Study,User,-,,Study/JOL,"Study Phase2",2281,,,-1,-1,,,,1
5aaa7bde56c51000018cc7b5,7kzk9a67tv,"Deep vs Shallow",1,202,2020-07-08T14:40:13-07:00,5.2053580284119,3,versionC_stim.csv,RLVersionC.csv,"Realational Version C","Relational, read only version C",SEATBELT,SAFETY,Study2,S,147,150,Study,User,-,,Study/JOL,"Study Phase2",4834,,,-1,-1,,,,1
5aaa7bde56c51000018cc7b5,7kzk9a67tv,"Deep vs Shallow",1,203,2020-07-08T14:40:18-07:00,5.5437688827515,3,versionC_stim.csv,RLVersionC.csv,"Realational Version C","Relational, read only version C",FLIP,TURN,Study2,F,116,102,Study,User,-,,Study/JOL,"Study Phase2",5168,,,-1,-1,,,,1
5aaa7bde56c51000018cc7b5,7kzk9a67tv,"Deep vs Shallow",1,204,2020-07-08T14:40:21-07:00,3.1582510471344,3,versionC_stim.csv,RLVersionC.csv,"Realational Version C","Relational, read only version C",BRACELET,WRIST,Study2,S,140,160,Study,User,-,,Study/JOL,"Study Phase2",2775,,,-1,-1,,,,1
5aaa7bde56c51000018cc7b5,7kzk9a67tv,"Deep vs Shallow",1,205,2020-07-08T14:40:24-07:00,2.9577929973602,3,versionC_stim.csv,RLVersionC.csv,"Realational Version C","Relational, read only version C",LEAGUE,BASEBALL,Study2,F,131,173,Study,User,-,,Study/JOL,"Study Phase2",2580,,,-1,-1,,,,1
5aaa7bde56c51000018cc7b5,7kzk9a67tv,"Deep vs Shallow",1,206,2020-07-08T14:40:29-07:00,4.300507068634,3,versionC_stim.csv,RLVersionC.csv,"Realational Version C","Relational, read only version C",CARBON,ELEMENT,Study2,S,141,151,Study,User,-,,Study/JOL,"Study Phase2",3919,,,-1,-1,,,,1
5aaa7bde56c51000018cc7b5,7kzk9a67tv,"Deep vs Shallow",1,207,2020-07-08T14:40:31-07:00,2.7172989845276,3,versionC_stim.csv,RLVersionC.csv,"Realational Version C","Relational, read only version C",DONKEY,MULE,Study2,B,108,105,Study,User,-,,Study/JOL,"Study Phase2",2337,,,-1,-1,,,,1
5aaa7bde56c51000018cc7b5,7kzk9a67tv,"Deep vs Shallow",1,208,2020-07-08T14:40:35-07:00,3.753350019455,3,versionC_stim.csv,RLVersionC.csv,"Realational Version C","Relational, read only version C",MAROON,JUSTICE,Study2,U,156,170,Study,User,-,,Study/JOL,"Study Phase2",3386,,,-1,-1,,,,1
5aaa7bde56c51000018cc7b5,7kzk9a67tv,"Deep vs Shallow",1,209,2020-07-08T14:40:40-07:00,4.8999848365784,3,versionC_stim.csv,RLVersionC.csv,"Realational Version C","Relational, read only version C",TOIL,LEASE,Study2,U,170,118,Study,User,-,,Study/JOL,"Study Phase2",4532,,,-1,-1,,,,1
5aaa7bde56c51000018cc7b5,7kzk9a67tv,"Deep vs Shallow",1,210,2020-07-08T14:40:44-07:00,4.3269131183624,3,versionC_stim.csv,RLVersionC.csv,"Realational Version C","Relational, read only version C",CLOTH,STRETCH,Study2,U,157,152,Study,User,-,,Study/JOL,"Study Phase2",3946,,,-1,-1,,,,1
5aaa7bde56c51000018cc7b5,7kzk9a67tv,"Deep vs Shallow",1,211,2020-07-08T14:40:49-07:00,4.3349568843842,3,versionC_stim.csv,RLVersionC.csv,"Realational Version C","Relational, read only version C",GAME,CLUE,Study2,B,97,154,Study,User,-,,Study/JOL,"Study Phase2",3254,,,-1,-1,,,,1
5aaa7bde56c51000018cc7b5,7kzk9a67tv,"Deep vs Shallow",1,212,2020-07-08T14:40:51-07:00,2.432953119278,3,versionC_stim.csv,RLVersionC.csv,"Realational Version C","Relational, read only version C",PENGUIN,BIRD,Study2,F,119,146,Study,User,-,,Study/JOL,"Study Phase2",2016,,,-1,-1,,,,1
5aaa7bde56c51000018cc7b5,7kzk9a67tv,"Deep vs Shallow",1,213,2020-07-08T14:40:55-07:00,3.7804439067841,3,versionC_stim.csv,RLVersionC.csv,"Realational Version C","Relational, read only version C",CHILDREN,MIRROR,Study2,U,174,137,Study,User,-,,Study/JOL,"Study Phase2",3340,,,-1,-1,,,,1
5aaa7bde56c51000018cc7b5,7kzk9a67tv,"Deep vs Shallow",1,214,2020-07-08T14:40:58-07:00,2.993096113205,3,versionC_stim.csv,RLVersionC.csv,"Realational Version C","Relational, read only version C",RED,CHERRY,Study2,B,104,134,Study,User,-,,Study/JOL,"Study Phase2",2559,,,-1,-1,,,,1
5aaa7bde56c51000018cc7b5,7kzk9a67tv,"Deep vs Shallow",1,215,2020-07-08T14:41:05-07:00,7.6172959804535,3,versionC_stim.csv,RLVersionC.csv,"Realational Version C","Relational, read only version C",PAPER,DOCUMENT,Study2,B,109,107,Study,User,-,,Study/JOL,"Study Phase2",2531,,,-1,-1,,,,1
5aaa7bde56c51000018cc7b5,7kzk9a67tv,"Deep vs Shallow",1,216,2020-07-08T14:41:09-07:00,3.7935779094696,3,versionC_stim.csv,RLVersionC.csv,"Realational Version C","Relational, read only version C",OUNCE,BOTH,Study2,U,172,121,Study,User,-,,Study/JOL,"Study Phase2",3414,,,-1,-1,,,,1
5aaa7bde56c51000018cc7b5,7kzk9a67tv,"Deep vs Shallow",1,217,2020-07-08T14:41:14-07:00,4.3692910671234,3,versionC_stim.csv,RLVersionC.csv,"Realational Version C","Relational, read only version C",BREAKABLE,GLASS,Study2,F,127,145,Study,User,-,,Study/JOL,"Study Phase2",3981,,,-1,-1,,,,1
5aaa7bde56c51000018cc7b5,7kzk9a67tv,"Deep vs Shallow",1,218,2020-07-08T14:41:19-07:00,4.9968059062958,3,versionC_stim.csv,RLVersionC.csv,"Realational Version C","Relational, read only version C",PANTHER,CAT,Study2,F,126,103,Study,User,-,,Study/JOL,"Study Phase2",4628,,,-1,-1,,,,1
5aaa7bde56c51000018cc7b5,7kzk9a67tv,"Deep vs Shallow",1,219,2020-07-08T14:41:23-07:00,4.3085861206055,3,versionC_stim.csv,RLVersionC.csv,"Realational Version C","Relational, read only version C",WINDSHIELD,CAR,Study2,F,117,117,Study,User,-,,Study/JOL,"Study Phase2",2808,,,-1,-1,,,,1
5aaa7bde56c51000018cc7b5,7kzk9a67tv,"Deep vs Shallow",1,220,2020-07-08T14:41:26-07:00,3.1981389522552,3,versionC_stim.csv,RLVersionC.csv,"Realational Version C","Relational, read only version C",JOKE,KEYS,Study2,U,165,109,Study,User,-,,Study/JOL,"Study Phase2",2764,,,-1,-1,,,,1
5aaa7bde56c51000018cc7b5,7kzk9a67tv,"Deep vs Shallow",1,221,2020-07-08T14:41:29-07:00,2.888286113739,3,versionC_stim.csv,RLVersionC.csv,"Realational Version C","Relational, read only version C",AWAY,GONE,Study2,S,142,104,Study,User,-,,Study/JOL,"Study Phase2",2510,,,-1,-1,,,,1
5aaa7bde56c51000018cc7b5,7kzk9a67tv,"Deep vs Shallow",1,222,2020-07-08T14:41:32-07:00,2.5516698360443,3,versionC_stim.csv,RLVersionC.csv,"Realational Version C","Relational, read only version C",COFFIN,DEAD,Study2,F,128,119,Study,User,-,,Study/JOL,"Study Phase2",2174,,,-1,-1,,,,1
5aaa7bde56c51000018cc7b5,7kzk9a67tv,"Deep vs Shallow",1,223,2020-07-08T14:41:36-07:00,3.9833960533142,3,versionC_stim.csv,RLVersionC.csv,"Realational Version C","Relational, read only version C",LONELY,ALONE,Study2,S,145,135,Study,User,-,,Study/JOL,"Study Phase2",3603,,,-1,-1,,,,1
5aaa7bde56c51000018cc7b5,7kzk9a67tv,"Deep vs Shallow",1,224,2020-07-08T14:41:40-07:00,4.269819021225,3,versionC_stim.csv,RLVersionC.csv,"Realational Version C","Relational, read only version C",,,,,,0,Instruct,-,3,"Remember to focus on how the two items are similiar while you study!",,CHECK5,3893,,,-1,-1,,,,1
5aaa7bde56c51000018cc7b5,7kzk9a67tv,"Deep vs Shallow",1,225,2020-07-08T14:41:44-07:00,4.5359969139099,3,versionC_stim.csv,RLVersionC.csv,"Realational Version C","Relational, read only version C",LOVE,AFFECTION,Study2,B,115,124,Study,User,-,,Study/JOL,"Study Phase2",4154,,,-1,-1,,,,1
5aaa7bde56c51000018cc7b5,7kzk9a67tv,"Deep vs Shallow",1,226,2020-07-08T14:41:48-07:00,3.5531651973724,3,versionC_stim.csv,RLVersionC.csv,"Realational Version C","Relational, read only version C",VILLAIN,BAD,Study2,F,118,131,Study,User,-,,Study/JOL,"Study Phase2",3178,,,-1,-1,,,,1
5aaa7bde56c51000018cc7b5,7kzk9a67tv,"Deep vs Shallow",1,227,2020-07-08T14:41:51-07:00,3.2497107982635,3,versionC_stim.csv,RLVersionC.csv,"Realational Version C","Relational, read only version C",HEAD,SCALP,Study2,B,105,163,Study,User,-,,Study/JOL,"Study Phase2",2863,,,-1,-1,,,,1
5aaa7bde56c51000018cc7b5,7kzk9a67tv,"Deep vs Shallow",1,228,2020-07-08T14:41:56-07:00,5.2230319976807,3,versionC_stim.csv,RLVersionC.csv,"Realational Version C","Relational, read only version C",SHAKE,Shell,Study2,U,163,120,Study,User,-,,Study/JOL,"Study Phase2",4832,,,-1,-1,,,,1
5aaa7bde56c51000018cc7b5,7kzk9a67tv,"Deep vs Shallow",1,229,2020-07-08T14:42:04-07:00,7.3538191318512,3,versionC_stim.csv,RLVersionC.csv,"Realational Version C","Relational, read only version C",REEL,ROD,Study2,S,150,112,Study,User,-,,Study/JOL,"Study Phase2",6981,,,-1,-1,,,,1
5aaa7bde56c51000018cc7b5,7kzk9a67tv,"Deep vs Shallow",1,230,2020-07-08T14:42:13-07:00,8.8995139598846,3,versionC_stim.csv,RLVersionC.csv,"Realational Version C","Relational, read only version C",BANKER,MONEY,Study2,F,132,100,Study,User,-,,Study/JOL,"Study Phase2",3603,,,-1,-1,,,,1
5aaa7bde56c51000018cc7b5,7kzk9a67tv,"Deep vs Shallow",1,231,2020-07-08T14:42:16-07:00,3.0837149620056,3,versionC_stim.csv,RLVersionC.csv,"Realational Version C","Relational, read only version C",SHAVE,RAZOR,Study2,S,136,165,Study,User,-,,Study/JOL,"Study Phase2",2695,,,-1,-1,,,,1
5aaa7bde56c51000018cc7b5,7kzk9a67tv,"Deep vs Shallow",1,232,2020-07-08T14:42:22-07:00,6.7746081352234,3,versionC_stim.csv,RLVersionC.csv,"Realational Version C","Relational, read only version C",CLEAR,MOAT,Study2,U,169,98,Study,User,-,,Study/JOL,"Study Phase2",6399,,,-1,-1,,,,1
5aaa7bde56c51000018cc7b5,7kzk9a67tv,"Deep vs Shallow",1,233,2020-07-08T14:42:25-07:00,2.8557620048523,3,versionC_stim.csv,RLVersionC.csv,"Realational Version C","Relational, read only version C",HAVE,OWN,Study2,S,153,167,Study,User,-,,Study/JOL,"Study Phase2",2476,,,-1,-1,,,,1
5aaa7bde56c51000018cc7b5,7kzk9a67tv,"Deep vs Shallow",1,234,2020-07-08T14:42:27-07:00,1.8032369613647,3,versionC_stim.csv,RLVersionC.csv,"Realational Version C","Relational, read only version C",WET,DRY,Study2,S,146,174,Study,User,-,,Study/JOL,"Study Phase2",1517,,,-1,-1,,,,1
5aaa7bde56c51000018cc7b5,7kzk9a67tv,"Deep vs Shallow",1,235,2020-07-08T14:42:31-07:00,3.7537519931793,3,versionC_stim.csv,RLVersionC.csv,"Realational Version C","Relational, read only version C",REVENGE,EVEN,Study2,F,122,122,Study,User,-,,Study/JOL,"Study Phase2",3268,,,-1,-1,,,,1
5aaa7bde56c51000018cc7b5,7kzk9a67tv,"Deep vs Shallow",1,236,2020-07-08T14:42:34-07:00,3.1616740226746,3,versionC_stim.csv,RLVersionC.csv,"Realational Version C","Relational, read only version C",MYSTERY,DETECTIVE,Study2,B,100,142,Study,User,-,,Study/JOL,"Study Phase2",2771,,,-1,-1,,,,1
5aaa7bde56c51000018cc7b5,7kzk9a67tv,"Deep vs Shallow",1,237,2020-07-08T14:42:37-07:00,3.3099699020386,3,versionC_stim.csv,RLVersionC.csv,"Realational Version C","Relational, read only version C",SMELL,INCENSE,Study2,B,110,148,Study,User,-,,Study/JOL,"Study Phase2",2921,,,-1,-1,,,,1
5aaa7bde56c51000018cc7b5,7kzk9a67tv,"Deep vs Shallow",1,238,2020-07-08T14:42:42-07:00,4.1801469326019,3,versionC_stim.csv,RLVersionC.csv,"Realational Version C","Relational, read only version C",TEMPER,TANTRUM,Study2,S,154,101,Study,User,-,,Study/JOL,"Study Phase2",2747,,,-1,-1,,,,1
5aaa7bde56c51000018cc7b5,7kzk9a67tv,"Deep vs Shallow",1,239,2020-07-08T14:42:45-07:00,3.0193390846252,3,versionC_stim.csv,RLVersionC.csv,"Realational Version C","Relational, read only version C",PLANT,CACTUS,Study2,B,98,144,Study,User,-,,Study/JOL,"Study Phase2",2631,,,-1,-1,,,,1
5aaa7bde56c51000018cc7b5,7kzk9a67tv,"Deep vs Shallow",1,240,2020-07-08T14:42:49-07:00,3.9946808815002,3,versionC_stim.csv,RLVersionC.csv,"Realational Version C","Relational, read only version C",TRASH,LITTER,Study2,B,103,169,Study,User,-,,Study/JOL,"Study Phase2",3613,,,-1,-1,,,,1
5aaa7bde56c51000018cc7b5,7kzk9a67tv,"Deep vs Shallow",1,241,2020-07-08T14:42:54-07:00,5.4968831539154,3,versionC_stim.csv,RLVersionC.csv,"Realational Version C","Relational, read only version C",DRINK,WATER,Study2,S,143,149,Study,User,-,,Study/JOL,"Study Phase2",5111,,,-1,-1,,,,1
5aaa7bde56c51000018cc7b5,7kzk9a67tv,"Deep vs Shallow",1,242,2020-07-08T14:42:58-07:00,4.4693989753723,3,versionC_stim.csv,RLVersionC.csv,"Realational Version C","Relational, read only version C",NAP,SLEEP,Study2,F,134,139,Study,User,-,,Study/JOL,"Study Phase2",4087,,,-1,-1,,,,1
5aaa7bde56c51000018cc7b5,7kzk9a67tv,"Deep vs Shallow",1,243,2020-07-08T14:43:02-07:00,3.1301419734955,3,versionC_stim.csv,RLVersionC.csv,"Realational Version C","Relational, read only version C",OBTAIN,MEAT,Study2,U,161,132,Study,User,-,,Study/JOL,"Study Phase2",2759,,,-1,-1,,,,1
5aaa7bde56c51000018cc7b5,7kzk9a67tv,"Deep vs Shallow",1,244,2020-07-08T14:43:06-07:00,4.0860650539398,3,versionC_stim.csv,RLVersionC.csv,"Realational Version C","Relational, read only version C",WAX,CANDLE,Study2,S,139,175,Study,User,-,,Study/JOL,"Study Phase2",3704,,,-1,-1,,,,1
5aaa7bde56c51000018cc7b5,7kzk9a67tv,"Deep vs Shallow",1,245,2020-07-08T14:43:08-07:00,2.4307069778442,3,versionC_stim.csv,RLVersionC.csv,"Realational Version C","Relational, read only version C",END,ADJOURN,Study2,B,101,158,Study,User,-,,Study/JOL,"Study Phase2",2060,,,-1,-1,,,,1
5aaa7bde56c51000018cc7b5,7kzk9a67tv,"Deep vs Shallow",1,246,2020-07-08T14:43:11-07:00,2.6834678649902,3,versionC_stim.csv,RLVersionC.csv,"Realational Version C","Relational, read only version C",FICTION,LISTEN,Study2,U,164,141,Study,User,-,,Study/JOL,"Study Phase2",2308,,,-1,-1,,,,1
5aaa7bde56c51000018cc7b5,7kzk9a67tv,"Deep vs Shallow",1,247,2020-07-08T14:43:14-07:00,3.1425080299377,3,versionC_stim.csv,RLVersionC.csv,"Realational Version C","Relational, read only version C",BALLOON,POP,Study2,F,123,162,Study,User,-,,Study/JOL,"Study Phase2",1854,,,-1,-1,,,,1
5aaa7bde56c51000018cc7b5,7kzk9a67tv,"Deep vs Shallow",1,248,2020-07-08T14:43:17-07:00,3.0207281112671,3,versionC_stim.csv,RLVersionC.csv,"Realational Version C","Relational, read only version C",LONG,EXTENSION,Study2,B,96,110,Study,User,-,,Study/JOL,"Study Phase2",2493,,,-1,-1,,,,1
5aaa7bde56c51000018cc7b5,7kzk9a67tv,"Deep vs Shallow",1,249,2020-07-08T14:43:23-07:00,5.7721769809723,3,versionC_stim.csv,RLVersionC.csv,"Realational Version C","Relational, read only version C",THIMBLE,THREAD,Study2,F,121,140,Study,User,-,,Study/JOL,"Study Phase2",5389,,,-1,-1,,,,1
5aaa7bde56c51000018cc7b5,7kzk9a67tv,"Deep vs Shallow",1,250,2020-07-08T14:43:25-07:00,2.5817370414734,3,versionC_stim.csv,RLVersionC.csv,"Realational Version C","Relational, read only version C",ACTRESS,STAR,Study2,F,120,156,Study,User,-,,Study/JOL,"Study Phase2",2193,,,-1,-1,,,,1
5aaa7bde56c51000018cc7b5,7kzk9a67tv,"Deep vs Shallow",1,251,2020-07-08T14:43:29-07:00,3.3488829135895,3,versionC_stim.csv,RLVersionC.csv,"Realational Version C","Relational, read only version C",BANG,FUZZY,Study2,U,168,157,Study,User,-,,Study/JOL,"Study Phase2",2971,,,-1,-1,,,,1
5aaa7bde56c51000018cc7b5,7kzk9a67tv,"Deep vs Shallow",1,252,2020-07-08T14:43:34-07:00,5.3845400810242,3,versionC_stim.csv,RLVersionC.csv,"Realational Version C","Relational, read only version C",ELECTION,MAZE,Study2,U,159,155,Study,User,-,,Study/JOL,"Study Phase2",4002,,,-1,-1,,,,1
5aaa7bde56c51000018cc7b5,7kzk9a67tv,"Deep vs Shallow",1,253,2020-07-08T14:43:37-07:00,3.3947529792786,3,versionC_stim.csv,RLVersionC.csv,"Realational Version C","Relational, read only version C",SCISSORS,SHEARS,Study2,B,112,126,Study,User,-,,Study/JOL,"Study Phase2",2978,,,-1,-1,,,,1
5aaa7bde56c51000018cc7b5,7kzk9a67tv,"Deep vs Shallow",1,254,2020-07-08T14:43:41-07:00,3.372102022171,3,versionC_stim.csv,RLVersionC.csv,"Realational Version C","Relational, read only version C",TICK,FLEA,Study2,S,151,143,Study,User,-,,Study/JOL,"Study Phase2",3001,,,-1,-1,,,,1
5aaa7bde56c51000018cc7b5,7kzk9a67tv,"Deep vs Shallow",1,255,2020-07-08T14:43:43-07:00,2.137316942215,3,versionC_stim.csv,RLVersionC.csv,"Realational Version C","Relational, read only version C",AIRCRAFT,PLANE,Study2,F,129,127,Study,User,-,,Study/JOL,"Study Phase2",1845,,,-1,-1,,,,1
5aaa7bde56c51000018cc7b5,7kzk9a67tv,"Deep vs Shallow",1,256,2020-07-08T14:43:51-07:00,8.1025919914246,3,versionC_stim.csv,RLVersionC.csv,"Realational Version C","Relational, read only version C",CUT,CHOP,Study2,B,107,106,Study,User,-,,Study/JOL,"Study Phase2",1667,,,-1,-1,,,,1
5aaa7bde56c51000018cc7b5,7kzk9a67tv,"Deep vs Shallow",1,257,2020-07-08T14:43:55-07:00,4.3355939388275,3,versionC_stim.csv,RLVersionC.csv,"Realational Version C","Relational, read only version C",CHARM,VEHICLE,Study2,U,160,172,Study,User,-,,Study/JOL,"Study Phase2",3859,,,-1,-1,,,,1
5aaa7bde56c51000018cc7b5,7kzk9a67tv,"Deep vs Shallow",1,258,2020-07-08T14:43:59-07:00,3.7712559700012,3,versionC_stim.csv,RLVersionC.csv,"Realational Version C","Relational, read only version C",COLD,CHILL,Study2,B,114,159,Study,User,-,,Study/JOL,"Study Phase2",3398,,,-1,-1,,,,1
5aaa7bde56c51000018cc7b5,7kzk9a67tv,"Deep vs Shallow",1,259,2020-07-08T14:44:03-07:00,3.545832157135,3,versionC_stim.csv,RLVersionC.csv,"Realational Version C","Relational, read only version C",STEAK,GIVE,Study2,U,158,113,Study,User,-,,Study/JOL,"Study Phase2",3154,,,-1,-1,,,,1
5aaa7bde56c51000018cc7b5,7kzk9a67tv,"Deep vs Shallow",1,260,2020-07-08T14:44:07-07:00,4.1962080001831,3,versionC_stim.csv,RLVersionC.csv,"Realational Version C","Relational, read only version C",GROUND,EARTH,Study2,S,144,123,Study,User,-,,Study/JOL,"Study Phase2",3816,,,-1,-1,,,,1
5aaa7bde56c51000018cc7b5,7kzk9a67tv,"Deep vs Shallow",1,261,2020-07-08T14:44:12-07:00,5.2212500572205,3,versionC_stim.csv,RLVersionC.csv,"Realational Version C","Relational, read only version C",ABLE,CRACKLE,Study2,U,162,125,Study,User,-,,Study/JOL,"Study Phase2",4648,,,-1,-1,,,,1
5aaa7bde56c51000018cc7b5,7kzk9a67tv,"Deep vs Shallow",1,262,2020-07-08T14:44:21-07:00,8.8546459674835,3,versionC_stim.csv,RLVersionC.csv,"Realational Version C","Relational, read only version C",JAR,MASON,Study2,S,138,166,Study,User,-,,Study/JOL,"Study Phase2",3630,,,-1,-1,,,,1
5aaa7bde56c51000018cc7b5,7kzk9a67tv,"Deep vs Shallow",1,263,2020-07-08T14:44:24-07:00,3.3264729976654,3,versionC_stim.csv,RLVersionC.csv,"Realational Version C","Relational, read only version C",COMMUNICATION,PHONE,Study2,S,149,129,Study,User,-,,Study/JOL,"Study Phase2",2942,,,-1,-1,,,,1
5aaa7bde56c51000018cc7b5,7kzk9a67tv,"Deep vs Shallow",1,264,2020-07-08T14:44:28-07:00,3.9118640422821,3,versionC_stim.csv,RLVersionC.csv,"Realational Version C","Relational, read only version C",TAN,SUN,Study2,S,155,147,Study,User,-,,Study/JOL,"Study Phase2",3525,,,-1,-1,,,,1
5aaa7bde56c51000018cc7b5,7kzk9a67tv,"Deep vs Shallow",1,265,2020-07-08T14:44:32-07:00,3.8365819454193,3,versionC_stim.csv,RLVersionC.csv,"Realational Version C","Relational, read only version C",SCAR,MAIN,Study2,U,175,136,Study,User,-,,Study/JOL,"Study Phase2",3452,,,-1,-1,,,,1
5aaa7bde56c51000018cc7b5,7kzk9a67tv,"Deep vs Shallow",1,266,2020-07-08T14:44:39-07:00,7.1664898395538,3,versionC_stim.csv,RLVersionC.csv,"Realational Version C","Relational, read only version C",Morning,TEMPERATURE,Study2,U,173,133,Study,User,-,,Study/JOL,"Study Phase2",6793,,,-1,-1,,,,1
5aaa7bde56c51000018cc7b5,7kzk9a67tv,"Deep vs Shallow",1,267,2020-07-08T14:44:43-07:00,3.357666015625,3,versionC_stim.csv,RLVersionC.csv,"Realational Version C","Relational, read only version C",HATE,NAME,Study2,U,167,99,Study,User,-,,Study/JOL,"Study Phase2",2983,,,-1,-1,,,,1
5aaa7bde56c51000018cc7b5,7kzk9a67tv,"Deep vs Shallow",1,268,2020-07-08T14:44:49-07:00,6.7638630867004,3,versionC_stim.csv,RLVersionC.csv,"Realational Version C","Relational, read only version C",CLOTHES,CAKE,Study2,U,166,116,Study,User,-,,Study/JOL,"Study Phase2",6391,,,-1,-1,,,,1
5aaa7bde56c51000018cc7b5,7kzk9a67tv,"Deep vs Shallow",1,269,2020-07-08T14:44:52-07:00,3.0542440414429,3,versionC_stim.csv,RLVersionC.csv,"Realational Version C","Relational, read only version C",FAVORITE,BEST,Study2,F,125,128,Study,User,-,,Study/JOL,"Study Phase2",2673,,,-1,-1,,,,1
5aaa7bde56c51000018cc7b5,7kzk9a67tv,"Deep vs Shallow",1,270,2020-07-08T14:44:55-07:00,2.8292849063873,3,versionC_stim.csv,RLVersionC.csv,"Realational Version C","Relational, read only version C",EAT,DINE,Study2,B,111,108,Study,User,-,,Study/JOL,"Study Phase2",2431,,,-1,-1,,,,1
5aaa7bde56c51000018cc7b5,7kzk9a67tv,"Deep vs Shallow",1,271,2020-07-08T14:44:58-07:00,2.9056689739227,3,versionC_stim.csv,RLVersionC.csv,"Realational Version C","Relational, read only version C",MARCH,SPRING,BUFFER4,Buffer,179,179,Study,User,-,,Study/JOL,BUFFER4,2529,,,-1,-1,,,,1
5aaa7bde56c51000018cc7b5,7kzk9a67tv,"Deep vs Shallow",1,272,2020-07-08T14:45:05-07:00,7.2006239891052,3,versionC_stim.csv,RLVersionC.csv,"Realational Version C","Relational, read only version C",SHED,TOOL,BUFFER4,Buffer,178,178,Study,User,-,,Study/JOL,BUFFER4,796,,,-1,-1,,,,1
5aaa7bde56c51000018cc7b5,7kzk9a67tv,"Deep vs Shallow",1,273,2020-07-08T14:45:11-07:00,5.4870281219482,3,versionC_stim.csv,RLVersionC.csv,"Realational Version C","Relational, read only version C",YEAR,MONTH,BUFFER4,Buffer,177,181,Study,User,-,,Study/JOL,BUFFER4,4940,,,-1,-1,,,,1
5aaa7bde56c51000018cc7b5,7kzk9a67tv,"Deep vs Shallow",1,274,2020-07-08T14:45:14-07:00,3.4594080448151,3,versionC_stim.csv,RLVersionC.csv,"Realational Version C","Relational, read only version C",WEAKS,DAYS,BUFFER4,Buffer,176,177,Study,User,-,,Study/JOL,BUFFER4,3087,,,-1,-1,,,,1
5aaa7bde56c51000018cc7b5,7kzk9a67tv,"Deep vs Shallow",1,275,2020-07-08T14:45:17-07:00,2.9138100147247,3,versionC_stim.csv,RLVersionC.csv,"Realational Version C","Relational, read only version C",SPOOKY,OCTOBER,BUFFER4,Buffer,180,180,Study,User,-,,Study/JOL,BUFFER4,2533,,,-1,-1,,,,1
5aaa7bde56c51000018cc7b5,7kzk9a67tv,"Deep vs Shallow",1,276,2020-07-08T14:45:19-07:00,1.6705238819122,3,versionC_stim.csv,RLVersionC.csv,"Realational Version C","Relational, read only version C",,,,,,0,Instruct,User,-,"You have completed this section. Please press Enter.",Filler_Instruction,Instruct5,1388,,,-1,-1,,,,1
5aaa7bde56c51000018cc7b5,7kzk9a67tv,"Deep vs Shallow",1,277,2020-07-08T14:45:42-07:00,23.473139047623,3,versionC_stim.csv,RLVersionC.csv,"Realational Version C","Relational, read only version C",,,,,,0,FreeRecall,-,10,"What were you supposed to focus on while you studied each pair? (Hint: Think back to the instructions). Type your answer in the space below.",,CHECK3,23090,"How each pair was related to each other ",0,2881,14634,0,0,,1
5aaa7bde56c51000018cc7b5,7kzk9a67tv,"Deep vs Shallow",1,278,2020-07-08T14:45:45-07:00,2.485780954361,3,versionC_stim.csv,RLVersionC.csv,"Realational Version C","Relational, read only version C",,,,,,0,Instruct,User,-,"You have completed this section. Please press Enter.",Filler_Instruction,Instruct5,2104,,,-1,-1,,,,1
5aaa7bde56c51000018cc7b5,7kzk9a67tv,"Deep vs Shallow",1,279,2020-07-08T14:47:45-07:00,120.39099597931,3,versionC_stim.csv,RLVersionC.csv,"Realational Version C","Relational, read only version C",,,,,,0,FreeRecall,120,120,"Please list the 50 US states in reverse alphabetical order (z - a). The task will automatically advance to the next screen after two minutes.",,Filler2,120003,"utah, texas, ohio, nevada, georgia, florida, california, arkansas, arizona",0,10538,116402,0,0,,1
5aaa7bde56c51000018cc7b5,7kzk9a67tv,"Deep vs Shallow",1,280,2020-07-08T14:47:57-07:00,11.321012020111,3,versionC_stim.csv,RLVersionC.csv,"Realational Version C","Relational, read only version C",,,,,,0,Instruct,-,10,"You will now be presented with the first word from each of the previously studied item pairs. Please type the missing word. If you do not know the word, you may guess or press Enter to skip forward to the next pair.",,Instruct6,10942,,,-1,-1,,,,1
5aaa7bde56c51000018cc7b5,7kzk9a67tv,"Deep vs Shallow",1,281,2020-07-08T14:48:58-07:00,61.746850013733,3,versionC_stim.csv,RLVersionC.csv,"Realational Version C","Relational, read only version C",GAME,CLUE,Study2,B,97,154,Test,User,-,,Recall,Recall2,61357,,0,-1,-1,0,0,,1
5aaa7bde56c51000018cc7b5,7kzk9a67tv,"Deep vs Shallow",1,282,2020-07-08T14:49:15-07:00,16.263382911682,3,versionC_stim.csv,RLVersionC.csv,"Realational Version C","Relational, read only version C",COMMUNICATION,PHONE,Study2,S,149,129,Test,User,-,,Recall,Recall2,15865,phon,88.888888888889,15266,15517,0,1,,1
5aaa7bde56c51000018cc7b5,7kzk9a67tv,"Deep vs Shallow",1,283,2020-07-08T14:49:20-07:00,5.7129611968994,3,versionC_stim.csv,RLVersionC.csv,"Realational Version C","Relational, read only version C",SEATBELT,SAFETY,Study2,S,147,150,Test,User,-,,Recall,Recall2,5324,safety,100,3335,4359,1,1,,1
5aaa7bde56c51000018cc7b5,7kzk9a67tv,"Deep vs Shallow",1,284,2020-07-08T14:49:23-07:00,3.182235956192,3,versionC_stim.csv,RLVersionC.csv,"Realational Version C","Relational, read only version C",HEAD,SCALP,Study2,B,105,163,Test,User,-,,Recall,Recall2,2801,scalp,100,1362,2104,1,1,,1
5aaa7bde56c51000018cc7b5,7kzk9a67tv,"Deep vs Shallow",1,285,2020-07-08T14:49:28-07:00,4.397439956665,3,versionC_stim.csv,RLVersionC.csv,"Realational Version C","Relational, read only version C",CHILDREN,MIRROR,Study2,U,174,137,Test,User,-,,Recall,Recall2,3991,mirror,100,2342,3731,1,1,,1
5aaa7bde56c51000018cc7b5,7kzk9a67tv,"Deep vs Shallow",1,286,2020-07-08T14:49:32-07:00,3.9989829063416,3,versionC_stim.csv,RLVersionC.csv,"Realational Version C","Relational, read only version C",CARBON,ELEMENT,Study2,S,141,151,Test,User,-,,Recall,Recall2,3603,element,100,1443,2097,1,1,,1
5aaa7bde56c51000018cc7b5,7kzk9a67tv,"Deep vs Shallow",1,287,2020-07-08T14:49:35-07:00,3.2509081363678,3,versionC_stim.csv,RLVersionC.csv,"Realational Version C","Relational, read only version C",SMELL,INCENSE,Study2,B,110,148,Test,User,-,,Recall,Recall2,2872,,0,-1,-1,0,0,,1
5aaa7bde56c51000018cc7b5,7kzk9a67tv,"Deep vs Shallow",1,288,2020-07-08T14:49:44-07:00,9.1268608570099,3,versionC_stim.csv,RLVersionC.csv,"Realational Version C","Relational, read only version C",COLD,CHILL,Study2,B,114,159,Test,User,-,,Recall,Recall2,8744,freeze,0,2932,8376,0,0,,1
5aaa7bde56c51000018cc7b5,7kzk9a67tv,"Deep vs Shallow",1,289,2020-07-08T14:49:49-07:00,4.8941950798035,3,versionC_stim.csv,RLVersionC.csv,"Realational Version C","Relational, read only version C",SARDINE,FISH,Study2,F,130,171,Test,User,-,,Recall,Recall2,4417,fish,100,1641,1953,1,1,,1
5aaa7bde56c51000018cc7b5,7kzk9a67tv,"Deep vs Shallow",1,290,2020-07-08T14:49:53-07:00,3.8265280723572,3,versionC_stim.csv,RLVersionC.csv,"Realational Version C","Relational, read only version C",Morning,TEMPERATURE,Study2,U,173,133,Test,User,-,,Recall,Recall2,3451,temperature,100,1299,2798,1,1,,1
5aaa7bde56c51000018cc7b5,7kzk9a67tv,"Deep vs Shallow",1,291,2020-07-08T14:50:01-07:00,7.8072779178619,3,versionC_stim.csv,RLVersionC.csv,"Realational Version C","Relational, read only version C",ACTRESS,STAR,Study2,F,120,156,Test,User,-,,Recall,Recall2,7418,star,100,3418,5848,1,1,,1
5aaa7bde56c51000018cc7b5,7kzk9a67tv,"Deep vs Shallow",1,292,2020-07-08T14:50:12-07:00,11.148342132568,3,versionC_stim.csv,RLVersionC.csv,"Realational Version C","Relational, read only version C",LIE,TRUTH,Study2,S,148,115,Test,User,-,,Recall,Recall2,10764,adjourn,16.666666666667,7538,9356,0,0,,1
5aaa7bde56c51000018cc7b5,7kzk9a67tv,"Deep vs Shallow",1,293,2020-07-08T14:50:16-07:00,3.7722878456116,3,versionC_stim.csv,RLVersionC.csv,"Realational Version C","Relational, read only version C",BREAKABLE,GLASS,Study2,F,127,145,Test,User,-,,Recall,Recall2,3387,glass,100,1227,1720,1,1,,1
5aaa7bde56c51000018cc7b5,7kzk9a67tv,"Deep vs Shallow",1,294,2020-07-08T14:50:25-07:00,9.5894501209259,3,versionC_stim.csv,RLVersionC.csv,"Realational Version C","Relational, read only version C",OUNCE,BOTH,Study2,U,172,121,Test,User,-,,Recall,Recall2,9201,,0,3017,3017,0,0,,1
5aaa7bde56c51000018cc7b5,7kzk9a67tv,"Deep vs Shallow",1,295,2020-07-08T14:50:29-07:00,3.5474698543549,3,versionC_stim.csv,RLVersionC.csv,"Realational Version C","Relational, read only version C",BANG,FUZZY,Study2,U,168,157,Test,User,-,,Recall,Recall2,3170,,0,-1,-1,0,0,,1
5aaa7bde56c51000018cc7b5,7kzk9a67tv,"Deep vs Shallow",1,296,2020-07-08T14:50:35-07:00,5.7842040061951,3,versionC_stim.csv,RLVersionC.csv,"Realational Version C","Relational, read only version C",BRACELET,WRIST,Study2,S,140,160,Test,User,-,,Recall,Recall2,5400,wrist,100,4287,5221,1,1,,1
5aaa7bde56c51000018cc7b5,7kzk9a67tv,"Deep vs Shallow",1,297,2020-07-08T14:50:43-07:00,8.5092120170593,3,versionC_stim.csv,RLVersionC.csv,"Realational Version C","Relational, read only version C",AIRCRAFT,PLANE,Study2,F,129,127,Test,User,-,,Recall,Recall2,3287,plane,100,612,1920,1,1,,1
5aaa7bde56c51000018cc7b5,7kzk9a67tv,"Deep vs Shallow",1,298,2020-07-08T14:50:50-07:00,7.1412510871887,3,versionC_stim.csv,RLVersionC.csv,"Realational Version C","Relational, read only version C",DOG,FURRY,Study2,B,102,114,Test,User,-,,Recall,Recall2,6753,,0,-1,-1,0,0,,1
5aaa7bde56c51000018cc7b5,7kzk9a67tv,"Deep vs Shallow",1,299,2020-07-08T14:50:55-07:00,5.213700056076,3,versionC_stim.csv,RLVersionC.csv,"Realational Version C","Relational, read only version C",OBTAIN,MEAT,Study2,U,161,132,Test,User,-,,Recall,Recall2,4824,meat,100,2654,3009,1,1,,1
5aaa7bde56c51000018cc7b5,7kzk9a67tv,"Deep vs Shallow",1,300,2020-07-08T14:50:58-07:00,3.0096719264984,3,versionC_stim.csv,RLVersionC.csv,"Realational Version C","Relational, read only version C",TICK,FLEA,Study2,S,151,143,Test,User,-,,Recall,Recall2,2627,flea,100,1022,1306,1,1,,1
5aaa7bde56c51000018cc7b5,7kzk9a67tv,"Deep vs Shallow",1,301,2020-07-08T14:51:11-07:00,12.726211071014,3,versionC_stim.csv,RLVersionC.csv,"Realational Version C","Relational, read only version C",FICTION,LISTEN,Study2,U,164,141,Test,User,-,,Recall,Recall2,12333,sound,36.363636363636,4106,12041,0,0,,1
5aaa7bde56c51000018cc7b5,7kzk9a67tv,"Deep vs Shallow",1,302,2020-07-08T14:51:18-07:00,6.6021349430084,3,versionC_stim.csv,RLVersionC.csv,"Realational Version C","Relational, read only version C",CAR,DRIVER,Study2,B,106,161,Test,User,-,,Recall,Recall2,6203,windscreen,25,1941,3716,0,0,,1
5aaa7bde56c51000018cc7b5,7kzk9a67tv,"Deep vs Shallow",1,303,2020-07-08T14:51:54-07:00,36.480097055435,3,versionC_stim.csv,RLVersionC.csv,"Realational Version C","Relational, read only version C",MAROON,JUSTICE,Study2,U,156,170,Test,User,-,,Recall,Recall2,36016,,0,-1,-1,0,0,,1
5aaa7bde56c51000018cc7b5,7kzk9a67tv,"Deep vs Shallow",1,304,2020-07-08T14:52:03-07:00,8.6526079177856,3,versionC_stim.csv,RLVersionC.csv,"Realational Version C","Relational, read only version C",PANTHER,CAT,Study2,F,126,103,Test,User,-,,Recall,Recall2,8273,cat,100,1840,7954,1,1,,1
5aaa7bde56c51000018cc7b5,7kzk9a67tv,"Deep vs Shallow",1,305,2020-07-08T14:52:07-07:00,4.2562530040741,3,versionC_stim.csv,RLVersionC.csv,"Realational Version C","Relational, read only version C",AWAY,GONE,Study2,S,142,104,Test,User,-,,Recall,Recall2,3870,gone,100,1519,1745,1,1,,1
5aaa7bde56c51000018cc7b5,7kzk9a67tv,"Deep vs Shallow",1,306,2020-07-08T14:52:34-07:00,26.475876092911,3,versionC_stim.csv,RLVersionC.csv,"Realational Version C","Relational, read only version C",MYSTERY,DETECTIVE,Study2,B,100,142,Test,User,-,,Recall,Recall2,26088,,0,-1,-1,0,0,,1
5aaa7bde56c51000018cc7b5,7kzk9a67tv,"Deep vs Shallow",1,307,2020-07-08T14:53:04-07:00,30.266873836517,3,versionC_stim.csv,RLVersionC.csv,"Realational Version C","Relational, read only version C",HAVE,OWN,Study2,S,153,167,Test,User,-,,Recall,Recall2,29885,,0,-1,-1,0,0,,1
5aaa7bde56c51000018cc7b5,7kzk9a67tv,"Deep vs Shallow",1,308,2020-07-08T14:53:07-07:00,3.2776720523834,3,versionC_stim.csv,RLVersionC.csv,"Realational Version C","Relational, read only version C",PENGUIN,BIRD,Study2,F,119,146,Test,User,-,,Recall,Recall2,2896,bird,100,2264,2654,1,1,,1
5aaa7bde56c51000018cc7b5,7kzk9a67tv,"Deep vs Shallow",1,309,2020-07-08T14:53:16-07:00,9.244607925415,3,versionC_stim.csv,RLVersionC.csv,"Realational Version C","Relational, read only version C",SCAR,MAIN,Study2,U,175,136,Test,User,-,,Recall,Recall2,8864,,0,-1,-1,0,0,,1
5aaa7bde56c51000018cc7b5,7kzk9a67tv,"Deep vs Shallow",1,310,2020-07-08T14:53:23-07:00,6.6476111412048,3,versionC_stim.csv,RLVersionC.csv,"Realational Version C","Relational, read only version C",TIE,SHOELACE,Study2,B,99,168,Test,User,-,,Recall,Recall2,5257,shoelace,100,2425,4806,1,1,,1
5aaa7bde56c51000018cc7b5,7kzk9a67tv,"Deep vs Shallow",1,311,2020-07-08T14:53:30-07:00,6.8474390506744,3,versionC_stim.csv,RLVersionC.csv,"Realational Version C","Relational, read only version C",TEMPER,TANTRUM,Study2,S,154,101,Test,User,-,,Recall,Recall2,6364,tantrum,100,3234,4280,1,1,,1
5aaa7bde56c51000018cc7b5,7kzk9a67tv,"Deep vs Shallow",1,312,2020-07-08T14:53:34-07:00,3.6861498355865,3,versionC_stim.csv,RLVersionC.csv,"Realational Version C","Relational, read only version C",BALLOON,POP,Study2,F,123,162,Test,User,-,,Recall,Recall2,3285,pop,100,1888,2303,1,1,,1
5aaa7bde56c51000018cc7b5,7kzk9a67tv,"Deep vs Shallow",1,313,2020-07-08T14:53:37-07:00,2.8801829814911,3,versionC_stim.csv,RLVersionC.csv,"Realational Version C","Relational, read only version C",FLIP,TURN,Study2,F,116,102,Test,User,-,,Recall,Recall2,2488,turn,100,1681,1947,1,1,,1
5aaa7bde56c51000018cc7b5,7kzk9a67tv,"Deep vs Shallow",1,314,2020-07-08T14:53:38-07:00,1.7307150363922,3,versionC_stim.csv,RLVersionC.csv,"Realational Version C","Relational, read only version C",SIGN,LOAN,Study2,U,171,164,Test,User,-,,Recall,Recall2,1430,,0,-1,-1,0,0,,1
5aaa7bde56c51000018cc7b5,7kzk9a67tv,"Deep vs Shallow",1,315,2020-07-08T14:53:42-07:00,3.485151052475,3,versionC_stim.csv,RLVersionC.csv,"Realational Version C","Relational, read only version C",REVENGE,EVEN,Study2,F,122,122,Test,User,-,,Recall,Recall2,3091,even,100,1996,2260,1,1,,1
5aaa7bde56c51000018cc7b5,7kzk9a67tv,"Deep vs Shallow",1,316,2020-07-08T14:53:46-07:00,3.7633469104767,3,versionC_stim.csv,RLVersionC.csv,"Realational Version C","Relational, read only version C",TRUTHFUL,HONEST,Study2,F,133,97,Test,User,-,,Recall,Recall2,3371,,0,-1,-1,0,0,,1
5aaa7bde56c51000018cc7b5,7kzk9a67tv,"Deep vs Shallow",1,317,2020-07-08T14:53:49-07:00,3.3670899868011,3,versionC_stim.csv,RLVersionC.csv,"Realational Version C","Relational, read only version C",CLOTH,STRETCH,Study2,U,157,152,Test,User,-,,Recall,Recall2,2976,,0,-1,-1,0,0,,1
5aaa7bde56c51000018cc7b5,7kzk9a67tv,"Deep vs Shallow",1,318,2020-07-08T14:53:53-07:00,3.7697370052338,3,versionC_stim.csv,RLVersionC.csv,"Realational Version C","Relational, read only version C",SHAVE,RAZOR,Study2,S,136,165,Test,User,-,,Recall,Recall2,3345,razor,100,1726,3007,1,1,,1
5aaa7bde56c51000018cc7b5,7kzk9a67tv,"Deep vs Shallow",1,319,2020-07-08T14:54:00-07:00,7.2043361663818,3,versionC_stim.csv,RLVersionC.csv,"Realational Version C","Relational, read only version C",RED,CHERRY,Study2,B,104,134,Test,User,-,,Recall,Recall2,6821,,0,-1,-1,0,0,,1
5aaa7bde56c51000018cc7b5,7kzk9a67tv,"Deep vs Shallow",1,320,2020-07-08T14:54:03-07:00,3.3566989898682,3,versionC_stim.csv,RLVersionC.csv,"Realational Version C","Relational, read only version C",NAP,SLEEP,Study2,F,134,139,Test,User,-,,Recall,Recall2,2972,,0,-1,-1,0,0,,1
5aaa7bde56c51000018cc7b5,7kzk9a67tv,"Deep vs Shallow",1,321,2020-07-08T14:54:11-07:00,7.6189839839935,3,versionC_stim.csv,RLVersionC.csv,"Realational Version C","Relational, read only version C",VILLAIN,BAD,Study2,F,118,131,Test,User,-,,Recall,Recall2,7227,evil,0,5932,6210,0,0,,1
5aaa7bde56c51000018cc7b5,7kzk9a67tv,"Deep vs Shallow",1,322,2020-07-08T14:54:15-07:00,4.2164149284363,3,versionC_stim.csv,RLVersionC.csv,"Realational Version C","Relational, read only version C",REEL,ROD,Study2,S,150,112,Test,User,-,,Recall,Recall2,3807,rod,100,2134,2385,1,1,,1
5aaa7bde56c51000018cc7b5,7kzk9a67tv,"Deep vs Shallow",1,323,2020-07-08T14:54:20-07:00,4.9893801212311,3,versionC_stim.csv,RLVersionC.csv,"Realational Version C","Relational, read only version C",STRAWBERRY,FRUIT,Study2,F,124,176,Test,User,-,,Recall,Recall2,4607,fruit,100,1671,2064,1,1,,1
5aaa7bde56c51000018cc7b5,7kzk9a67tv,"Deep vs Shallow",1,324,2020-07-08T14:54:24-07:00,3.8825619220734,3,versionC_stim.csv,RLVersionC.csv,"Realational Version C","Relational, read only version C",LONELY,ALONE,Study2,S,145,135,Test,User,-,,Recall,Recall2,3500,alone,100,993,1389,1,1,,1
5aaa7bde56c51000018cc7b5,7kzk9a67tv,"Deep vs Shallow",1,325,2020-07-08T14:54:27-07:00,3.330883026123,3,versionC_stim.csv,RLVersionC.csv,"Realational Version C","Relational, read only version C",TRASH,LITTER,Study2,B,103,169,Test,User,-,,Recall,Recall2,2945,,0,-1,-1,0,0,,1
5aaa7bde56c51000018cc7b5,7kzk9a67tv,"Deep vs Shallow",1,326,2020-07-08T14:54:42-07:00,15.226758003235,3,versionC_stim.csv,RLVersionC.csv,"Realational Version C","Relational, read only version C",ABLE,CRACKLE,Study2,U,162,125,Test,User,-,,Recall,Recall2,14828,crackle,100,2962,14549,1,1,,1
5aaa7bde56c51000018cc7b5,7kzk9a67tv,"Deep vs Shallow",1,327,2020-07-08T14:54:46-07:00,3.2960648536682,3,versionC_stim.csv,RLVersionC.csv,"Realational Version C","Relational, read only version C",END,ADJOURN,Study2,B,101,158,Test,User,-,,Recall,Recall2,2898,,0,-1,-1,0,0,,1
5aaa7bde56c51000018cc7b5,7kzk9a67tv,"Deep vs Shallow",1,328,2020-07-08T14:54:52-07:00,5.8797211647034,3,versionC_stim.csv,RLVersionC.csv,"Realational Version C","Relational, read only version C",LOVE,AFFECTION,Study2,B,115,124,Test,User,-,,Recall,Recall2,687,,0,-1,-1,0,0,,1
5aaa7bde56c51000018cc7b5,7kzk9a67tv,"Deep vs Shallow",1,329,2020-07-08T14:55:01-07:00,9.7712550163269,3,versionC_stim.csv,RLVersionC.csv,"Realational Version C","Relational, read only version C",SHAKE,Shell,Study2,U,163,120,Test,User,-,,Recall,Recall2,8242,children,30.769230769231,2564,5108,0,0,,1
5aaa7bde56c51000018cc7b5,7kzk9a67tv,"Deep vs Shallow",1,330,2020-07-08T14:55:09-07:00,7.6228458881378,3,versionC_stim.csv,RLVersionC.csv,"Realational Version C","Relational, read only version C",NOISE,LOUD,Study2,S,152,111,Test,User,-,,Recall,Recall2,7191,loud,100,1912,6520,1,1,,1
5aaa7bde56c51000018cc7b5,7kzk9a67tv,"Deep vs Shallow",1,331,2020-07-08T14:55:16-07:00,6.4722769260406,3,versionC_stim.csv,RLVersionC.csv,"Realational Version C","Relational, read only version C",SCISSORS,SHEARS,Study2,B,112,126,Test,User,-,,Recall,Recall2,6029,shears,100,1228,1851,1,1,,1
5aaa7bde56c51000018cc7b5,7kzk9a67tv,"Deep vs Shallow",1,332,2020-07-08T14:55:24-07:00,8.9112510681152,3,versionC_stim.csv,RLVersionC.csv,"Realational Version C","Relational, read only version C",LONG,EXTENSION,Study2,B,96,110,Test,User,-,,Recall,Recall2,8517,extension,100,4875,6868,1,1,,1
5aaa7bde56c51000018cc7b5,7kzk9a67tv,"Deep vs Shallow",1,333,2020-07-08T14:55:50-07:00,25.280571937561,3,versionC_stim.csv,RLVersionC.csv,"Realational Version C","Relational, read only version C",ELECTION,MAZE,Study2,U,159,155,Test,User,-,,Recall,Recall2,24900,,0,-1,-1,0,0,,1
5aaa7bde56c51000018cc7b5,7kzk9a67tv,"Deep vs Shallow",1,334,2020-07-08T14:55:51-07:00,1.7450520992279,3,versionC_stim.csv,RLVersionC.csv,"Realational Version C","Relational, read only version C",GROUND,EARTH,Study2,S,144,123,Test,User,-,,Recall,Recall2,1448,,0,-1,-1,0,0,,1
5aaa7bde56c51000018cc7b5,7kzk9a67tv,"Deep vs Shallow",1,335,2020-07-08T14:55:56-07:00,4.7814400196075,3,versionC_stim.csv,RLVersionC.csv,"Realational Version C","Relational, read only version C",LEAGUE,BASEBALL,Study2,F,131,173,Test,User,-,,Recall,Recall2,4385,baseball,100,1967,3397,1,1,,1
5aaa7bde56c51000018cc7b5,7kzk9a67tv,"Deep vs Shallow",1,336,2020-07-08T14:56:00-07:00,3.8579699993134,3,versionC_stim.csv,RLVersionC.csv,"Realational Version C","Relational, read only version C",THIMBLE,THREAD,Study2,F,121,140,Test,User,-,,Recall,Recall2,2469,thread,100,1750,2218,1,1,,1
5aaa7bde56c51000018cc7b5,7kzk9a67tv,"Deep vs Shallow",1,337,2020-07-08T14:56:06-07:00,6.1226119995117,3,versionC_stim.csv,RLVersionC.csv,"Realational Version C","Relational, read only version C",BANKER,MONEY,Study2,F,132,100,Test,User,-,,Recall,Recall2,5706,money,100,2818,4696,1,1,,1
5aaa7bde56c51000018cc7b5,7kzk9a67tv,"Deep vs Shallow",1,338,2020-07-08T14:56:08-07:00,2.0076620578766,3,versionC_stim.csv,RLVersionC.csv,"Realational Version C","Relational, read only version C",FAVORITE,BEST,Study2,F,125,128,Test,User,-,,Recall,Recall2,1705,,0,-1,-1,0,0,,1
5aaa7bde56c51000018cc7b5,7kzk9a67tv,"Deep vs Shallow",1,339,2020-07-08T14:56:12-07:00,3.8341529369354,3,versionC_stim.csv,RLVersionC.csv,"Realational Version C","Relational, read only version C",WAX,CANDLE,Study2,S,139,175,Test,User,-,,Recall,Recall2,3407,candle,100,1568,2013,1,1,,1
5aaa7bde56c51000018cc7b5,7kzk9a67tv,"Deep vs Shallow",1,340,2020-07-08T14:56:15-07:00,3.2158598899841,3,versionC_stim.csv,RLVersionC.csv,"Realational Version C","Relational, read only version C",CLOTHES,CAKE,Study2,U,166,116,Test,User,-,,Recall,Recall2,2819,,0,-1,-1,0,0,,1
5aaa7bde56c51000018cc7b5,7kzk9a67tv,"Deep vs Shallow",1,341,2020-07-08T14:56:18-07:00,2.5787100791931,3,versionC_stim.csv,RLVersionC.csv,"Realational Version C","Relational, read only version C",TOIL,LEASE,Study2,U,170,118,Test,User,-,,Recall,Recall2,2101,,0,-1,-1,0,0,,1
5aaa7bde56c51000018cc7b5,7kzk9a67tv,"Deep vs Shallow",1,342,2020-07-08T14:56:22-07:00,3.8335769176483,3,versionC_stim.csv,RLVersionC.csv,"Realational Version C","Relational, read only version C",PLANT,CACTUS,Study2,B,98,144,Test,User,-,,Recall,Recall2,3444,,0,-1,-1,0,0,,1
5aaa7bde56c51000018cc7b5,7kzk9a67tv,"Deep vs Shallow",1,343,2020-07-08T14:56:24-07:00,2.6041131019592,3,versionC_stim.csv,RLVersionC.csv,"Realational Version C","Relational, read only version C",BRAWL,FIGHT,Study2,F,135,130,Test,User,-,,Recall,Recall2,2220,fight,100,1111,1465,1,1,,1
5aaa7bde56c51000018cc7b5,7kzk9a67tv,"Deep vs Shallow",1,344,2020-07-08T14:56:28-07:00,3.8960919380188,3,versionC_stim.csv,RLVersionC.csv,"Realational Version C","Relational, read only version C",CUT,CHOP,Study2,B,107,106,Test,User,-,,Recall,Recall2,3470,chop,100,1468,1803,1,1,,1
5aaa7bde56c51000018cc7b5,7kzk9a67tv,"Deep vs Shallow",1,345,2020-07-08T14:56:34-07:00,6.1995401382446,3,versionC_stim.csv,RLVersionC.csv,"Realational Version C","Relational, read only version C",CHARM,VEHICLE,Study2,U,160,172,Test,User,-,,Recall,Recall2,5810,car,20,3656,4311,0,0,,1
5aaa7bde56c51000018cc7b5,7kzk9a67tv,"Deep vs Shallow",1,346,2020-07-08T14:56:39-07:00,4.117607831955,3,versionC_stim.csv,RLVersionC.csv,"Realational Version C","Relational, read only version C",DONKEY,MULE,Study2,B,108,105,Test,User,-,,Recall,Recall2,3714,mule,100,1272,2262,1,1,,1
5aaa7bde56c51000018cc7b5,7kzk9a67tv,"Deep vs Shallow",1,347,2020-07-08T14:56:42-07:00,3.1344101428986,3,versionC_stim.csv,RLVersionC.csv,"Realational Version C","Relational, read only version C",HATE,NAME,Study2,U,167,99,Test,User,-,,Recall,Recall2,2746,,0,-1,-1,0,0,,1
