Username,ID,ExperimentName,Session,Trial,Date,TimeDif,"Condition Number","Stimuli File","Order File","Condition Description","Condition Notes",Stimuli*Cue,Stimuli*Answer,Stimuli*Shuffle,"Stimuli*Stimuli Notes",Stimuli*Value,Procedure*Item,"Procedure*Trial Type","Procedure*Max Time","Procedure*Min Time",Procedure*Text,"Procedure*Procedure Notes",Procedure*Shuffle,Response*RT,Response*Response,Response*Accuracy,Response*RTfirst,Response*RTlast,Response*strictAcc,Response*lenientAcc,Response*focus,Response*Focus
5efa7db7141eff8c991bf737,cicba0f55i,"Deep vs Shallow",1,1,2020-07-08T14:30:36-07:00,12.766378164291,4,versionC_stim.csv,RLVersionD.csv,"Relational Version D","Relational, read only version D",,,,,,0,Instruct,-,10,"In this section, you will be presented with a series of word pairs. Please study both items in the pair.",,Instruct13,11292,,,-1,-1,,,,1
5efa7db7141eff8c991bf737,cicba0f55i,"Deep vs Shallow",1,2,2020-07-08T14:32:19-07:00,103.24788689613,4,versionC_stim.csv,RLVersionD.csv,"Relational Version D","Relational, read only version D",,,,,,0,Instruct,-,15,"As you study, please think about how the two concepts are RELATED to each other. For example, if you see the pair TURTLE-CAT, think about how both are alive, they are both animals, and both can be kept as pets.",,Instruct19,102658,,,-1,-1,,,,0.156
5efa7db7141eff8c991bf737,cicba0f55i,"Deep vs Shallow",1,3,2020-07-08T14:32:49-07:00,29.600158929825,4,versionC_stim.csv,RLVersionD.csv,"Relational Version D","Relational, read only version D",,,,,,0,FreeRecall,-,10,"What you should think about as you study each item pair? Type your response in the box below.",,CHECK1,28659,"How they are related and similar to each other - as many connections between the two words as possible ",0,6944,27233,0,0,,1
5efa7db7141eff8c991bf737,cicba0f55i,"Deep vs Shallow",1,4,2020-07-08T14:32:52-07:00,3.7032420635223,4,versionC_stim.csv,RLVersionD.csv,"Relational Version D","Relational, read only version D",,,,,,0,Instruct,User,-,"You will now begin the experiment. Press ENTER when you are ready to begin.",,Instruct000,2037,,,-1,-1,,,,1
5efa7db7141eff8c991bf737,cicba0f55i,"Deep vs Shallow",1,5,2020-07-08T14:33:04-07:00,11.791827917099,4,versionC_stim.csv,RLVersionD.csv,"Relational Version D","Relational, read only version D",FROZEN,ICE,BUFFER3,Buffer,94,93,Study,User,-,,Study/JOL,BUFFER,11296,,,-1,-1,,,,1
5efa7db7141eff8c991bf737,cicba0f55i,"Deep vs Shallow",1,6,2020-07-08T14:33:08-07:00,3.6363019943237,4,versionC_stim.csv,RLVersionD.csv,"Relational Version D","Relational, read only version D",STRING,NOODLE,BUFFER3,Buffer,92,94,Study,User,-,,Study/JOL,BUFFER,3077,,,-1,-1,,,,1
5efa7db7141eff8c991bf737,cicba0f55i,"Deep vs Shallow",1,7,2020-07-08T14:33:10-07:00,2.4475471973419,4,versionC_stim.csv,RLVersionD.csv,"Relational Version D","Relational, read only version D",ADVENTURE,CAMP,BUFFER3,Buffer,95,92,Study,User,-,,Study/JOL,BUFFER,1980,,,-1,-1,,,,1
5efa7db7141eff8c991bf737,cicba0f55i,"Deep vs Shallow",1,8,2020-07-08T14:33:13-07:00,2.4709949493408,4,versionC_stim.csv,RLVersionD.csv,"Relational Version D","Relational, read only version D",FISH,SHRIMP,BUFFER3,Buffer,93,96,Study,User,-,,Study/JOL,BUFFER,2018,,,-1,-1,,,,1
5efa7db7141eff8c991bf737,cicba0f55i,"Deep vs Shallow",1,9,2020-07-08T14:33:16-07:00,3.5153410434723,4,versionC_stim.csv,RLVersionD.csv,"Relational Version D","Relational, read only version D",POTATO,CARROT,BUFFER3,Buffer,91,95,Study,User,-,,Study/JOL,BUFFER,2157,,,-1,-1,,,,1
5efa7db7141eff8c991bf737,cicba0f55i,"Deep vs Shallow",1,10,2020-07-08T14:33:18-07:00,2.2454450130463,4,versionC_stim.csv,RLVersionD.csv,"Relational Version D","Relational, read only version D",CHILDREN,MIRROR,Study2,U,174,121,Study,User,-,,Study/JOL,"Study Phase",1634,,,-1,-1,,,,1
5efa7db7141eff8c991bf737,cicba0f55i,"Deep vs Shallow",1,11,2020-07-08T14:33:21-07:00,2.2038209438324,4,versionC_stim.csv,RLVersionD.csv,"Relational Version D","Relational, read only version D",CLOTH,STRETCH,Study2,U,157,99,Study,User,-,,Study/JOL,"Study Phase",1582,,,-1,-1,,,,1
5efa7db7141eff8c991bf737,cicba0f55i,"Deep vs Shallow",1,12,2020-07-08T14:33:23-07:00,2.2428300380707,4,versionC_stim.csv,RLVersionD.csv,"Relational Version D","Relational, read only version D",FLIP,TURN,Study2,F,116,128,Study,User,-,,Study/JOL,"Study Phase",1607,,,-1,-1,,,,1
5efa7db7141eff8c991bf737,cicba0f55i,"Deep vs Shallow",1,13,2020-07-08T14:33:27-07:00,3.6033978462219,4,versionC_stim.csv,RLVersionD.csv,"Relational Version D","Relational, read only version D",PENGUIN,BIRD,Study2,F,119,120,Study,User,-,,Study/JOL,"Study Phase",3086,,,-1,-1,,,,1
5efa7db7141eff8c991bf737,cicba0f55i,"Deep vs Shallow",1,14,2020-07-08T14:33:29-07:00,2.4060020446777,4,versionC_stim.csv,RLVersionD.csv,"Relational Version D","Relational, read only version D",HAVE,OWN,Study2,S,153,131,Study,User,-,,Study/JOL,"Study Phase",1916,,,-1,-1,,,,1
5efa7db7141eff8c991bf737,cicba0f55i,"Deep vs Shallow",1,15,2020-07-08T14:33:31-07:00,2.3800549507141,4,versionC_stim.csv,RLVersionD.csv,"Relational Version D","Relational, read only version D",VILLAIN,BAD,Study2,F,118,166,Study,User,-,,Study/JOL,"Study Phase",1857,,,-1,-1,,,,1
5efa7db7141eff8c991bf737,cicba0f55i,"Deep vs Shallow",1,16,2020-07-08T14:33:36-07:00,4.892587184906,4,versionC_stim.csv,RLVersionD.csv,"Relational Version D","Relational, read only version D",MAROON,JUSTICE,Study2,U,156,101,Study,User,-,,Study/JOL,"Study Phase",4449,,,-1,-1,,,,1
5efa7db7141eff8c991bf737,cicba0f55i,"Deep vs Shallow",1,17,2020-07-08T14:33:39-07:00,3.1366229057312,4,versionC_stim.csv,RLVersionD.csv,"Relational Version D","Relational, read only version D",ELECTION,MAZE,Study2,U,159,171,Study,User,-,,Study/JOL,"Study Phase",2668,,,-1,-1,,,,1
5efa7db7141eff8c991bf737,cicba0f55i,"Deep vs Shallow",1,18,2020-07-08T14:33:44-07:00,4.4604930877686,4,versionC_stim.csv,RLVersionD.csv,"Relational Version D","Relational, read only version D",SHAVE,RAZOR,Study2,S,136,174,Study,User,-,,Study/JOL,"Study Phase",2020,,,-1,-1,,,,1
5efa7db7141eff8c991bf737,cicba0f55i,"Deep vs Shallow",1,19,2020-07-08T14:33:46-07:00,2.3530678749084,4,versionC_stim.csv,RLVersionD.csv,"Relational Version D","Relational, read only version D",JAR,MASON,Study2,S,138,130,Study,User,-,,Study/JOL,"Study Phase",1902,,,-1,-1,,,,1
5efa7db7141eff8c991bf737,cicba0f55i,"Deep vs Shallow",1,20,2020-07-08T14:33:49-07:00,2.5626840591431,4,versionC_stim.csv,RLVersionD.csv,"Relational Version D","Relational, read only version D",CHARM,VEHICLE,Study2,U,160,123,Study,User,-,,Study/JOL,"Study Phase",1417,,,-1,-1,,,,1
5efa7db7141eff8c991bf737,cicba0f55i,"Deep vs Shallow",1,21,2020-07-08T14:33:53-07:00,4.0840849876404,4,versionC_stim.csv,RLVersionD.csv,"Relational Version D","Relational, read only version D",PAPER,DOCUMENT,Study2,B,109,117,Study,User,-,,Study/JOL,"Study Phase",3638,,,-1,-1,,,,1
5efa7db7141eff8c991bf737,cicba0f55i,"Deep vs Shallow",1,22,2020-07-08T14:33:56-07:00,2.7847909927368,4,versionC_stim.csv,RLVersionD.csv,"Relational Version D","Relational, read only version D",CLEAR,MOAT,Study2,U,169,97,Study,User,-,,Study/JOL,"Study Phase",2331,,,-1,-1,,,,1
5efa7db7141eff8c991bf737,cicba0f55i,"Deep vs Shallow",1,23,2020-07-08T14:33:58-07:00,2.0153770446777,4,versionC_stim.csv,RLVersionD.csv,"Relational Version D","Relational, read only version D",BALLOON,POP,Study2,F,123,143,Study,User,-,,Study/JOL,"Study Phase",1574,,,-1,-1,,,,1
5efa7db7141eff8c991bf737,cicba0f55i,"Deep vs Shallow",1,24,2020-07-08T14:34:01-07:00,3.0707859992981,4,versionC_stim.csv,RLVersionD.csv,"Relational Version D","Relational, read only version D",ACTRESS,STAR,Study2,F,120,138,Study,User,-,,Study/JOL,"Study Phase",2658,,,-1,-1,,,,1
5efa7db7141eff8c991bf737,cicba0f55i,"Deep vs Shallow",1,25,2020-07-08T14:34:05-07:00,4.3984580039978,4,versionC_stim.csv,RLVersionD.csv,"Relational Version D","Relational, read only version D",JOKE,KEYS,Study2,U,165,150,Study,User,-,,Study/JOL,"Study Phase",4007,,,-1,-1,,,,1
5efa7db7141eff8c991bf737,cicba0f55i,"Deep vs Shallow",1,26,2020-07-08T14:34:08-07:00,2.8638799190521,4,versionC_stim.csv,RLVersionD.csv,"Relational Version D","Relational, read only version D",FAVORITE,BEST,Study2,F,125,153,Study,User,-,,Study/JOL,"Study Phase",2221,,,-1,-1,,,,1
5efa7db7141eff8c991bf737,cicba0f55i,"Deep vs Shallow",1,27,2020-07-08T14:34:11-07:00,3.0220839977264,4,versionC_stim.csv,RLVersionD.csv,"Relational Version D","Relational, read only version D",SMELL,INCENSE,Study2,B,110,156,Study,User,-,,Study/JOL,"Study Phase",2446,,,-1,-1,,,,1
5efa7db7141eff8c991bf737,cicba0f55i,"Deep vs Shallow",1,28,2020-07-08T14:34:14-07:00,3.4404189586639,4,versionC_stim.csv,RLVersionD.csv,"Relational Version D","Relational, read only version D",WAX,CANDLE,Study2,S,139,119,Study,User,-,,Study/JOL,"Study Phase",2996,,,-1,-1,,,,1
5efa7db7141eff8c991bf737,cicba0f55i,"Deep vs Shallow",1,29,2020-07-08T14:34:20-07:00,5.6231110095978,4,versionC_stim.csv,RLVersionD.csv,"Relational Version D","Relational, read only version D",LONG,EXTENSION,Study2,B,96,160,Study,User,-,,Study/JOL,"Study Phase",5194,,,-1,-1,,,,1
5efa7db7141eff8c991bf737,cicba0f55i,"Deep vs Shallow",1,30,2020-07-08T14:34:22-07:00,1.9857630729675,4,versionC_stim.csv,RLVersionD.csv,"Relational Version D","Relational, read only version D",FICTION,LISTEN,Study2,U,164,161,Study,User,-,,Study/JOL,"Study Phase",1605,,,-1,-1,,,,1
5efa7db7141eff8c991bf737,cicba0f55i,"Deep vs Shallow",1,31,2020-07-08T14:34:24-07:00,1.7471139431,4,versionC_stim.csv,RLVersionD.csv,"Relational Version D","Relational, read only version D",REEL,ROD,Study2,S,150,148,Study,User,-,,Study/JOL,"Study Phase",1301,,,-1,-1,,,,1
5efa7db7141eff8c991bf737,cicba0f55i,"Deep vs Shallow",1,32,2020-07-08T14:34:25-07:00,1.3579289913177,4,versionC_stim.csv,RLVersionD.csv,"Relational Version D","Relational, read only version D",CAR,DRIVER,Study2,B,106,126,Study,User,-,,Study/JOL,"Study Phase",919,,,-1,-1,,,,1
5efa7db7141eff8c991bf737,cicba0f55i,"Deep vs Shallow",1,33,2020-07-08T14:34:27-07:00,1.8954901695251,4,versionC_stim.csv,RLVersionD.csv,"Relational Version D","Relational, read only version D",WET,DRY,Study2,S,146,108,Study,User,-,,Study/JOL,"Study Phase",1459,,,-1,-1,,,,1
5efa7db7141eff8c991bf737,cicba0f55i,"Deep vs Shallow",1,34,2020-07-08T14:34:29-07:00,1.5520417690277,4,versionC_stim.csv,RLVersionD.csv,"Relational Version D","Relational, read only version D",NAP,SLEEP,Study2,F,134,124,Study,User,-,,Study/JOL,"Study Phase",1049,,,-1,-1,,,,1
5efa7db7141eff8c991bf737,cicba0f55i,"Deep vs Shallow",1,35,2020-07-08T14:34:32-07:00,3.2756972312927,4,versionC_stim.csv,RLVersionD.csv,"Relational Version D","Relational, read only version D",OUNCE,BOTH,Study2,U,172,158,Study,User,-,,Study/JOL,"Study Phase",1781,,,-1,-1,,,,1
5efa7db7141eff8c991bf737,cicba0f55i,"Deep vs Shallow",1,36,2020-07-08T14:34:33-07:00,1.2466568946838,4,versionC_stim.csv,RLVersionD.csv,"Relational Version D","Relational, read only version D",GAME,CLUE,Study2,B,97,155,Study,User,-,,Study/JOL,"Study Phase",721,,,-1,-1,,,,1
5efa7db7141eff8c991bf737,cicba0f55i,"Deep vs Shallow",1,37,2020-07-08T14:34:35-07:00,2.2763609886169,4,versionC_stim.csv,RLVersionD.csv,"Relational Version D","Relational, read only version D",SHAKE,Shell,Study2,U,163,167,Study,User,-,,Study/JOL,"Study Phase",1731,,,-1,-1,,,,1
5efa7db7141eff8c991bf737,cicba0f55i,"Deep vs Shallow",1,38,2020-07-08T14:34:38-07:00,3.022509098053,4,versionC_stim.csv,RLVersionD.csv,"Relational Version D","Relational, read only version D",TAN,SUN,Study2,S,155,173,Study,User,-,,Study/JOL,"Study Phase",1530,,,-1,-1,,,,1
5efa7db7141eff8c991bf737,cicba0f55i,"Deep vs Shallow",1,39,2020-07-08T14:34:43-07:00,4.471442937851,4,versionC_stim.csv,RLVersionD.csv,"Relational Version D","Relational, read only version D",TRUTHFUL,HONEST,Study2,F,133,159,Study,User,-,,Study/JOL,"Study Phase",3954,,,-1,-1,,,,1
5efa7db7141eff8c991bf737,cicba0f55i,"Deep vs Shallow",1,40,2020-07-08T14:34:45-07:00,2.0226080417633,4,versionC_stim.csv,RLVersionD.csv,"Relational Version D","Relational, read only version D",LEAGUE,BASEBALL,Study2,F,131,135,Study,User,-,,Study/JOL,"Study Phase",1559,,,-1,-1,,,,1
5efa7db7141eff8c991bf737,cicba0f55i,"Deep vs Shallow",1,41,2020-07-08T14:34:48-07:00,2.772225856781,4,versionC_stim.csv,RLVersionD.csv,"Relational Version D","Relational, read only version D",TICK,FLEA,Study2,S,151,114,Study,User,-,,Study/JOL,"Study Phase",2333,,,-1,-1,,,,1
5efa7db7141eff8c991bf737,cicba0f55i,"Deep vs Shallow",1,42,2020-07-08T14:34:51-07:00,2.9046950340271,4,versionC_stim.csv,RLVersionD.csv,"Relational Version D","Relational, read only version D",GROUND,EARTH,Study2,S,144,127,Study,User,-,,Study/JOL,"Study Phase",2397,,,-1,-1,,,,1
5efa7db7141eff8c991bf737,cicba0f55i,"Deep vs Shallow",1,43,2020-07-08T14:34:53-07:00,2.7212660312653,4,versionC_stim.csv,RLVersionD.csv,"Relational Version D","Relational, read only version D",RED,CHERRY,Study2,B,104,152,Study,User,-,,Study/JOL,"Study Phase",2320,,,-1,-1,,,,1
5efa7db7141eff8c991bf737,cicba0f55i,"Deep vs Shallow",1,44,2020-07-08T14:34:57-07:00,4.0597810745239,4,versionC_stim.csv,RLVersionD.csv,"Relational Version D","Relational, read only version D",,,,,,0,Instruct,-,3,"Remember to focus on how the two items are similiar while you study!",,CHECK2,3646,,,-1,-1,,,,1
5efa7db7141eff8c991bf737,cicba0f55i,"Deep vs Shallow",1,45,2020-07-08T14:35:02-07:00,4.222806930542,4,versionC_stim.csv,RLVersionD.csv,"Relational Version D","Relational, read only version D",TIE,SHOELACE,Study2,B,99,162,Study,User,-,,Study/JOL,"Study Phase",3775,,,-1,-1,,,,1
5efa7db7141eff8c991bf737,cicba0f55i,"Deep vs Shallow",1,46,2020-07-08T14:35:05-07:00,3.7246940135956,4,versionC_stim.csv,RLVersionD.csv,"Relational Version D","Relational, read only version D",LONELY,ALONE,Study2,S,145,115,Study,User,-,,Study/JOL,"Study Phase",3229,,,-1,-1,,,,1
5efa7db7141eff8c991bf737,cicba0f55i,"Deep vs Shallow",1,47,2020-07-08T14:35:08-07:00,2.3787438869476,4,versionC_stim.csv,RLVersionD.csv,"Relational Version D","Relational, read only version D",DONKEY,MULE,Study2,B,108,141,Study,User,-,,Study/JOL,"Study Phase",1906,,,-1,-1,,,,1
5efa7db7141eff8c991bf737,cicba0f55i,"Deep vs Shallow",1,48,2020-07-08T14:35:15-07:00,7.2780530452728,4,versionC_stim.csv,RLVersionD.csv,"Relational Version D","Relational, read only version D",OBTAIN,MEAT,Study2,U,161,147,Study,User,-,,Study/JOL,"Study Phase",4434,,,-1,-1,,,,1
5efa7db7141eff8c991bf737,cicba0f55i,"Deep vs Shallow",1,49,2020-07-08T14:35:17-07:00,2.0428719520569,4,versionC_stim.csv,RLVersionD.csv,"Relational Version D","Relational, read only version D",FIGHT,FEUD,Study2,B,113,116,Study,User,-,,Study/JOL,"Study Phase",1561,,,-1,-1,,,,1
5efa7db7141eff8c991bf737,cicba0f55i,"Deep vs Shallow",1,50,2020-07-08T14:35:19-07:00,1.8128440380096,4,versionC_stim.csv,RLVersionD.csv,"Relational Version D","Relational, read only version D",SEATBELT,SAFETY,Study2,S,147,175,Study,User,-,,Study/JOL,"Study Phase",1357,,,-1,-1,,,,1
5efa7db7141eff8c991bf737,cicba0f55i,"Deep vs Shallow",1,51,2020-07-08T14:35:23-07:00,4.095165014267,4,versionC_stim.csv,RLVersionD.csv,"Relational Version D","Relational, read only version D",Morning,TEMPERATURE,Study2,U,173,145,Study,User,-,,Study/JOL,"Study Phase",3644,,,-1,-1,,,,1
5efa7db7141eff8c991bf737,cicba0f55i,"Deep vs Shallow",1,52,2020-07-08T14:35:25-07:00,2.1164050102234,4,versionC_stim.csv,RLVersionD.csv,"Relational Version D","Relational, read only version D",PLANT,CACTUS,Study2,B,98,146,Study,User,-,,Study/JOL,"Study Phase",1675,,,-1,-1,,,,1
5efa7db7141eff8c991bf737,cicba0f55i,"Deep vs Shallow",1,53,2020-07-08T14:35:29-07:00,4.2165479660034,4,versionC_stim.csv,RLVersionD.csv,"Relational Version D","Relational, read only version D",COFFIN,DEAD,Study2,F,128,151,Study,User,-,,Study/JOL,"Study Phase",1698,,,-1,-1,,,,1
5efa7db7141eff8c991bf737,cicba0f55i,"Deep vs Shallow",1,54,2020-07-08T14:35:31-07:00,1.9002981185913,4,versionC_stim.csv,RLVersionD.csv,"Relational Version D","Relational, read only version D",END,ADJOURN,Study2,B,101,107,Study,User,-,,Study/JOL,"Study Phase",1502,,,-1,-1,,,,1
5efa7db7141eff8c991bf737,cicba0f55i,"Deep vs Shallow",1,55,2020-07-08T14:35:36-07:00,4.6353158950806,4,versionC_stim.csv,RLVersionD.csv,"Relational Version D","Relational, read only version D",CARBON,ELEMENT,Study2,S,141,170,Study,User,-,,Study/JOL,"Study Phase",4237,,,-1,-1,,,,1
5efa7db7141eff8c991bf737,cicba0f55i,"Deep vs Shallow",1,56,2020-07-08T14:35:43-07:00,7.2693800926208,4,versionC_stim.csv,RLVersionD.csv,"Relational Version D","Relational, read only version D",TOIL,LEASE,Study2,U,170,111,Study,User,-,,Study/JOL,"Study Phase",6870,,,-1,-1,,,,1
5efa7db7141eff8c991bf737,cicba0f55i,"Deep vs Shallow",1,57,2020-07-08T14:35:45-07:00,1.8342080116272,4,versionC_stim.csv,RLVersionD.csv,"Relational Version D","Relational, read only version D",WINDSHIELD,CAR,Study2,F,117,169,Study,User,-,,Study/JOL,"Study Phase",1426,,,-1,-1,,,,1
5efa7db7141eff8c991bf737,cicba0f55i,"Deep vs Shallow",1,58,2020-07-08T14:35:46-07:00,1.5327470302582,4,versionC_stim.csv,RLVersionD.csv,"Relational Version D","Relational, read only version D",SIGN,LOAN,Study2,U,171,113,Study,User,-,,Study/JOL,"Study Phase",1096,,,-1,-1,,,,1
5efa7db7141eff8c991bf737,cicba0f55i,"Deep vs Shallow",1,59,2020-07-08T14:35:48-07:00,1.906124830246,4,versionC_stim.csv,RLVersionD.csv,"Relational Version D","Relational, read only version D",TEMPER,TANTRUM,Study2,S,154,154,Study,User,-,,Study/JOL,"Study Phase",1535,,,-1,-1,,,,1
5efa7db7141eff8c991bf737,cicba0f55i,"Deep vs Shallow",1,60,2020-07-08T14:35:51-07:00,2.2314450740814,4,versionC_stim.csv,RLVersionD.csv,"Relational Version D","Relational, read only version D",TRASH,LITTER,Study2,B,103,137,Study,User,-,,Study/JOL,"Study Phase",1728,,,-1,-1,,,,1
5efa7db7141eff8c991bf737,cicba0f55i,"Deep vs Shallow",1,61,2020-07-08T14:35:53-07:00,2.2744989395142,4,versionC_stim.csv,RLVersionD.csv,"Relational Version D","Relational, read only version D",BRACELET,WRIST,Study2,S,140,110,Study,User,-,,Study/JOL,"Study Phase",1771,,,-1,-1,,,,1
5efa7db7141eff8c991bf737,cicba0f55i,"Deep vs Shallow",1,62,2020-07-08T14:35:54-07:00,1.5830290317535,4,versionC_stim.csv,RLVersionD.csv,"Relational Version D","Relational, read only version D",EAT,DINE,Study2,B,111,176,Study,User,-,,Study/JOL,"Study Phase",1125,,,-1,-1,,,,1
5efa7db7141eff8c991bf737,cicba0f55i,"Deep vs Shallow",1,63,2020-07-08T14:35:57-07:00,2.9258639812469,4,versionC_stim.csv,RLVersionD.csv,"Relational Version D","Relational, read only version D",ABLE,CRACKLE,Study2,U,162,134,Study,User,-,,Study/JOL,"Study Phase",2469,,,-1,-1,,,,1
5efa7db7141eff8c991bf737,cicba0f55i,"Deep vs Shallow",1,64,2020-07-08T14:36:00-07:00,2.9940731525421,4,versionC_stim.csv,RLVersionD.csv,"Relational Version D","Relational, read only version D",SARDINE,FISH,Study2,F,130,149,Study,User,-,,Study/JOL,"Study Phase",2548,,,-1,-1,,,,1
5efa7db7141eff8c991bf737,cicba0f55i,"Deep vs Shallow",1,65,2020-07-08T14:36:02-07:00,1.5114078521729,4,versionC_stim.csv,RLVersionD.csv,"Relational Version D","Relational, read only version D",BANKER,MONEY,Study2,F,132,106,Study,User,-,,Study/JOL,"Study Phase",1100,,,-1,-1,,,,1
5efa7db7141eff8c991bf737,cicba0f55i,"Deep vs Shallow",1,66,2020-07-08T14:36:03-07:00,1.5635890960693,4,versionC_stim.csv,RLVersionD.csv,"Relational Version D","Relational, read only version D",MYSTERY,DETECTIVE,Study2,B,100,100,Study,User,-,,Study/JOL,"Study Phase",1168,,,-1,-1,,,,1
5efa7db7141eff8c991bf737,cicba0f55i,"Deep vs Shallow",1,67,2020-07-08T14:36:06-07:00,2.5656268596649,4,versionC_stim.csv,RLVersionD.csv,"Relational Version D","Relational, read only version D",CLOTHES,CAKE,Study2,U,166,102,Study,User,-,,Study/JOL,"Study Phase",2105,,,-1,-1,,,,1
5efa7db7141eff8c991bf737,cicba0f55i,"Deep vs Shallow",1,68,2020-07-08T14:36:12-07:00,5.9694211483002,4,versionC_stim.csv,RLVersionD.csv,"Relational Version D","Relational, read only version D",HEAD,SCALP,Study2,B,105,139,Study,User,-,,Study/JOL,"Study Phase",5458,,,-1,-1,,,,1
5efa7db7141eff8c991bf737,cicba0f55i,"Deep vs Shallow",1,69,2020-07-08T14:36:15-07:00,3.2803509235382,4,versionC_stim.csv,RLVersionD.csv,"Relational Version D","Relational, read only version D",BREAKABLE,GLASS,Study2,F,127,157,Study,User,-,,Study/JOL,"Study Phase",2776,,,-1,-1,,,,1
5efa7db7141eff8c991bf737,cicba0f55i,"Deep vs Shallow",1,70,2020-07-08T14:38:51-07:00,155.62872004509,4,versionC_stim.csv,RLVersionD.csv,"Relational Version D","Relational, read only version D",HATE,NAME,Study2,U,167,103,Study,User,-,,Study/JOL,"Study Phase",151277,,,-1,-1,,,,0.016
5efa7db7141eff8c991bf737,cicba0f55i,"Deep vs Shallow",1,71,2020-07-08T14:38:52-07:00,1.4934148788452,4,versionC_stim.csv,RLVersionD.csv,"Relational Version D","Relational, read only version D",DOG,FURRY,Study2,B,102,136,Study,User,-,,Study/JOL,"Study Phase",938,,,-1,-1,,,,1
5efa7db7141eff8c991bf737,cicba0f55i,"Deep vs Shallow",1,72,2020-07-08T14:38:54-07:00,1.3675611019135,4,versionC_stim.csv,RLVersionD.csv,"Relational Version D","Relational, read only version D",STRAWBERRY,FRUIT,Study2,F,124,129,Study,User,-,,Study/JOL,"Study Phase",813,,,-1,-1,,,,1
5efa7db7141eff8c991bf737,cicba0f55i,"Deep vs Shallow",1,73,2020-07-08T14:38:55-07:00,1.2000529766083,4,versionC_stim.csv,RLVersionD.csv,"Relational Version D","Relational, read only version D",LIE,TRUTH,Study2,S,148,144,Study,User,-,,Study/JOL,"Study Phase",785,,,-1,-1,,,,1
5efa7db7141eff8c991bf737,cicba0f55i,"Deep vs Shallow",1,74,2020-07-08T14:38:56-07:00,1.438276052475,4,versionC_stim.csv,RLVersionD.csv,"Relational Version D","Relational, read only version D",REVENGE,EVEN,Study2,F,122,122,Study,User,-,,Study/JOL,"Study Phase",1007,,,-1,-1,,,,1
5efa7db7141eff8c991bf737,cicba0f55i,"Deep vs Shallow",1,75,2020-07-08T14:38:58-07:00,1.7235000133514,4,versionC_stim.csv,RLVersionD.csv,"Relational Version D","Relational, read only version D",COLD,CHILL,Study2,B,114,140,Study,User,-,,Study/JOL,"Study Phase",1316,,,-1,-1,,,,1
5efa7db7141eff8c991bf737,cicba0f55i,"Deep vs Shallow",1,76,2020-07-08T14:38:59-07:00,0.99783802032471,4,versionC_stim.csv,RLVersionD.csv,"Relational Version D","Relational, read only version D",THIMBLE,THREAD,Study2,F,121,125,Study,User,-,,Study/JOL,"Study Phase",605,,,-1,-1,,,,1
5efa7db7141eff8c991bf737,cicba0f55i,"Deep vs Shallow",1,77,2020-07-08T14:39:00-07:00,1.1746628284454,4,versionC_stim.csv,RLVersionD.csv,"Relational Version D","Relational, read only version D",BRAWL,FIGHT,Study2,F,135,98,Study,User,-,,Study/JOL,"Study Phase",604,,,-1,-1,,,,1
5efa7db7141eff8c991bf737,cicba0f55i,"Deep vs Shallow",1,78,2020-07-08T14:39:01-07:00,1.030130147934,4,versionC_stim.csv,RLVersionD.csv,"Relational Version D","Relational, read only version D",CUT,CHOP,Study2,B,107,112,Study,User,-,,Study/JOL,"Study Phase",628,,,-1,-1,,,,1
5efa7db7141eff8c991bf737,cicba0f55i,"Deep vs Shallow",1,79,2020-07-08T14:39:02-07:00,0.88335990905762,4,versionC_stim.csv,RLVersionD.csv,"Relational Version D","Relational, read only version D",AIRCRAFT,PLANE,Study2,F,129,105,Study,User,-,,Study/JOL,"Study Phase",474,,,-1,-1,,,,1
5efa7db7141eff8c991bf737,cicba0f55i,"Deep vs Shallow",1,80,2020-07-08T14:39:05-07:00,2.6141719818115,4,versionC_stim.csv,RLVersionD.csv,"Relational Version D","Relational, read only version D",SCAR,MAIN,Study2,U,175,133,Study,User,-,,Study/JOL,"Study Phase",1850,,,-1,-1,,,,1
5efa7db7141eff8c991bf737,cicba0f55i,"Deep vs Shallow",1,81,2020-07-08T14:39:06-07:00,1.5553340911865,4,versionC_stim.csv,RLVersionD.csv,"Relational Version D","Relational, read only version D",NOISE,LOUD,Study2,S,152,165,Study,User,-,,Study/JOL,"Study Phase",892,,,-1,-1,,,,1
5efa7db7141eff8c991bf737,cicba0f55i,"Deep vs Shallow",1,82,2020-07-08T14:39:08-07:00,2.1208250522614,4,versionC_stim.csv,RLVersionD.csv,"Relational Version D","Relational, read only version D",COMMUNICATION,PHONE,Study2,S,149,168,Study,User,-,,Study/JOL,"Study Phase",1674,,,-1,-1,,,,1
5efa7db7141eff8c991bf737,cicba0f55i,"Deep vs Shallow",1,83,2020-07-08T14:39:10-07:00,1.5728800296783,4,versionC_stim.csv,RLVersionD.csv,"Relational Version D","Relational, read only version D",AWAY,GONE,Study2,S,142,142,Study,User,-,,Study/JOL,"Study Phase",1047,,,-1,-1,,,,1
5efa7db7141eff8c991bf737,cicba0f55i,"Deep vs Shallow",1,84,2020-07-08T14:39:12-07:00,2.1326909065247,4,versionC_stim.csv,RLVersionD.csv,"Relational Version D","Relational, read only version D",SCISSORS,SHEARS,Study2,B,112,164,Study,User,-,,Study/JOL,"Study Phase",1739,,,-1,-1,,,,1
5efa7db7141eff8c991bf737,cicba0f55i,"Deep vs Shallow",1,85,2020-07-08T14:39:14-07:00,1.3657820224762,4,versionC_stim.csv,RLVersionD.csv,"Relational Version D","Relational, read only version D",DRINK,WATER,Study2,S,143,118,Study,User,-,,Study/JOL,"Study Phase",970,,,-1,-1,,,,1
5efa7db7141eff8c991bf737,cicba0f55i,"Deep vs Shallow",1,86,2020-07-08T14:39:15-07:00,1.8626389503479,4,versionC_stim.csv,RLVersionD.csv,"Relational Version D","Relational, read only version D",EQUAL,RIGHTS,Study2,S,137,172,Study,User,-,,Study/JOL,"Study Phase",1401,,,-1,-1,,,,1
5efa7db7141eff8c991bf737,cicba0f55i,"Deep vs Shallow",1,87,2020-07-08T14:39:17-07:00,1.6143770217896,4,versionC_stim.csv,RLVersionD.csv,"Relational Version D","Relational, read only version D",PANTHER,CAT,Study2,F,126,132,Study,User,-,,Study/JOL,"Study Phase",1204,,,-1,-1,,,,1
5efa7db7141eff8c991bf737,cicba0f55i,"Deep vs Shallow",1,88,2020-07-08T14:39:19-07:00,2.2390840053558,4,versionC_stim.csv,RLVersionD.csv,"Relational Version D","Relational, read only version D",BANG,FUZZY,Study2,U,168,109,Study,User,-,,Study/JOL,"Study Phase",1817,,,-1,-1,,,,1
5efa7db7141eff8c991bf737,cicba0f55i,"Deep vs Shallow",1,89,2020-07-08T14:39:21-07:00,2.2702260017395,4,versionC_stim.csv,RLVersionD.csv,"Relational Version D","Relational, read only version D",LOVE,AFFECTION,Study2,B,115,104,Study,User,-,,Study/JOL,"Study Phase",1745,,,-1,-1,,,,1
5efa7db7141eff8c991bf737,cicba0f55i,"Deep vs Shallow",1,90,2020-07-08T14:39:27-07:00,5.6435670852661,4,versionC_stim.csv,RLVersionD.csv,"Relational Version D","Relational, read only version D",STEAK,GIVE,Study2,U,158,163,Study,User,-,,Study/JOL,"Study Phase",5132,,,-1,-1,,,,1
5efa7db7141eff8c991bf737,cicba0f55i,"Deep vs Shallow",1,91,2020-07-08T14:39:31-07:00,4.0735509395599,4,versionC_stim.csv,RLVersionD.csv,"Relational Version D","Relational, read only version D",MARCH,SPRING,BUFFER4,Buffer,179,179,Study,User,-,,Study/JOL,BUFFER2,3613,,,-1,-1,,,,1
5efa7db7141eff8c991bf737,cicba0f55i,"Deep vs Shallow",1,92,2020-07-08T14:39:36-07:00,4.99232006073,4,versionC_stim.csv,RLVersionD.csv,"Relational Version D","Relational, read only version D",SHED,TOOL,BUFFER4,Buffer,178,178,Study,User,-,,Study/JOL,BUFFER2,4490,,,-1,-1,,,,1
5efa7db7141eff8c991bf737,cicba0f55i,"Deep vs Shallow",1,93,2020-07-08T14:39:38-07:00,2.2463660240173,4,versionC_stim.csv,RLVersionD.csv,"Relational Version D","Relational, read only version D",YEAR,MONTH,BUFFER4,Buffer,177,180,Study,User,-,,Study/JOL,BUFFER2,1829,,,-1,-1,,,,1
5efa7db7141eff8c991bf737,cicba0f55i,"Deep vs Shallow",1,94,2020-07-08T14:39:40-07:00,1.7018778324127,4,versionC_stim.csv,RLVersionD.csv,"Relational Version D","Relational, read only version D",SPOOKY,OCTOBER,BUFFER4,Buffer,180,181,Study,User,-,,Study/JOL,BUFFER2,1268,,,-1,-1,,,,1
5efa7db7141eff8c991bf737,cicba0f55i,"Deep vs Shallow",1,95,2020-07-08T14:39:43-07:00,2.8144249916077,4,versionC_stim.csv,RLVersionD.csv,"Relational Version D","Relational, read only version D",WEAKS,DAYS,BUFFER4,Buffer,176,177,Study,User,-,,Study/JOL,BUFFER2,2383,,,-1,-1,,,,1
5efa7db7141eff8c991bf737,cicba0f55i,"Deep vs Shallow",1,96,2020-07-08T14:39:46-07:00,2.6534371376038,4,versionC_stim.csv,RLVersionD.csv,"Relational Version D","Relational, read only version D",,,,,,0,Instruct,User,-,"You have completed this section. Please press Enter.",Filler_Instruction,Instruct2,2204,,,-1,-1,,,,1
5efa7db7141eff8c991bf737,cicba0f55i,"Deep vs Shallow",1,97,2020-07-08T14:39:48-07:00,2.7598538398743,4,versionC_stim.csv,RLVersionD.csv,"Relational Version D","Relational, read only version D",,,,,,0,Instruct,User,-,"You have completed this section. Please press Enter.",Filler_Instruction,Instruct5,2341,,,-1,-1,,,,1
5efa7db7141eff8c991bf737,cicba0f55i,"Deep vs Shallow",1,98,2020-07-08T14:40:19-07:00,30.260001182556,4,versionC_stim.csv,RLVersionD.csv,"Relational Version D","Relational, read only version D",,,,,,0,FreeRecall,-,10,"What were you supposed to focus on while you studied each pair? (Hint: Think back to the instructions). Type your answer in the space below.",,CHECK3,29776,"The similarities between the two words - as many connections between the two words as possible ",0,7053,28709,0,0,,1
5efa7db7141eff8c991bf737,cicba0f55i,"Deep vs Shallow",1,99,2020-07-08T14:42:20-07:00,121.20992779732,4,versionC_stim.csv,RLVersionD.csv,"Relational Version D","Relational, read only version D",,,,,,0,FreeRecall,120,120,"Please list the 50 US states in alphabetical order. The task will automatically advance to the next screen after two minutes.",,Filler1,120003,"Alabama Alaska Arkansas Colorado California (D.C.) Idaho Iowa Florida Georgia Kansas Kentucky Nebraska New Hampshire New Jersey New York North Carolina North Dakota ",0,10058,110460,0,0,,1
5efa7db7141eff8c991bf737,cicba0f55i,"Deep vs Shallow",1,100,2020-07-08T14:42:31-07:00,11.506870031357,4,versionC_stim.csv,RLVersionD.csv,"Relational Version D","Relational, read only version D",,,,,,0,Instruct,-,10,"You will now be presented with the first word from each of the previously studied item pairs. Please type the missing word. If you do not know the word, you may guess or press Enter to skip forward to the next pair.",,Instruct3,10924,,,-1,-1,,,,1
5efa7db7141eff8c991bf737,cicba0f55i,"Deep vs Shallow",1,101,2020-07-08T14:42:39-07:00,7.2476880550385,4,versionC_stim.csv,RLVersionD.csv,"Relational Version D","Relational, read only version D",AWAY,GONE,Study2,S,142,142,Test,User,-,,Recall,Recall1,6700,gone,100,5753,5992,1,1,,1
5efa7db7141eff8c991bf737,cicba0f55i,"Deep vs Shallow",1,102,2020-07-08T14:42:43-07:00,4.6222879886627,4,versionC_stim.csv,RLVersionD.csv,"Relational Version D","Relational, read only version D",LEAGUE,BASEBALL,Study2,F,131,135,Test,User,-,,Recall,Recall1,4209,baseball,100,1239,4106,1,1,,1
5efa7db7141eff8c991bf737,cicba0f55i,"Deep vs Shallow",1,103,2020-07-08T14:42:48-07:00,4.8550350666046,4,versionC_stim.csv,RLVersionD.csv,"Relational Version D","Relational, read only version D",PAPER,DOCUMENT,Study2,B,109,117,Test,User,-,,Recall,Recall1,3330,cut,54.545454545455,2945,3156,0,0,,1
5efa7db7141eff8c991bf737,cicba0f55i,"Deep vs Shallow",1,104,2020-07-08T14:42:52-07:00,3.8200390338898,4,versionC_stim.csv,RLVersionD.csv,"Relational Version D","Relational, read only version D",SCISSORS,SHEARS,Study2,B,112,164,Test,User,-,,Recall,Recall1,3201,paper,36.363636363636,2646,3020,0,0,,1
5efa7db7141eff8c991bf737,cicba0f55i,"Deep vs Shallow",1,105,2020-07-08T14:42:54-07:00,2.4804329872131,4,versionC_stim.csv,RLVersionD.csv,"Relational Version D","Relational, read only version D",CHILDREN,MIRROR,Study2,U,174,121,Test,User,-,,Recall,Recall1,1934,kids,20,1463,1797,0,0,,1
5efa7db7141eff8c991bf737,cicba0f55i,"Deep vs Shallow",1,106,2020-07-08T14:42:58-07:00,3.322322845459,4,versionC_stim.csv,RLVersionD.csv,"Relational Version D","Relational, read only version D",SMELL,INCENSE,Study2,B,110,156,Test,User,-,,Recall,Recall1,2919,aroma,0,2167,2737,0,0,,1
5efa7db7141eff8c991bf737,cicba0f55i,"Deep vs Shallow",1,107,2020-07-08T14:43:04-07:00,6.0310671329498,4,versionC_stim.csv,RLVersionD.csv,"Relational Version D","Relational, read only version D",ABLE,CRACKLE,Study2,U,162,134,Test,User,-,,Recall,Recall1,5645,,0,-1,-1,0,0,,1
5efa7db7141eff8c991bf737,cicba0f55i,"Deep vs Shallow",1,108,2020-07-08T14:43:09-07:00,5.670450925827,4,versionC_stim.csv,RLVersionD.csv,"Relational Version D","Relational, read only version D",GROUND,EARTH,Study2,S,144,127,Test,User,-,,Recall,Recall1,5274,war,50,4471,5112,0,0,,1
5efa7db7141eff8c991bf737,cicba0f55i,"Deep vs Shallow",1,109,2020-07-08T14:43:13-07:00,3.2173810005188,4,versionC_stim.csv,RLVersionD.csv,"Relational Version D","Relational, read only version D",TIE,SHOELACE,Study2,B,99,162,Test,User,-,,Recall,Recall1,2796,knot,16.666666666667,2054,2461,0,0,,1
5efa7db7141eff8c991bf737,cicba0f55i,"Deep vs Shallow",1,110,2020-07-08T14:43:15-07:00,2.6410050392151,4,versionC_stim.csv,RLVersionD.csv,"Relational Version D","Relational, read only version D",EAT,DINE,Study2,B,111,176,Test,User,-,,Recall,Recall1,2222,food,25,1719,2074,0,0,,1
5efa7db7141eff8c991bf737,cicba0f55i,"Deep vs Shallow",1,111,2020-07-08T14:43:18-07:00,2.2587819099426,4,versionC_stim.csv,RLVersionD.csv,"Relational Version D","Relational, read only version D",WAX,CANDLE,Study2,S,139,119,Test,User,-,,Recall,Recall1,1782,paper,36.363636363636,1260,1612,0,0,,1
5efa7db7141eff8c991bf737,cicba0f55i,"Deep vs Shallow",1,112,2020-07-08T14:43:21-07:00,3.4857280254364,4,versionC_stim.csv,RLVersionD.csv,"Relational Version D","Relational, read only version D",LOVE,AFFECTION,Study2,B,115,104,Test,User,-,,Recall,Recall1,2997,affection,100,1623,2868,1,1,,1
5efa7db7141eff8c991bf737,cicba0f55i,"Deep vs Shallow",1,113,2020-07-08T14:43:32-07:00,10.814115047455,4,versionC_stim.csv,RLVersionD.csv,"Relational Version D","Relational, read only version D",FIGHT,FEUD,Study2,B,113,116,Test,User,-,,Recall,Recall1,10292,battle,20,7175,10132,0,0,,1
5efa7db7141eff8c991bf737,cicba0f55i,"Deep vs Shallow",1,114,2020-07-08T14:43:35-07:00,3.2758390903473,4,versionC_stim.csv,RLVersionD.csv,"Relational Version D","Relational, read only version D",FICTION,LISTEN,Study2,U,164,161,Test,User,-,,Recall,Recall1,1793,book,0,1383,1658,0,0,,1
5efa7db7141eff8c991bf737,cicba0f55i,"Deep vs Shallow",1,115,2020-07-08T14:43:41-07:00,6.2051010131836,4,versionC_stim.csv,RLVersionD.csv,"Relational Version D","Relational, read only version D",BRACELET,WRIST,Study2,S,140,110,Test,User,-,,Recall,Recall1,4550,jewelry,33.333333333333,1921,4334,0,0,,1
5efa7db7141eff8c991bf737,cicba0f55i,"Deep vs Shallow",1,116,2020-07-08T14:43:44-07:00,2.7846260070801,4,versionC_stim.csv,RLVersionD.csv,"Relational Version D","Relational, read only version D",WET,DRY,Study2,S,146,108,Test,User,-,,Recall,Recall1,2390,water,25,1707,2287,0,0,,1
5efa7db7141eff8c991bf737,cicba0f55i,"Deep vs Shallow",1,117,2020-07-08T14:43:46-07:00,1.9712429046631,4,versionC_stim.csv,RLVersionD.csv,"Relational Version D","Relational, read only version D",PANTHER,CAT,Study2,F,126,132,Test,User,-,,Recall,Recall1,1544,cat,100,1070,1402,1,1,,1
5efa7db7141eff8c991bf737,cicba0f55i,"Deep vs Shallow",1,118,2020-07-08T14:43:49-07:00,3.0050818920135,4,versionC_stim.csv,RLVersionD.csv,"Relational Version D","Relational, read only version D",SIGN,LOAN,Study2,U,171,113,Test,User,-,,Recall,Recall1,2576,check,0,1946,2440,0,0,,1
5efa7db7141eff8c991bf737,cicba0f55i,"Deep vs Shallow",1,119,2020-07-08T14:43:58-07:00,8.9263110160828,4,versionC_stim.csv,RLVersionD.csv,"Relational Version D","Relational, read only version D",CLOTHES,CAKE,Study2,U,166,102,Test,User,-,,Recall,Recall1,8519,covering,33.333333333333,7656,8394,0,0,,1
5efa7db7141eff8c991bf737,cicba0f55i,"Deep vs Shallow",1,120,2020-07-08T14:44:03-07:00,4.7598390579224,4,versionC_stim.csv,RLVersionD.csv,"Relational Version D","Relational, read only version D",MAROON,JUSTICE,Study2,U,156,101,Test,User,-,,Recall,Recall1,4269,justice,100,2864,3962,1,1,,1
5efa7db7141eff8c991bf737,cicba0f55i,"Deep vs Shallow",1,121,2020-07-08T14:44:07-07:00,4.2716529369354,4,versionC_stim.csv,RLVersionD.csv,"Relational Version D","Relational, read only version D",CAR,DRIVER,Study2,B,106,126,Test,User,-,,Recall,Recall1,3764,windshield,25,2463,3616,0,0,,1
5efa7db7141eff8c991bf737,cicba0f55i,"Deep vs Shallow",1,122,2020-07-08T14:44:10-07:00,2.6002349853516,4,versionC_stim.csv,RLVersionD.csv,"Relational Version D","Relational, read only version D",EQUAL,RIGHTS,Study2,S,137,172,Test,User,-,,Recall,Recall1,2174,rights,100,1341,2044,1,1,,1
5efa7db7141eff8c991bf737,cicba0f55i,"Deep vs Shallow",1,123,2020-07-08T14:44:13-07:00,3.0038120746613,4,versionC_stim.csv,RLVersionD.csv,"Relational Version D","Relational, read only version D",AIRCRAFT,PLANE,Study2,F,129,105,Test,User,-,,Recall,Recall1,2576,plane,100,1668,2120,1,1,,1
5efa7db7141eff8c991bf737,cicba0f55i,"Deep vs Shallow",1,124,2020-07-08T14:44:19-07:00,5.9776921272278,4,versionC_stim.csv,RLVersionD.csv,"Relational Version D","Relational, read only version D",STEAK,GIVE,Study2,U,158,163,Test,User,-,,Recall,Recall1,5545,give,100,4179,4542,1,1,,1
5efa7db7141eff8c991bf737,cicba0f55i,"Deep vs Shallow",1,125,2020-07-08T14:44:25-07:00,5.9691758155823,4,versionC_stim.csv,RLVersionD.csv,"Relational Version D","Relational, read only version D",OUNCE,BOTH,Study2,U,172,158,Test,User,-,,Recall,Recall1,5537,back,25,4841,5296,0,0,,1
5efa7db7141eff8c991bf737,cicba0f55i,"Deep vs Shallow",1,126,2020-07-08T14:44:32-07:00,7.7418460845947,4,versionC_stim.csv,RLVersionD.csv,"Relational Version D","Relational, read only version D",NAP,SLEEP,Study2,F,134,124,Test,User,-,,Recall,Recall1,7187,sleep,100,6288,7005,1,1,,1
5efa7db7141eff8c991bf737,cicba0f55i,"Deep vs Shallow",1,127,2020-07-08T14:44:38-07:00,5.8924849033356,4,versionC_stim.csv,RLVersionD.csv,"Relational Version D","Relational, read only version D",OBTAIN,MEAT,Study2,U,161,147,Test,User,-,,Recall,Recall1,5447,bank,25,4319,4874,0,0,,1
5efa7db7141eff8c991bf737,cicba0f55i,"Deep vs Shallow",1,128,2020-07-08T14:44:42-07:00,3.6122331619263,4,versionC_stim.csv,RLVersionD.csv,"Relational Version D","Relational, read only version D",STRAWBERRY,FRUIT,Study2,F,124,129,Test,User,-,,Recall,Recall1,3214,red,25,2602,2862,0,0,,1
5efa7db7141eff8c991bf737,cicba0f55i,"Deep vs Shallow",1,129,2020-07-08T14:44:44-07:00,2.1138968467712,4,versionC_stim.csv,RLVersionD.csv,"Relational Version D","Relational, read only version D",WINDSHIELD,CAR,Study2,F,117,169,Test,User,-,,Recall,Recall1,1703,car,100,1233,1554,1,1,,1
5efa7db7141eff8c991bf737,cicba0f55i,"Deep vs Shallow",1,130,2020-07-08T14:44:46-07:00,2.3475461006165,4,versionC_stim.csv,RLVersionD.csv,"Relational Version D","Relational, read only version D",LONELY,ALONE,Study2,S,145,115,Test,User,-,,Recall,Recall1,1903,alone,100,1096,1762,1,1,,1
5efa7db7141eff8c991bf737,cicba0f55i,"Deep vs Shallow",1,131,2020-07-08T14:44:49-07:00,2.6353759765625,4,versionC_stim.csv,RLVersionD.csv,"Relational Version D","Relational, read only version D",PENGUIN,BIRD,Study2,F,119,120,Test,User,-,,Recall,Recall1,2168,bird,100,1592,2030,1,1,,1
5efa7db7141eff8c991bf737,cicba0f55i,"Deep vs Shallow",1,132,2020-07-08T14:44:54-07:00,4.9472451210022,4,versionC_stim.csv,RLVersionD.csv,"Relational Version D","Relational, read only version D",CLOTH,STRETCH,Study2,U,157,99,Test,User,-,,Recall,Recall1,4546,fabric,30.769230769231,2885,4335,0,0,,1
5efa7db7141eff8c991bf737,cicba0f55i,"Deep vs Shallow",1,133,2020-07-08T14:45:00-07:00,5.6893808841705,4,versionC_stim.csv,RLVersionD.csv,"Relational Version D","Relational, read only version D",TEMPER,TANTRUM,Study2,S,154,154,Test,User,-,,Recall,Recall1,5254,emotions,13.333333333333,1532,5100,0,0,,1
5efa7db7141eff8c991bf737,cicba0f55i,"Deep vs Shallow",1,134,2020-07-08T14:45:02-07:00,2.1072170734406,4,versionC_stim.csv,RLVersionD.csv,"Relational Version D","Relational, read only version D",COFFIN,DEAD,Study2,F,128,151,Test,User,-,,Recall,Recall1,1560,dead,100,1042,1414,1,1,,1
5efa7db7141eff8c991bf737,cicba0f55i,"Deep vs Shallow",1,135,2020-07-08T14:45:06-07:00,4.2133638858795,4,versionC_stim.csv,RLVersionD.csv,"Relational Version D","Relational, read only version D",TRASH,LITTER,Study2,B,103,137,Test,User,-,,Recall,Recall1,3759,dumpster,42.857142857143,2406,3605,0,0,,1
5efa7db7141eff8c991bf737,cicba0f55i,"Deep vs Shallow",1,136,2020-07-08T14:45:08-07:00,2.1541900634766,4,versionC_stim.csv,RLVersionD.csv,"Relational Version D","Relational, read only version D",CUT,CHOP,Study2,B,107,112,Test,User,-,,Recall,Recall1,1707,paper,22.222222222222,1167,1545,0,0,,1
5efa7db7141eff8c991bf737,cicba0f55i,"Deep vs Shallow",1,137,2020-07-08T14:45:12-07:00,3.4851889610291,4,versionC_stim.csv,RLVersionD.csv,"Relational Version D","Relational, read only version D",Morning,TEMPERATURE,Study2,U,173,145,Test,User,-,,Recall,Recall1,3039,temperature,100,1538,2632,1,1,,1
5efa7db7141eff8c991bf737,cicba0f55i,"Deep vs Shallow",1,138,2020-07-08T14:45:14-07:00,2.6084499359131,4,versionC_stim.csv,RLVersionD.csv,"Relational Version D","Relational, read only version D",BREAKABLE,GLASS,Study2,F,127,157,Test,User,-,,Recall,Recall1,2209,glass,100,1363,2068,1,1,,1
5efa7db7141eff8c991bf737,cicba0f55i,"Deep vs Shallow",1,139,2020-07-08T14:45:18-07:00,3.4371471405029,4,versionC_stim.csv,RLVersionD.csv,"Relational Version D","Relational, read only version D",HATE,NAME,Study2,U,167,103,Test,User,-,,Recall,Recall1,2996,anger,44.444444444444,2460,2898,0,0,,1
5efa7db7141eff8c991bf737,cicba0f55i,"Deep vs Shallow",1,140,2020-07-08T14:45:20-07:00,2.7728638648987,4,versionC_stim.csv,RLVersionD.csv,"Relational Version D","Relational, read only version D",PLANT,CACTUS,Study2,B,98,146,Test,User,-,,Recall,Recall1,2378,green,0,1472,2174,0,0,,1
5efa7db7141eff8c991bf737,cicba0f55i,"Deep vs Shallow",1,141,2020-07-08T14:45:23-07:00,2.2695281505585,4,versionC_stim.csv,RLVersionD.csv,"Relational Version D","Relational, read only version D",DONKEY,MULE,Study2,B,108,141,Test,User,-,,Recall,Recall1,1771,mule,100,1161,1594,1,1,,1
5efa7db7141eff8c991bf737,cicba0f55i,"Deep vs Shallow",1,142,2020-07-08T14:45:25-07:00,2.4611709117889,4,versionC_stim.csv,RLVersionD.csv,"Relational Version D","Relational, read only version D",JAR,MASON,Study2,S,138,130,Test,User,-,,Recall,Recall1,1940,mason,100,1385,1760,1,1,,1
5efa7db7141eff8c991bf737,cicba0f55i,"Deep vs Shallow",1,143,2020-07-08T14:45:29-07:00,4.0947649478912,4,versionC_stim.csv,RLVersionD.csv,"Relational Version D","Relational, read only version D",FLIP,TURN,Study2,F,116,128,Test,User,-,,Recall,Recall1,3631,flop,0,3079,3440,0,0,,1
5efa7db7141eff8c991bf737,cicba0f55i,"Deep vs Shallow",1,144,2020-07-08T14:45:32-07:00,2.9184210300446,4,versionC_stim.csv,RLVersionD.csv,"Relational Version D","Relational, read only version D",VILLAIN,BAD,Study2,F,118,166,Test,User,-,,Recall,Recall1,2509,bad,100,1313,1541,1,1,,1
5efa7db7141eff8c991bf737,cicba0f55i,"Deep vs Shallow",1,145,2020-07-08T14:45:35-07:00,3.1667649745941,4,versionC_stim.csv,RLVersionD.csv,"Relational Version D","Relational, read only version D",MYSTERY,DETECTIVE,Study2,B,100,100,Test,User,-,,Recall,Recall1,2739,detective,100,1157,2227,1,1,,1
5efa7db7141eff8c991bf737,cicba0f55i,"Deep vs Shallow",1,146,2020-07-08T14:45:38-07:00,2.2727251052856,4,versionC_stim.csv,RLVersionD.csv,"Relational Version D","Relational, read only version D",TAN,SUN,Study2,S,155,173,Test,User,-,,Recall,Recall1,1838,sun,100,1319,1509,1,1,,1
5efa7db7141eff8c991bf737,cicba0f55i,"Deep vs Shallow",1,147,2020-07-08T14:45:41-07:00,3.0300529003143,4,versionC_stim.csv,RLVersionD.csv,"Relational Version D","Relational, read only version D",JOKE,KEYS,Study2,U,165,150,Test,User,-,,Recall,Recall1,2544,clown,0,1883,2354,0,0,,1
5efa7db7141eff8c991bf737,cicba0f55i,"Deep vs Shallow",1,148,2020-07-08T14:45:43-07:00,2.4307050704956,4,versionC_stim.csv,RLVersionD.csv,"Relational Version D","Relational, read only version D",COMMUNICATION,PHONE,Study2,S,149,168,Test,User,-,,Recall,Recall1,1990,phone,100,1389,1799,1,1,,1
5efa7db7141eff8c991bf737,cicba0f55i,"Deep vs Shallow",1,149,2020-07-08T14:45:45-07:00,1.9227230548859,4,versionC_stim.csv,RLVersionD.csv,"Relational Version D","Relational, read only version D",BRAWL,FIGHT,Study2,F,135,98,Test,User,-,,Recall,Recall1,1481,fight,100,1017,1382,1,1,,1
5efa7db7141eff8c991bf737,cicba0f55i,"Deep vs Shallow",1,150,2020-07-08T14:45:48-07:00,3.5323169231415,4,versionC_stim.csv,RLVersionD.csv,"Relational Version D","Relational, read only version D",FAVORITE,BEST,Study2,F,125,153,Test,User,-,,Recall,Recall1,3102,best,100,1662,2107,1,1,,1
5efa7db7141eff8c991bf737,cicba0f55i,"Deep vs Shallow",1,151,2020-07-08T14:45:53-07:00,4.2414519786835,4,versionC_stim.csv,RLVersionD.csv,"Relational Version D","Relational, read only version D",ACTRESS,STAR,Study2,F,120,138,Test,User,-,,Recall,Recall1,3844,movie,0,3081,3455,0,0,,1
5efa7db7141eff8c991bf737,cicba0f55i,"Deep vs Shallow",1,152,2020-07-08T14:45:59-07:00,6.7801640033722,4,versionC_stim.csv,RLVersionD.csv,"Relational Version D","Relational, read only version D",CARBON,ELEMENT,Study2,S,141,170,Test,User,-,,Recall,Recall1,6340,element,100,4768,6211,1,1,,1
5efa7db7141eff8c991bf737,cicba0f55i,"Deep vs Shallow",1,153,2020-07-08T14:46:02-07:00,2.111743927002,4,versionC_stim.csv,RLVersionD.csv,"Relational Version D","Relational, read only version D",BALLOON,POP,Study2,F,123,143,Test,User,-,,Recall,Recall1,1666,pop,100,1261,1459,1,1,,1
5efa7db7141eff8c991bf737,cicba0f55i,"Deep vs Shallow",1,154,2020-07-08T14:46:06-07:00,4.002170085907,4,versionC_stim.csv,RLVersionD.csv,"Relational Version D","Relational, read only version D",LONG,EXTENSION,Study2,B,96,160,Test,User,-,,Recall,Recall1,3575,shot,30.769230769231,3099,3443,0,0,,1
5efa7db7141eff8c991bf737,cicba0f55i,"Deep vs Shallow",1,155,2020-07-08T14:46:10-07:00,4.4860289096832,4,versionC_stim.csv,RLVersionD.csv,"Relational Version D","Relational, read only version D",SCAR,MAIN,Study2,U,175,133,Test,User,-,,Recall,Recall1,3055,wound,22.222222222222,2436,2927,0,0,,1
5efa7db7141eff8c991bf737,cicba0f55i,"Deep vs Shallow",1,156,2020-07-08T14:46:14-07:00,4.359307050705,4,versionC_stim.csv,RLVersionD.csv,"Relational Version D","Relational, read only version D",ELECTION,MAZE,Study2,U,159,171,Test,User,-,,Recall,Recall1,3948,maze,100,3047,3659,1,1,,1
5efa7db7141eff8c991bf737,cicba0f55i,"Deep vs Shallow",1,157,2020-07-08T14:46:17-07:00,2.1471869945526,4,versionC_stim.csv,RLVersionD.csv,"Relational Version D","Relational, read only version D",TOIL,LEASE,Study2,U,170,111,Test,User,-,,Recall,Recall1,1711,work,0,1264,1594,0,0,,1
5efa7db7141eff8c991bf737,cicba0f55i,"Deep vs Shallow",1,158,2020-07-08T14:46:22-07:00,5.1078300476074,4,versionC_stim.csv,RLVersionD.csv,"Relational Version D","Relational, read only version D",REVENGE,EVEN,Study2,F,122,122,Test,User,-,,Recall,Recall1,4677,death,22.222222222222,3244,3913,0,0,,1
5efa7db7141eff8c991bf737,cicba0f55i,"Deep vs Shallow",1,159,2020-07-08T14:46:25-07:00,2.9465889930725,4,versionC_stim.csv,RLVersionD.csv,"Relational Version D","Relational, read only version D",BANKER,MONEY,Study2,F,132,106,Test,User,-,,Recall,Recall1,2516,money,100,1442,2255,1,1,,1
5efa7db7141eff8c991bf737,cicba0f55i,"Deep vs Shallow",1,160,2020-07-08T14:46:28-07:00,3.7707409858704,4,versionC_stim.csv,RLVersionD.csv,"Relational Version D","Relational, read only version D",DOG,FURRY,Study2,B,102,136,Test,User,-,,Recall,Recall1,3341,leash,0,1240,2681,0,0,,1
5efa7db7141eff8c991bf737,cicba0f55i,"Deep vs Shallow",1,161,2020-07-08T14:46:35-07:00,6.6559190750122,4,versionC_stim.csv,RLVersionD.csv,"Relational Version D","Relational, read only version D",REEL,ROD,Study2,S,150,148,Test,User,-,,Recall,Recall1,6267,movie,25,4337,5971,0,0,,1
5efa7db7141eff8c991bf737,cicba0f55i,"Deep vs Shallow",1,162,2020-07-08T14:46:39-07:00,4.4341819286346,4,versionC_stim.csv,RLVersionD.csv,"Relational Version D","Relational, read only version D",HEAD,SCALP,Study2,B,105,139,Test,User,-,,Recall,Recall1,3995,start,40,3134,3706,0,0,,1
5efa7db7141eff8c991bf737,cicba0f55i,"Deep vs Shallow",1,163,2020-07-08T14:46:43-07:00,3.1569120883942,4,versionC_stim.csv,RLVersionD.csv,"Relational Version D","Relational, read only version D",TRUTHFUL,HONEST,Study2,F,133,159,Test,User,-,,Recall,Recall1,2723,honest,100,1483,2165,1,1,,1
5efa7db7141eff8c991bf737,cicba0f55i,"Deep vs Shallow",1,164,2020-07-08T14:46:46-07:00,3.3946850299835,4,versionC_stim.csv,RLVersionD.csv,"Relational Version D","Relational, read only version D",DRINK,WATER,Study2,S,143,118,Test,User,-,,Recall,Recall1,2964,beverage,30.769230769231,1555,2817,0,0,,1
5efa7db7141eff8c991bf737,cicba0f55i,"Deep vs Shallow",1,165,2020-07-08T14:46:52-07:00,6.1137609481812,4,versionC_stim.csv,RLVersionD.csv,"Relational Version D","Relational, read only version D",CLEAR,MOAT,Study2,U,169,97,Test,User,-,,Recall,Recall1,5636,erase,22.222222222222,4956,5474,0,0,,1
5efa7db7141eff8c991bf737,cicba0f55i,"Deep vs Shallow",1,166,2020-07-08T14:46:55-07:00,3.0502378940582,4,versionC_stim.csv,RLVersionD.csv,"Relational Version D","Relational, read only version D",RED,CHERRY,Study2,B,104,152,Test,User,-,,Recall,Recall1,2612,color,36.363636363636,1982,2499,0,0,,1
5efa7db7141eff8c991bf737,cicba0f55i,"Deep vs Shallow",1,167,2020-07-08T14:46:59-07:00,4.1443910598755,4,versionC_stim.csv,RLVersionD.csv,"Relational Version D","Relational, read only version D",TICK,FLEA,Study2,S,151,114,Test,User,-,,Recall,Recall1,3700,flea,100,2977,3368,1,1,,1
5efa7db7141eff8c991bf737,cicba0f55i,"Deep vs Shallow",1,168,2020-07-08T14:47:03-07:00,3.5401611328125,4,versionC_stim.csv,RLVersionD.csv,"Relational Version D","Relational, read only version D",LIE,TRUTH,Study2,S,148,144,Test,User,-,,Recall,Recall1,3114,deceive,0,1919,2676,0,0,,1
5efa7db7141eff8c991bf737,cicba0f55i,"Deep vs Shallow",1,169,2020-07-08T14:47:06-07:00,2.8193869590759,4,versionC_stim.csv,RLVersionD.csv,"Relational Version D","Relational, read only version D",SHAVE,RAZOR,Study2,S,136,174,Test,User,-,,Recall,Recall1,2425,razor,100,1036,1926,1,1,,1
5efa7db7141eff8c991bf737,cicba0f55i,"Deep vs Shallow",1,170,2020-07-08T14:47:08-07:00,2.7151429653168,4,versionC_stim.csv,RLVersionD.csv,"Relational Version D","Relational, read only version D",CHARM,VEHICLE,Study2,U,160,123,Test,User,-,,Recall,Recall1,2267,love,36.363636363636,1491,2068,0,0,,1
5efa7db7141eff8c991bf737,cicba0f55i,"Deep vs Shallow",1,171,2020-07-08T14:47:10-07:00,1.495600938797,4,versionC_stim.csv,RLVersionD.csv,"Relational Version D","Relational, read only version D",COLD,CHILL,Study2,B,114,140,Test,User,-,,Recall,Recall1,1101,,0,-1,-1,0,0,,1
5efa7db7141eff8c991bf737,cicba0f55i,"Deep vs Shallow",1,172,2020-07-08T14:47:15-07:00,5.3645050525665,4,versionC_stim.csv,RLVersionD.csv,"Relational Version D","Relational, read only version D",HAVE,OWN,Study2,S,153,131,Test,User,-,,Recall,Recall1,4969,want,57.142857142857,4461,4846,0,0,,1
5efa7db7141eff8c991bf737,cicba0f55i,"Deep vs Shallow",1,173,2020-07-08T14:47:18-07:00,2.2648279666901,4,versionC_stim.csv,RLVersionD.csv,"Relational Version D","Relational, read only version D",SARDINE,FISH,Study2,F,130,149,Test,User,-,,Recall,Recall1,1776,fish,100,1262,1578,1,1,,1
5efa7db7141eff8c991bf737,cicba0f55i,"Deep vs Shallow",1,174,2020-07-08T14:47:30-07:00,12.021383047104,4,versionC_stim.csv,RLVersionD.csv,"Relational Version D","Relational, read only version D",GAME,CLUE,Study2,B,97,155,Test,User,-,,Recall,Recall1,11457,rules,44.444444444444,10767,11344,0,0,,1
5efa7db7141eff8c991bf737,cicba0f55i,"Deep vs Shallow",1,175,2020-07-08T14:47:34-07:00,4.248939037323,4,versionC_stim.csv,RLVersionD.csv,"Relational Version D","Relational, read only version D",END,ADJOURN,Study2,B,101,107,Test,User,-,,Recall,Recall1,3718,finish,15.384615384615,1467,3459,0,0,,1
5efa7db7141eff8c991bf737,cicba0f55i,"Deep vs Shallow",1,176,2020-07-08T14:47:39-07:00,5.4687809944153,4,versionC_stim.csv,RLVersionD.csv,"Relational Version D","Relational, read only version D",THIMBLE,THREAD,Study2,F,121,125,Test,User,-,,Recall,Recall1,5022,knitting,14.285714285714,4125,4898,0,0,,1
5efa7db7141eff8c991bf737,cicba0f55i,"Deep vs Shallow",1,177,2020-07-08T14:47:42-07:00,2.3773980140686,4,versionC_stim.csv,RLVersionD.csv,"Relational Version D","Relational, read only version D",SEATBELT,SAFETY,Study2,S,147,175,Test,User,-,,Recall,Recall1,1919,safety,100,1046,1784,1,1,,1
5efa7db7141eff8c991bf737,cicba0f55i,"Deep vs Shallow",1,178,2020-07-08T14:47:44-07:00,2.7451319694519,4,versionC_stim.csv,RLVersionD.csv,"Relational Version D","Relational, read only version D",BANG,FUZZY,Study2,U,168,109,Test,User,-,,Recall,Recall1,2244,gun,25,1759,2011,0,0,,1
5efa7db7141eff8c991bf737,cicba0f55i,"Deep vs Shallow",1,179,2020-07-08T14:47:47-07:00,2.5060150623322,4,versionC_stim.csv,RLVersionD.csv,"Relational Version D","Relational, read only version D",SHAKE,Shell,Study2,U,163,167,Test,User,-,,Recall,Recall1,2089,hand,22.222222222222,1638,1961,0,0,,1
5efa7db7141eff8c991bf737,cicba0f55i,"Deep vs Shallow",1,180,2020-07-08T14:47:57-07:00,10.579447984695,4,versionC_stim.csv,RLVersionD.csv,"Relational Version D","Relational, read only version D",NOISE,LOUD,Study2,S,152,165,Test,User,-,,Recall,Recall1,9800,decibel,18.181818181818,8774,9673,0,0,,1
5efa7db7141eff8c991bf737,cicba0f55i,"Deep vs Shallow",1,181,2020-07-08T14:48:10-07:00,12.539417982101,4,versionC_stim.csv,RLVersionD.csv,"Relational Version D","Relational, read only version D",,,,,,0,Instruct,,10,"You will now be presented with a new set of word pairs. Please study each pair. Remember that your memory will be tested! When finished, press Enter to move to the next pair.",Initial_Instruct,Instruct4,10878,,,-1,-1,,,,1
5efa7db7141eff8c991bf737,cicba0f55i,"Deep vs Shallow",1,182,2020-07-08T14:48:30-07:00,19.672021865845,4,versionC_stim.csv,RLVersionD.csv,"Relational Version D","Relational, read only version D",,,,,,0,Instruct,-,15,"As you study, please think about how the two concepts are RELATED to each other. For example, if you see the pair TURTLE-CAT, think about how both are alive, they are both animals, and both can be kept as pets.",,Instruct20,19089,,,-1,-1,,,,1
5efa7db7141eff8c991bf737,cicba0f55i,"Deep vs Shallow",1,183,2020-07-08T14:48:45-07:00,15.230185031891,4,versionC_stim.csv,RLVersionD.csv,"Relational Version D","Relational, read only version D",,,,,,0,FreeRecall,-,10,"What you should think about as you study each item pair? Type your response in the box below.",,CHECK4,14436,"The similarities and connections between the two words ",0,5292,13039,0,0,,1
5efa7db7141eff8c991bf737,cicba0f55i,"Deep vs Shallow",1,184,2020-07-08T14:48:54-07:00,9.5690069198608,4,versionC_stim.csv,RLVersionD.csv,"Relational Version D","Relational, read only version D",,,,,,0,Instruct,User,-,"Press Enter when you are readty to begin",,Instruct11,9012,,,-1,-1,,,,1
5efa7db7141eff8c991bf737,cicba0f55i,"Deep vs Shallow",1,185,2020-07-08T14:48:57-07:00,2.3191931247711,4,versionC_stim.csv,RLVersionD.csv,"Relational Version D","Relational, read only version D",JAM,SPACE,BUFFER1,Buffer,5,2,Study,User,-,,Study/JOL,BUFFER3,1696,,,-1,-1,,,,1
5efa7db7141eff8c991bf737,cicba0f55i,"Deep vs Shallow",1,186,2020-07-08T14:48:59-07:00,2.4721999168396,4,versionC_stim.csv,RLVersionD.csv,"Relational Version D","Relational, read only version D",GREEN,TREES,BUFFER1,Buffer,1,3,Study,User,-,,Study/JOL,BUFFER3,1983,,,-1,-1,,,,1
5efa7db7141eff8c991bf737,cicba0f55i,"Deep vs Shallow",1,187,2020-07-08T14:49:01-07:00,2.0331521034241,4,versionC_stim.csv,RLVersionD.csv,"Relational Version D","Relational, read only version D",CATCHER,BASEBALL,BUFFER1,Buffer,2,4,Study,User,-,,Study/JOL,BUFFER3,1532,,,-1,-1,,,,1
5efa7db7141eff8c991bf737,cicba0f55i,"Deep vs Shallow",1,188,2020-07-08T14:49:03-07:00,1.8597948551178,4,versionC_stim.csv,RLVersionD.csv,"Relational Version D","Relational, read only version D",BUTTER,PEANUT,BUFFER1,Buffer,3,5,Study,User,-,,Study/JOL,BUFFER3,1392,,,-1,-1,,,,1
5efa7db7141eff8c991bf737,cicba0f55i,"Deep vs Shallow",1,189,2020-07-08T14:49:05-07:00,2.3032400608063,4,versionC_stim.csv,RLVersionD.csv,"Relational Version D","Relational, read only version D",HIDE,SCARE,BUFFER1,Buffer,4,6,Study,User,-,,Study/JOL,BUFFER3,1865,,,-1,-1,,,,1
5efa7db7141eff8c991bf737,cicba0f55i,"Deep vs Shallow",1,190,2020-07-08T14:49:07-07:00,1.4608299732208,4,versionC_stim.csv,RLVersionD.csv,"Relational Version D","Relational, read only version D",BLAZE,FIRE,Study1,F,45,33,Study,User,-,,Study/JOL,"Study Phase2",975,,,-1,-1,,,,1
5efa7db7141eff8c991bf737,cicba0f55i,"Deep vs Shallow",1,191,2020-07-08T14:49:10-07:00,2.6620099544525,4,versionC_stim.csv,RLVersionD.csv,"Relational Version D","Relational, read only version D",BELT,SOON,Study1,U,70,40,Study,User,-,,Study/JOL,"Study Phase2",2257,,,-1,-1,,,,1
5efa7db7141eff8c991bf737,cicba0f55i,"Deep vs Shallow",1,192,2020-07-08T14:49:11-07:00,1.4450781345367,4,versionC_stim.csv,RLVersionD.csv,"Relational Version D","Relational, read only version D",DIVISION,MATH,Study1,F,33,11,Study,User,-,,Study/JOL,"Study Phase2",1026,,,-1,-1,,,,1
5efa7db7141eff8c991bf737,cicba0f55i,"Deep vs Shallow",1,193,2020-07-08T14:49:13-07:00,1.9259660243988,4,versionC_stim.csv,RLVersionD.csv,"Relational Version D","Relational, read only version D",RIDDLE,SUGAR,Study1,U,81,71,Study,User,-,,Study/JOL,"Study Phase2",1512,,,-1,-1,,,,1
5efa7db7141eff8c991bf737,cicba0f55i,"Deep vs Shallow",1,194,2020-07-08T14:49:14-07:00,1.3608360290527,4,versionC_stim.csv,RLVersionD.csv,"Relational Version D","Relational, read only version D",CAR,HAPPY,Study1,U,77,30,Study,User,-,,Study/JOL,"Study Phase2",896,,,-1,-1,,,,1
5efa7db7141eff8c991bf737,cicba0f55i,"Deep vs Shallow",1,195,2020-07-08T14:49:17-07:00,2.5192368030548,4,versionC_stim.csv,RLVersionD.csv,"Relational Version D","Relational, read only version D",HUNGRY,PARK,Study1,U,68,28,Study,User,-,,Study/JOL,"Study Phase2",2078,,,-1,-1,,,,1
5efa7db7141eff8c991bf737,cicba0f55i,"Deep vs Shallow",1,196,2020-07-08T14:49:19-07:00,1.807685136795,4,versionC_stim.csv,RLVersionD.csv,"Relational Version D","Relational, read only version D",POSITION,MACHINE,Study1,U,76,64,Study,User,-,,Study/JOL,"Study Phase2",1355,,,-1,-1,,,,1
5efa7db7141eff8c991bf737,cicba0f55i,"Deep vs Shallow",1,197,2020-07-08T14:49:21-07:00,2.5986950397491,4,versionC_stim.csv,RLVersionD.csv,"Relational Version D","Relational, read only version D",COLD,BITTER,Study1,B,12,68,Study,User,-,,Study/JOL,"Study Phase2",2139,,,-1,-1,,,,1
5efa7db7141eff8c991bf737,cicba0f55i,"Deep vs Shallow",1,198,2020-07-08T14:49:23-07:00,1.5685849189758,4,versionC_stim.csv,RLVersionD.csv,"Relational Version D","Relational, read only version D",FOOT,SHOE,Study1,S,60,43,Study,User,-,,Study/JOL,"Study Phase2",1100,,,-1,-1,,,,1
5efa7db7141eff8c991bf737,cicba0f55i,"Deep vs Shallow",1,199,2020-07-08T14:49:24-07:00,1.6122620105743,4,versionC_stim.csv,RLVersionD.csv,"Relational Version D","Relational, read only version D",CARD,CREDIT,Study1,B,23,45,Study,User,-,,Study/JOL,"Study Phase2",1181,,,-1,-1,,,,1
5efa7db7141eff8c991bf737,cicba0f55i,"Deep vs Shallow",1,200,2020-07-08T14:49:26-07:00,1.9783849716187,4,versionC_stim.csv,RLVersionD.csv,"Relational Version D","Relational, read only version D",WASP,BUG,Study1,F,32,84,Study,User,-,,Study/JOL,"Study Phase2",1523,,,-1,-1,,,,1
5efa7db7141eff8c991bf737,cicba0f55i,"Deep vs Shallow",1,201,2020-07-08T14:49:28-07:00,1.7662470340729,4,versionC_stim.csv,RLVersionD.csv,"Relational Version D","Relational, read only version D",ROCK,GEOLOGY,Study1,B,19,60,Study,User,-,,Study/JOL,"Study Phase2",1324,,,-1,-1,,,,1
5efa7db7141eff8c991bf737,cicba0f55i,"Deep vs Shallow",1,202,2020-07-08T14:49:30-07:00,2.2597889900208,4,versionC_stim.csv,RLVersionD.csv,"Relational Version D","Relational, read only version D",BIRD,SWAN,Study1,B,14,50,Study,User,-,,Study/JOL,"Study Phase2",1725,,,-1,-1,,,,1
5efa7db7141eff8c991bf737,cicba0f55i,"Deep vs Shallow",1,203,2020-07-08T14:49:33-07:00,2.5024349689484,4,versionC_stim.csv,RLVersionD.csv,"Relational Version D","Relational, read only version D",CLUTTER,PUSHER,Study1,U,66,36,Study,User,-,,Study/JOL,"Study Phase2",2001,,,-1,-1,,,,1
5efa7db7141eff8c991bf737,cicba0f55i,"Deep vs Shallow",1,204,2020-07-08T14:49:35-07:00,2.0152089595795,4,versionC_stim.csv,RLVersionD.csv,"Relational Version D","Relational, read only version D",VASE,KING,Study1,U,85,78,Study,User,-,,Study/JOL,"Study Phase2",1517,,,-1,-1,,,,1
5efa7db7141eff8c991bf737,cicba0f55i,"Deep vs Shallow",1,205,2020-07-08T14:50:40-07:00,64.728233098984,4,versionC_stim.csv,RLVersionD.csv,"Relational Version D","Relational, read only version D",FAMINE,HUNGER,Study1,F,40,21,Study,User,-,,Study/JOL,"Study Phase2",64179,,,-1,-1,,,,0.097
5efa7db7141eff8c991bf737,cicba0f55i,"Deep vs Shallow",1,206,2020-07-08T14:50:42-07:00,2.3118119239807,4,versionC_stim.csv,RLVersionD.csv,"Relational Version D","Relational, read only version D",FLOWER,ORCHID,Study1,B,24,35,Study,User,-,,Study/JOL,"Study Phase2",1535,,,-1,-1,,,,1
5efa7db7141eff8c991bf737,cicba0f55i,"Deep vs Shallow",1,207,2020-07-08T14:50:44-07:00,1.6995770931244,4,versionC_stim.csv,RLVersionD.csv,"Relational Version D","Relational, read only version D",WOULD,CASH,Study1,U,83,53,Study,User,-,,Study/JOL,"Study Phase2",1148,,,-1,-1,,,,1
5efa7db7141eff8c991bf737,cicba0f55i,"Deep vs Shallow",1,208,2020-07-08T14:50:56-07:00,12.521358013153,4,versionC_stim.csv,RLVersionD.csv,"Relational Version D","Relational, read only version D",MONEY,WAGE,Study1,B,8,37,Study,User,-,,Study/JOL,"Study Phase2",11763,,,-1,-1,,,,0.421
5efa7db7141eff8c991bf737,cicba0f55i,"Deep vs Shallow",1,209,2020-07-08T14:50:58-07:00,1.4309918880463,4,versionC_stim.csv,RLVersionD.csv,"Relational Version D","Relational, read only version D",TOILET,BATHROOM,Study1,S,58,7,Study,User,-,,Study/JOL,"Study Phase2",901,,,-1,-1,,,,1
5efa7db7141eff8c991bf737,cicba0f55i,"Deep vs Shallow",1,210,2020-07-08T14:50:59-07:00,1.552453994751,4,versionC_stim.csv,RLVersionD.csv,"Relational Version D","Relational, read only version D",ATTORNEY,LAW,Study1,F,34,26,Study,User,-,,Study/JOL,"Study Phase2",1084,,,-1,-1,,,,1
5efa7db7141eff8c991bf737,cicba0f55i,"Deep vs Shallow",1,211,2020-07-08T14:51:00-07:00,1.2901351451874,4,versionC_stim.csv,RLVersionD.csv,"Relational Version D","Relational, read only version D",CHORE,WORK,Study1,F,39,20,Study,User,-,,Study/JOL,"Study Phase2",875,,,-1,-1,,,,1
5efa7db7141eff8c991bf737,cicba0f55i,"Deep vs Shallow",1,212,2020-07-08T14:51:02-07:00,1.8317739963531,4,versionC_stim.csv,RLVersionD.csv,"Relational Version D","Relational, read only version D",LIVER,KIDNEY,Study1,S,53,25,Study,User,-,,Study/JOL,"Study Phase2",1422,,,-1,-1,,,,1
5efa7db7141eff8c991bf737,cicba0f55i,"Deep vs Shallow",1,213,2020-07-08T14:51:03-07:00,1.1607718467712,4,versionC_stim.csv,RLVersionD.csv,"Relational Version D","Relational, read only version D",SIP,DRINK,Study1,F,27,58,Study,User,-,,Study/JOL,"Study Phase2",757,,,-1,-1,,,,1
5efa7db7141eff8c991bf737,cicba0f55i,"Deep vs Shallow",1,214,2020-07-08T14:51:05-07:00,1.2050321102142,4,versionC_stim.csv,RLVersionD.csv,"Relational Version D","Relational, read only version D",SODA,POP,Study1,S,56,27,Study,User,-,,Study/JOL,"Study Phase2",679,,,-1,-1,,,,1
5efa7db7141eff8c991bf737,cicba0f55i,"Deep vs Shallow",1,215,2020-07-08T14:51:06-07:00,0.86658787727356,4,versionC_stim.csv,RLVersionD.csv,"Relational Version D","Relational, read only version D",AMOUNT,NUMBER,Study1,S,47,49,Study,User,-,,Study/JOL,"Study Phase2",433,,,-1,-1,,,,1
5efa7db7141eff8c991bf737,cicba0f55i,"Deep vs Shallow",1,216,2020-07-08T14:51:07-07:00,1.119243144989,4,versionC_stim.csv,RLVersionD.csv,"Relational Version D","Relational, read only version D",BAR,GRILL,Study1,S,52,81,Study,User,-,,Study/JOL,"Study Phase2",661,,,-1,-1,,,,1
5efa7db7141eff8c991bf737,cicba0f55i,"Deep vs Shallow",1,217,2020-07-08T14:51:08-07:00,1.5157608985901,4,versionC_stim.csv,RLVersionD.csv,"Relational Version D","Relational, read only version D",BUSINESS,DEATH,Study1,U,72,55,Study,User,-,,Study/JOL,"Study Phase2",1082,,,-1,-1,,,,1
5efa7db7141eff8c991bf737,cicba0f55i,"Deep vs Shallow",1,218,2020-07-08T14:51:09-07:00,1.2334740161896,4,versionC_stim.csv,RLVersionD.csv,"Relational Version D","Relational, read only version D",RACKET,BALL,Study1,F,38,82,Study,User,-,,Study/JOL,"Study Phase2",805,,,-1,-1,,,,1
5efa7db7141eff8c991bf737,cicba0f55i,"Deep vs Shallow",1,219,2020-07-08T14:51:10-07:00,0.93017411231995,4,versionC_stim.csv,RLVersionD.csv,"Relational Version D","Relational, read only version D",NEWS,EDITOR,Study1,B,10,41,Study,User,-,,Study/JOL,"Study Phase2",539,,,-1,-1,,,,1
5efa7db7141eff8c991bf737,cicba0f55i,"Deep vs Shallow",1,220,2020-07-08T14:51:12-07:00,1.1821908950806,4,versionC_stim.csv,RLVersionD.csv,"Relational Version D","Relational, read only version D",ADD,VALLEY,Study1,U,82,42,Study,User,-,,Study/JOL,"Study Phase2",755,,,-1,-1,,,,1
5efa7db7141eff8c991bf737,cicba0f55i,"Deep vs Shallow",1,221,2020-07-08T14:51:14-07:00,2.2683460712433,4,versionC_stim.csv,RLVersionD.csv,"Relational Version D","Relational, read only version D",GROWTH,HEIGHT,Study1,F,30,77,Study,User,-,,Study/JOL,"Study Phase2",1602,,,-1,-1,,,,1
5efa7db7141eff8c991bf737,cicba0f55i,"Deep vs Shallow",1,222,2020-07-08T14:51:15-07:00,1.4967110157013,4,versionC_stim.csv,RLVersionD.csv,"Relational Version D","Relational, read only version D",LATCH,KEY,Study1,F,36,69,Study,User,-,,Study/JOL,"Study Phase2",1029,,,-1,-1,,,,1
5efa7db7141eff8c991bf737,cicba0f55i,"Deep vs Shallow",1,223,2020-07-08T14:51:17-07:00,1.3892068862915,4,versionC_stim.csv,RLVersionD.csv,"Relational Version D","Relational, read only version D",WIND,BLOW,Study1,S,55,44,Study,User,-,,Study/JOL,"Study Phase2",981,,,-1,-1,,,,1
5efa7db7141eff8c991bf737,cicba0f55i,"Deep vs Shallow",1,224,2020-07-08T14:51:21-07:00,4.2420430183411,4,versionC_stim.csv,RLVersionD.csv,"Relational Version D","Relational, read only version D",,,,,,0,Instruct,-,3,"Remember to focus on how the two items are similiar while you study!",,CHECK5,3825,,,-1,-1,,,,1
5efa7db7141eff8c991bf737,cicba0f55i,"Deep vs Shallow",1,225,2020-07-08T14:51:23-07:00,2.0791571140289,4,versionC_stim.csv,RLVersionD.csv,"Relational Version D","Relational, read only version D",DESIGN,ARCHITECTURE,Study1,S,51,16,Study,User,-,,Study/JOL,"Study Phase2",1610,,,-1,-1,,,,1
5efa7db7141eff8c991bf737,cicba0f55i,"Deep vs Shallow",1,226,2020-07-08T14:51:25-07:00,1.8314008712769,4,versionC_stim.csv,RLVersionD.csv,"Relational Version D","Relational, read only version D",CAVE,DARK,Study1,F,28,29,Study,User,-,,Study/JOL,"Study Phase2",1402,,,-1,-1,,,,1
5efa7db7141eff8c991bf737,cicba0f55i,"Deep vs Shallow",1,227,2020-07-08T14:51:26-07:00,1.5266859531403,4,versionC_stim.csv,RLVersionD.csv,"Relational Version D","Relational, read only version D",WASTE,DUMP,Study1,S,49,9,Study,User,-,,Study/JOL,"Study Phase2",1085,,,-1,-1,,,,1
5efa7db7141eff8c991bf737,cicba0f55i,"Deep vs Shallow",1,228,2020-07-08T14:51:28-07:00,1.155483007431,4,versionC_stim.csv,RLVersionD.csv,"Relational Version D","Relational, read only version D",TALK,DISCUSSION,Study1,B,21,83,Study,User,-,,Study/JOL,"Study Phase2",742,,,-1,-1,,,,1
5efa7db7141eff8c991bf737,cicba0f55i,"Deep vs Shallow",1,229,2020-07-08T14:51:29-07:00,1.244745016098,4,versionC_stim.csv,RLVersionD.csv,"Relational Version D","Relational, read only version D",FLOOR,DISCOVER,Study1,U,71,73,Study,User,-,,Study/JOL,"Study Phase2",856,,,-1,-1,,,,1
5efa7db7141eff8c991bf737,cicba0f55i,"Deep vs Shallow",1,230,2020-07-08T14:51:30-07:00,1.4856331348419,4,versionC_stim.csv,RLVersionD.csv,"Relational Version D","Relational, read only version D",COW,HERD,Study1,B,22,65,Study,User,-,,Study/JOL,"Study Phase2",1073,,,-1,-1,,,,1
5efa7db7141eff8c991bf737,cicba0f55i,"Deep vs Shallow",1,231,2020-07-08T14:51:32-07:00,1.41352891922,4,versionC_stim.csv,RLVersionD.csv,"Relational Version D","Relational, read only version D",ASSIGNMENT,DUE,Study1,S,46,54,Study,User,-,,Study/JOL,"Study Phase2",957,,,-1,-1,,,,1
5efa7db7141eff8c991bf737,cicba0f55i,"Deep vs Shallow",1,232,2020-07-08T14:51:34-07:00,2.0474150180817,4,versionC_stim.csv,RLVersionD.csv,"Relational Version D","Relational, read only version D",FANTASTIC,GREAT,Study1,F,35,8,Study,User,-,,Study/JOL,"Study Phase2",1541,,,-1,-1,,,,1
5efa7db7141eff8c991bf737,cicba0f55i,"Deep vs Shallow",1,233,2020-07-08T14:51:35-07:00,1.7153289318085,4,versionC_stim.csv,RLVersionD.csv,"Relational Version D","Relational, read only version D",DEFINITION,MEANING,Study1,S,62,15,Study,User,-,,Study/JOL,"Study Phase2",1294,,,-1,-1,,,,1
5efa7db7141eff8c991bf737,cicba0f55i,"Deep vs Shallow",1,234,2020-07-08T14:51:38-07:00,2.6113810539246,4,versionC_stim.csv,RLVersionD.csv,"Relational Version D","Relational, read only version D",JURY,TRIAL,Study1,S,50,46,Study,User,-,,Study/JOL,"Study Phase2",2138,,,-1,-1,,,,1
5efa7db7141eff8c991bf737,cicba0f55i,"Deep vs Shallow",1,235,2020-07-08T14:51:39-07:00,1.2218010425568,4,versionC_stim.csv,RLVersionD.csv,"Relational Version D","Relational, read only version D",SIGHT,DEBATE,Study1,U,73,34,Study,User,-,,Study/JOL,"Study Phase2",813,,,-1,-1,,,,1
5efa7db7141eff8c991bf737,cicba0f55i,"Deep vs Shallow",1,236,2020-07-08T14:51:40-07:00,1.0088760852814,4,versionC_stim.csv,RLVersionD.csv,"Relational Version D","Relational, read only version D",CLEAN,HYGIENE,Study1,B,17,56,Study,User,-,,Study/JOL,"Study Phase2",552,,,-1,-1,,,,1
5efa7db7141eff8c991bf737,cicba0f55i,"Deep vs Shallow",1,237,2020-07-08T14:51:42-07:00,1.2729690074921,4,versionC_stim.csv,RLVersionD.csv,"Relational Version D","Relational, read only version D",WATER,BRIDGE,Study1,B,18,51,Study,User,-,,Study/JOL,"Study Phase2",841,,,-1,-1,,,,1
5efa7db7141eff8c991bf737,cicba0f55i,"Deep vs Shallow",1,238,2020-07-08T14:51:43-07:00,1.1068079471588,4,versionC_stim.csv,RLVersionD.csv,"Relational Version D","Relational, read only version D",LION,ART,Study1,U,79,10,Study,User,-,,Study/JOL,"Study Phase2",713,,,-1,-1,,,,1
5efa7db7141eff8c991bf737,cicba0f55i,"Deep vs Shallow",1,239,2020-07-08T14:51:44-07:00,1.5211188793182,4,versionC_stim.csv,RLVersionD.csv,"Relational Version D","Relational, read only version D",FUTURE,PAST,Study1,S,61,32,Study,User,-,,Study/JOL,"Study Phase2",1122,,,-1,-1,,,,1
5efa7db7141eff8c991bf737,cicba0f55i,"Deep vs Shallow",1,240,2020-07-08T14:51:46-07:00,1.3904840946198,4,versionC_stim.csv,RLVersionD.csv,"Relational Version D","Relational, read only version D",DROWSY,SLEEP,Study1,F,41,24,Study,User,-,,Study/JOL,"Study Phase2",880,,,-1,-1,,,,1
5efa7db7141eff8c991bf737,cicba0f55i,"Deep vs Shallow",1,241,2020-07-08T14:51:47-07:00,1.1763780117035,4,versionC_stim.csv,RLVersionD.csv,"Relational Version D","Relational, read only version D",BEE,HONEY,Study1,S,63,18,Study,User,-,,Study/JOL,"Study Phase2",787,,,-1,-1,,,,1
5efa7db7141eff8c991bf737,cicba0f55i,"Deep vs Shallow",1,242,2020-07-08T14:51:48-07:00,1.3849289417267,4,versionC_stim.csv,RLVersionD.csv,"Relational Version D","Relational, read only version D",ATTIRE,CLOTHES,Study1,F,43,70,Study,User,-,,Study/JOL,"Study Phase2",983,,,-1,-1,,,,1
5efa7db7141eff8c991bf737,cicba0f55i,"Deep vs Shallow",1,243,2020-07-08T14:51:50-07:00,1.9286599159241,4,versionC_stim.csv,RLVersionD.csv,"Relational Version D","Relational, read only version D",SACKING,DIETARY,Study1,U,67,47,Study,User,-,,Study/JOL,"Study Phase2",1502,,,-1,-1,,,,1
5efa7db7141eff8c991bf737,cicba0f55i,"Deep vs Shallow",1,244,2020-07-08T14:51:53-07:00,3.0008311271667,4,versionC_stim.csv,RLVersionD.csv,"Relational Version D","Relational, read only version D",ROUND,CIRCLE,Study1,S,65,76,Study,User,-,,Study/JOL,"Study Phase2",2569,,,-1,-1,,,,1
5efa7db7141eff8c991bf737,cicba0f55i,"Deep vs Shallow",1,245,2020-07-08T14:51:54-07:00,1.1039888858795,4,versionC_stim.csv,RLVersionD.csv,"Relational Version D","Relational, read only version D",CHILI,HOT,Study1,F,37,62,Study,User,-,,Study/JOL,"Study Phase2",705,,,-1,-1,,,,1
5efa7db7141eff8c991bf737,cicba0f55i,"Deep vs Shallow",1,246,2020-07-08T14:51:55-07:00,1.2519700527191,4,versionC_stim.csv,RLVersionD.csv,"Relational Version D","Relational, read only version D",HAND,FIX,Study1,U,75,86,Study,User,-,,Study/JOL,"Study Phase2",845,,,-1,-1,,,,1
5efa7db7141eff8c991bf737,cicba0f55i,"Deep vs Shallow",1,247,2020-07-08T14:51:58-07:00,2.108197927475,4,versionC_stim.csv,RLVersionD.csv,"Relational Version D","Relational, read only version D",ENOUGH,FULL,Study1,F,26,23,Study,User,-,,Study/JOL,"Study Phase2",1666,,,-1,-1,,,,1
5efa7db7141eff8c991bf737,cicba0f55i,"Deep vs Shallow",1,248,2020-07-08T14:51:59-07:00,1.5154800415039,4,versionC_stim.csv,RLVersionD.csv,"Relational Version D","Relational, read only version D",STENCH,SMELL,Study1,F,42,80,Study,User,-,,Study/JOL,"Study Phase2",1084,,,-1,-1,,,,1
5efa7db7141eff8c991bf737,cicba0f55i,"Deep vs Shallow",1,249,2020-07-08T14:52:00-07:00,1.3676121234894,4,versionC_stim.csv,RLVersionD.csv,"Relational Version D","Relational, read only version D",SITE,LOCATION,Study1,S,48,17,Study,User,-,,Study/JOL,"Study Phase2",969,,,-1,-1,,,,1
5efa7db7141eff8c991bf737,cicba0f55i,"Deep vs Shallow",1,250,2020-07-08T14:52:02-07:00,1.0983529090881,4,versionC_stim.csv,RLVersionD.csv,"Relational Version D","Relational, read only version D",BRONZE,ARTERY,Study1,U,74,59,Study,User,-,,Study/JOL,"Study Phase2",675,,,-1,-1,,,,1
5efa7db7141eff8c991bf737,cicba0f55i,"Deep vs Shallow",1,251,2020-07-08T14:52:03-07:00,1.5346109867096,4,versionC_stim.csv,RLVersionD.csv,"Relational Version D","Relational, read only version D",SICK,HIDE,Study1,U,84,57,Study,User,-,,Study/JOL,"Study Phase2",1099,,,-1,-1,,,,1
5efa7db7141eff8c991bf737,cicba0f55i,"Deep vs Shallow",1,252,2020-07-08T14:52:05-07:00,1.8357889652252,4,versionC_stim.csv,RLVersionD.csv,"Relational Version D","Relational, read only version D",BAD,DELINQUENT,Study1,B,6,39,Study,User,-,,Study/JOL,"Study Phase2",1264,,,-1,-1,,,,1
5efa7db7141eff8c991bf737,cicba0f55i,"Deep vs Shallow",1,253,2020-07-08T14:52:06-07:00,1.0332841873169,4,versionC_stim.csv,RLVersionD.csv,"Relational Version D","Relational, read only version D",STING,HORNET,Study1,B,11,63,Study,User,-,,Study/JOL,"Study Phase2",629,,,-1,-1,,,,1
5efa7db7141eff8c991bf737,cicba0f55i,"Deep vs Shallow",1,254,2020-07-08T14:52:07-07:00,1.5245389938354,4,versionC_stim.csv,RLVersionD.csv,"Relational Version D","Relational, read only version D",DOG,PAW,Study1,B,15,74,Study,User,-,,Study/JOL,"Study Phase2",1034,,,-1,-1,,,,1
5efa7db7141eff8c991bf737,cicba0f55i,"Deep vs Shallow",1,255,2020-07-08T14:52:09-07:00,1.2500247955322,4,versionC_stim.csv,RLVersionD.csv,"Relational Version D","Relational, read only version D",CHILD,BABY,Study1,S,64,14,Study,User,-,,Study/JOL,"Study Phase2",794,,,-1,-1,,,,1
5efa7db7141eff8c991bf737,cicba0f55i,"Deep vs Shallow",1,256,2020-07-08T14:52:10-07:00,1.6565861701965,4,versionC_stim.csv,RLVersionD.csv,"Relational Version D","Relational, read only version D",OUT,WAY,Study1,B,16,75,Study,User,-,,Study/JOL,"Study Phase2",1205,,,-1,-1,,,,1
5efa7db7141eff8c991bf737,cicba0f55i,"Deep vs Shallow",1,257,2020-07-08T14:52:12-07:00,1.7569029331207,4,versionC_stim.csv,RLVersionD.csv,"Relational Version D","Relational, read only version D",WAR,REVOLUTION,Study1,B,20,22,Study,User,-,,Study/JOL,"Study Phase2",1347,,,-1,-1,,,,1
5efa7db7141eff8c991bf737,cicba0f55i,"Deep vs Shallow",1,258,2020-07-08T14:52:14-07:00,1.8711280822754,4,versionC_stim.csv,RLVersionD.csv,"Relational Version D","Relational, read only version D",PILOT,PLANE,Study1,F,44,61,Study,User,-,,Study/JOL,"Study Phase2",1467,,,-1,-1,,,,1
5efa7db7141eff8c991bf737,cicba0f55i,"Deep vs Shallow",1,259,2020-07-08T14:52:16-07:00,1.8184359073639,4,versionC_stim.csv,RLVersionD.csv,"Relational Version D","Relational, read only version D",WOMAN,LIFT,Study1,U,69,13,Study,User,-,,Study/JOL,"Study Phase2",1418,,,-1,-1,,,,1
5efa7db7141eff8c991bf737,cicba0f55i,"Deep vs Shallow",1,260,2020-07-08T14:52:17-07:00,1.3571960926056,4,versionC_stim.csv,RLVersionD.csv,"Relational Version D","Relational, read only version D",TUCK,ALLOW,Study1,U,78,31,Study,User,-,,Study/JOL,"Study Phase2",928,,,-1,-1,,,,1
5efa7db7141eff8c991bf737,cicba0f55i,"Deep vs Shallow",1,261,2020-07-08T14:52:19-07:00,1.5391008853912,4,versionC_stim.csv,RLVersionD.csv,"Relational Version D","Relational, read only version D",PLANT,ROOT,Study1,B,13,12,Study,User,-,,Study/JOL,"Study Phase2",1090,,,-1,-1,,,,1
5efa7db7141eff8c991bf737,cicba0f55i,"Deep vs Shallow",1,262,2020-07-08T14:52:20-07:00,1.3907999992371,4,versionC_stim.csv,RLVersionD.csv,"Relational Version D","Relational, read only version D",END,BEGIN,Study1,S,54,19,Study,User,-,,Study/JOL,"Study Phase2",959,,,-1,-1,,,,1
5efa7db7141eff8c991bf737,cicba0f55i,"Deep vs Shallow",1,263,2020-07-08T14:52:21-07:00,1.3987829685211,4,versionC_stim.csv,RLVersionD.csv,"Relational Version D","Relational, read only version D",FISH,TUNA,Study1,B,25,38,Study,User,-,,Study/JOL,"Study Phase2",963,,,-1,-1,,,,1
5efa7db7141eff8c991bf737,cicba0f55i,"Deep vs Shallow",1,264,2020-07-08T14:52:23-07:00,1.4017989635468,4,versionC_stim.csv,RLVersionD.csv,"Relational Version D","Relational, read only version D",STOMACH,DIGESTION,Study1,B,7,67,Study,User,-,,Study/JOL,"Study Phase2",946,,,-1,-1,,,,1
5efa7db7141eff8c991bf737,cicba0f55i,"Deep vs Shallow",1,265,2020-07-08T14:52:24-07:00,1.3797981739044,4,versionC_stim.csv,RLVersionD.csv,"Relational Version D","Relational, read only version D",SEIZE,TAKE,Study1,F,29,79,Study,User,-,,Study/JOL,"Study Phase2",958,,,-1,-1,,,,1
5efa7db7141eff8c991bf737,cicba0f55i,"Deep vs Shallow",1,266,2020-07-08T14:52:26-07:00,1.2914729118347,4,versionC_stim.csv,RLVersionD.csv,"Relational Version D","Relational, read only version D",WORD,SENTENCE,Study1,F,31,48,Study,User,-,,Study/JOL,"Study Phase2",858,,,-1,-1,,,,1
5efa7db7141eff8c991bf737,cicba0f55i,"Deep vs Shallow",1,267,2020-07-08T14:52:28-07:00,2.1353709697723,4,versionC_stim.csv,RLVersionD.csv,"Relational Version D","Relational, read only version D",ACCIDENT,STRONG,Study1,U,80,85,Study,User,-,,Study/JOL,"Study Phase2",1380,,,-1,-1,,,,1
5efa7db7141eff8c991bf737,cicba0f55i,"Deep vs Shallow",1,268,2020-07-08T14:52:30-07:00,2.1614429950714,4,versionC_stim.csv,RLVersionD.csv,"Relational Version D","Relational, read only version D",CHEESE,WINE,Study1,S,57,52,Study,User,-,,Study/JOL,"Study Phase2",1690,,,-1,-1,,,,1
5efa7db7141eff8c991bf737,cicba0f55i,"Deep vs Shallow",1,269,2020-07-08T14:52:31-07:00,1.3483419418335,4,versionC_stim.csv,RLVersionD.csv,"Relational Version D","Relational, read only version D",SALAD,LETTUCE,Study1,S,59,72,Study,User,-,,Study/JOL,"Study Phase2",862,,,-1,-1,,,,1
5efa7db7141eff8c991bf737,cicba0f55i,"Deep vs Shallow",1,270,2020-07-08T14:52:33-07:00,1.7343881130219,4,versionC_stim.csv,RLVersionD.csv,"Relational Version D","Relational, read only version D",HAMMER,CHISEL,Study1,B,9,66,Study,User,-,,Study/JOL,"Study Phase2",1303,,,-1,-1,,,,1
5efa7db7141eff8c991bf737,cicba0f55i,"Deep vs Shallow",1,271,2020-07-08T14:52:35-07:00,1.741231918335,4,versionC_stim.csv,RLVersionD.csv,"Relational Version D","Relational, read only version D",SPACE,MOON,BUFFER2,Buffer,89,87,Study,User,-,,Study/JOL,BUFFER4,1299,,,-1,-1,,,,1
5efa7db7141eff8c991bf737,cicba0f55i,"Deep vs Shallow",1,272,2020-07-08T14:52:37-07:00,2.7896301746368,4,versionC_stim.csv,RLVersionD.csv,"Relational Version D","Relational, read only version D",POLICE,SHERRIF,BUFFER2,Buffer,87,91,Study,User,-,,Study/JOL,BUFFER4,1206,,,-1,-1,,,,1
5efa7db7141eff8c991bf737,cicba0f55i,"Deep vs Shallow",1,273,2020-07-08T14:52:40-07:00,2.1226949691772,4,versionC_stim.csv,RLVersionD.csv,"Relational Version D","Relational, read only version D",GOOSE,GEESE,BUFFER2,Buffer,86,90,Study,User,-,,Study/JOL,BUFFER4,1283,,,-1,-1,,,,1
5efa7db7141eff8c991bf737,cicba0f55i,"Deep vs Shallow",1,274,2020-07-08T14:52:41-07:00,1.7837660312653,4,versionC_stim.csv,RLVersionD.csv,"Relational Version D","Relational, read only version D",CHOCOLATE,MALT,BUFFER2,Buffer,88,88,Study,User,-,,Study/JOL,BUFFER4,1317,,,-1,-1,,,,1
5efa7db7141eff8c991bf737,cicba0f55i,"Deep vs Shallow",1,275,2020-07-08T14:52:43-07:00,1.4319288730621,4,versionC_stim.csv,RLVersionD.csv,"Relational Version D","Relational, read only version D",STUFF,THING,BUFFER2,Buffer,90,89,Study,User,-,,Study/JOL,BUFFER4,1034,,,-1,-1,,,,1
5efa7db7141eff8c991bf737,cicba0f55i,"Deep vs Shallow",1,276,2020-07-08T14:52:45-07:00,2.2595839500427,4,versionC_stim.csv,RLVersionD.csv,"Relational Version D","Relational, read only version D",,,,,,0,Instruct,User,-,"You have completed this section. Please press Enter.",Filler_Instruction,Instruct5,1699,,,-1,-1,,,,1
5efa7db7141eff8c991bf737,cicba0f55i,"Deep vs Shallow",1,277,2020-07-08T14:53:05-07:00,20.051244020462,4,versionC_stim.csv,RLVersionD.csv,"Relational Version D","Relational, read only version D",,,,,,0,FreeRecall,-,10,"What were you supposed to focus on while you studied each pair? (Hint: Think back to the instructions). Type your answer in the space below.",,CHECK3,19555,"The similarities and connections between each pair of two words",0,2395,18516,0,0,,1
5efa7db7141eff8c991bf737,cicba0f55i,"Deep vs Shallow",1,278,2020-07-08T14:53:07-07:00,1.7615251541138,4,versionC_stim.csv,RLVersionD.csv,"Relational Version D","Relational, read only version D",,,,,,0,Instruct,User,-,"You have completed this section. Please press Enter.",Filler_Instruction,Instruct5,1250,,,-1,-1,,,,1
5efa7db7141eff8c991bf737,cicba0f55i,"Deep vs Shallow",1,279,2020-07-08T14:55:08-07:00,121.19822978973,4,versionC_stim.csv,RLVersionD.csv,"Relational Version D","Relational, read only version D",,,,,,0,FreeRecall,120,120,"Please list the 50 US states in reverse alphabetical order (z - a). The task will automatically advance to the next screen after two minutes.",,Filler2,120002,"Wisconson West Virginia Virginia Vermont Texas South Dakota South Carolina Rhode Island Pennsylvania Oregon Ohio New York Ne",0,7820,119768,0,0,,1
5efa7db7141eff8c991bf737,cicba0f55i,"Deep vs Shallow",1,280,2020-07-08T14:55:20-07:00,11.828774213791,4,versionC_stim.csv,RLVersionD.csv,"Relational Version D","Relational, read only version D",,,,,,0,Instruct,-,10,"You will now be presented with the first word from each of the previously studied item pairs. Please type the missing word. If you do not know the word, you may guess or press Enter to skip forward to the next pair.",,Instruct6,11051,,,-1,-1,,,,1
5efa7db7141eff8c991bf737,cicba0f55i,"Deep vs Shallow",1,281,2020-07-08T14:55:24-07:00,4.2933959960938,4,versionC_stim.csv,RLVersionD.csv,"Relational Version D","Relational, read only version D",PLANT,ROOT,Study1,B,13,12,Test,User,-,,Recall,Recall2,3743,flower,20,2837,3466,0,0,,1
5efa7db7141eff8c991bf737,cicba0f55i,"Deep vs Shallow",1,282,2020-07-08T14:55:34-07:00,9.4037458896637,4,versionC_stim.csv,RLVersionD.csv,"Relational Version D","Relational, read only version D",SICK,HIDE,Study1,U,84,57,Test,User,-,,Recall,Recall2,6757,behave,20,4761,6443,0,0,,1
5efa7db7141eff8c991bf737,cicba0f55i,"Deep vs Shallow",1,283,2020-07-08T14:55:38-07:00,4.2788770198822,4,versionC_stim.csv,RLVersionD.csv,"Relational Version D","Relational, read only version D",BIRD,SWAN,Study1,B,14,50,Test,User,-,,Recall,Recall2,3833,pet,0,3496,3653,0,0,,1
5efa7db7141eff8c991bf737,cicba0f55i,"Deep vs Shallow",1,284,2020-07-08T14:55:40-07:00,2.3969569206238,4,versionC_stim.csv,RLVersionD.csv,"Relational Version D","Relational, read only version D",FAMINE,HUNGER,Study1,F,40,21,Test,User,-,,Recall,Recall2,1938,hunger,100,1330,1856,1,1,,1
5efa7db7141eff8c991bf737,cicba0f55i,"Deep vs Shallow",1,285,2020-07-08T14:55:48-07:00,7.5394520759583,4,versionC_stim.csv,RLVersionD.csv,"Relational Version D","Relational, read only version D",ACCIDENT,STRONG,Study1,U,80,85,Test,User,-,,Recall,Recall2,7141,hurt,20,6533,6784,0,0,,1
5efa7db7141eff8c991bf737,cicba0f55i,"Deep vs Shallow",1,286,2020-07-08T14:55:50-07:00,2.6982779502869,4,versionC_stim.csv,RLVersionD.csv,"Relational Version D","Relational, read only version D",DESIGN,ARCHITECTURE,Study1,S,51,16,Test,User,-,,Recall,Recall2,2249,clothes,31.578947368421,1334,2137,0,0,,1
5efa7db7141eff8c991bf737,cicba0f55i,"Deep vs Shallow",1,287,2020-07-08T14:55:53-07:00,2.3976459503174,4,versionC_stim.csv,RLVersionD.csv,"Relational Version D","Relational, read only version D",SIGHT,DEBATE,Study1,U,73,34,Test,User,-,,Recall,Recall2,1996,eyes,40,1247,1836,0,0,,1
5efa7db7141eff8c991bf737,cicba0f55i,"Deep vs Shallow",1,288,2020-07-08T14:55:55-07:00,2.0709691047668,4,versionC_stim.csv,RLVersionD.csv,"Relational Version D","Relational, read only version D",RIDDLE,SUGAR,Study1,U,81,71,Test,User,-,,Recall,Recall2,1651,joke,0,1154,1539,0,0,,1
5efa7db7141eff8c991bf737,cicba0f55i,"Deep vs Shallow",1,289,2020-07-08T14:55:57-07:00,2.0550038814545,4,versionC_stim.csv,RLVersionD.csv,"Relational Version D","Relational, read only version D",LATCH,KEY,Study1,F,36,69,Test,User,-,,Recall,Recall2,1599,key,100,1186,1475,1,1,,1
5efa7db7141eff8c991bf737,cicba0f55i,"Deep vs Shallow",1,290,2020-07-08T14:56:02-07:00,5.2634880542755,4,versionC_stim.csv,RLVersionD.csv,"Relational Version D","Relational, read only version D",CARD,CREDIT,Study1,B,23,45,Test,User,-,,Recall,Recall2,2601,deck,20,2075,2466,0,0,,1
5efa7db7141eff8c991bf737,cicba0f55i,"Deep vs Shallow",1,291,2020-07-08T14:56:05-07:00,2.5433361530304,4,versionC_stim.csv,RLVersionD.csv,"Relational Version D","Relational, read only version D",RACKET,BALL,Study1,F,38,82,Test,User,-,,Recall,Recall2,2118,tennis,0,1341,1981,0,0,,1
5efa7db7141eff8c991bf737,cicba0f55i,"Deep vs Shallow",1,292,2020-07-08T14:56:07-07:00,2.481743812561,4,versionC_stim.csv,RLVersionD.csv,"Relational Version D","Relational, read only version D",JURY,TRIAL,Study1,S,50,46,Test,User,-,,Recall,Recall2,2023,judge,0,1325,1880,0,0,,1
5efa7db7141eff8c991bf737,cicba0f55i,"Deep vs Shallow",1,293,2020-07-08T14:56:10-07:00,2.4745080471039,4,versionC_stim.csv,RLVersionD.csv,"Relational Version D","Relational, read only version D",FOOT,SHOE,Study1,S,60,43,Test,User,-,,Recall,Recall2,2039,shoe,100,1266,1856,1,1,,1
5efa7db7141eff8c991bf737,cicba0f55i,"Deep vs Shallow",1,294,2020-07-08T14:56:13-07:00,2.7788641452789,4,versionC_stim.csv,RLVersionD.csv,"Relational Version D","Relational, read only version D",COW,HERD,Study1,B,22,65,Test,User,-,,Recall,Recall2,2384,herd,100,1960,2249,1,1,,1
5efa7db7141eff8c991bf737,cicba0f55i,"Deep vs Shallow",1,295,2020-07-08T14:56:15-07:00,2.4388558864594,4,versionC_stim.csv,RLVersionD.csv,"Relational Version D","Relational, read only version D",END,BEGIN,Study1,S,54,19,Test,User,-,,Recall,Recall2,2025,begin,100,1186,1789,1,1,,1
5efa7db7141eff8c991bf737,cicba0f55i,"Deep vs Shallow",1,296,2020-07-08T14:56:18-07:00,2.8295850753784,4,versionC_stim.csv,RLVersionD.csv,"Relational Version D","Relational, read only version D",TOILET,BATHROOM,Study1,S,58,7,Test,User,-,,Recall,Recall2,2408,bowl,33.333333333333,1861,2196,0,0,,1
5efa7db7141eff8c991bf737,cicba0f55i,"Deep vs Shallow",1,297,2020-07-08T14:56:20-07:00,1.8442499637604,4,versionC_stim.csv,RLVersionD.csv,"Relational Version D","Relational, read only version D",CHILI,HOT,Study1,F,37,62,Test,User,-,,Recall,Recall2,1389,hot,100,972,1272,1,1,,1
5efa7db7141eff8c991bf737,cicba0f55i,"Deep vs Shallow",1,298,2020-07-08T14:56:26-07:00,6.2597470283508,4,versionC_stim.csv,RLVersionD.csv,"Relational Version D","Relational, read only version D",DROWSY,SLEEP,Study1,F,41,24,Test,User,-,,Recall,Recall2,1914,sleepy,90.909090909091,1052,1772,0,1,,1
5efa7db7141eff8c991bf737,cicba0f55i,"Deep vs Shallow",1,299,2020-07-08T14:56:30-07:00,4.5599298477173,4,versionC_stim.csv,RLVersionD.csv,"Relational Version D","Relational, read only version D",POSITION,MACHINE,Study1,U,76,64,Test,User,-,,Recall,Recall2,4062,spot,0,3646,3965,0,0,,1
5efa7db7141eff8c991bf737,cicba0f55i,"Deep vs Shallow",1,300,2020-07-08T14:56:44-07:00,13.231931209564,4,versionC_stim.csv,RLVersionD.csv,"Relational Version D","Relational, read only version D",ROCK,GEOLOGY,Study1,B,19,60,Test,User,-,,Recall,Recall2,12745,hard,0,12280,12636,0,0,,1
5efa7db7141eff8c991bf737,cicba0f55i,"Deep vs Shallow",1,301,2020-07-08T14:56:50-07:00,6.7421278953552,4,versionC_stim.csv,RLVersionD.csv,"Relational Version D","Relational, read only version D",ADD,VALLEY,Study1,U,82,42,Test,User,-,,Recall,Recall2,6253,plus,20,3621,6080,0,0,,1
5efa7db7141eff8c991bf737,cicba0f55i,"Deep vs Shallow",1,302,2020-07-08T14:56:53-07:00,2.1701998710632,4,versionC_stim.csv,RLVersionD.csv,"Relational Version D","Relational, read only version D",PILOT,PLANE,Study1,F,44,61,Test,User,-,,Recall,Recall2,1732,plane,100,1169,1610,1,1,,1
5efa7db7141eff8c991bf737,cicba0f55i,"Deep vs Shallow",1,303,2020-07-08T14:56:57-07:00,3.9226582050323,4,versionC_stim.csv,RLVersionD.csv,"Relational Version D","Relational, read only version D",WATER,BRIDGE,Study1,B,18,51,Test,User,-,,Recall,Recall2,3454,cold,20,1440,3076,0,0,,1
5efa7db7141eff8c991bf737,cicba0f55i,"Deep vs Shallow",1,304,2020-07-08T14:56:59-07:00,2.1446228027344,4,versionC_stim.csv,RLVersionD.csv,"Relational Version D","Relational, read only version D",COLD,BITTER,Study1,B,12,68,Test,User,-,,Recall,Recall2,1720,water,54.545454545455,1112,1598,0,0,,1
5efa7db7141eff8c991bf737,cicba0f55i,"Deep vs Shallow",1,305,2020-07-08T14:57:02-07:00,3.5833961963654,4,versionC_stim.csv,RLVersionD.csv,"Relational Version D","Relational, read only version D",HUNGRY,PARK,Study1,U,68,28,Test,User,-,,Recall,Recall2,3132,famine,20,2077,2737,0,0,,1
5efa7db7141eff8c991bf737,cicba0f55i,"Deep vs Shallow",1,306,2020-07-08T14:57:07-07:00,4.3136630058289,4,versionC_stim.csv,RLVersionD.csv,"Relational Version D","Relational, read only version D",BAD,DELINQUENT,Study1,B,6,39,Test,User,-,,Recall,Recall2,3946,villain,35.294117647059,2065,3773,0,0,,1
5efa7db7141eff8c991bf737,cicba0f55i,"Deep vs Shallow",1,307,2020-07-08T14:57:09-07:00,2.7709429264069,4,versionC_stim.csv,RLVersionD.csv,"Relational Version D","Relational, read only version D",DOG,PAW,Study1,B,15,74,Test,User,-,,Recall,Recall2,2338,pet,33.333333333333,1984,2177,0,0,,1
5efa7db7141eff8c991bf737,cicba0f55i,"Deep vs Shallow",1,308,2020-07-08T14:57:12-07:00,2.6433579921722,4,versionC_stim.csv,RLVersionD.csv,"Relational Version D","Relational, read only version D",SALAD,LETTUCE,Study1,S,59,72,Test,User,-,,Recall,Recall2,2223,green,33.333333333333,1074,1870,0,0,,1
5efa7db7141eff8c991bf737,cicba0f55i,"Deep vs Shallow",1,309,2020-07-08T14:57:16-07:00,3.6590619087219,4,versionC_stim.csv,RLVersionD.csv,"Relational Version D","Relational, read only version D",BUSINESS,DEATH,Study1,U,72,55,Test,User,-,,Recall,Recall2,3167,money,20,2476,2904,0,0,,1
5efa7db7141eff8c991bf737,cicba0f55i,"Deep vs Shallow",1,310,2020-07-08T14:57:19-07:00,3.4586141109467,4,versionC_stim.csv,RLVersionD.csv,"Relational Version D","Relational, read only version D",ATTIRE,CLOTHES,Study1,F,43,70,Test,User,-,,Recall,Recall2,2024,clothes,100,1115,1895,1,1,,1
5efa7db7141eff8c991bf737,cicba0f55i,"Deep vs Shallow",1,311,2020-07-08T14:57:22-07:00,2.5211100578308,4,versionC_stim.csv,RLVersionD.csv,"Relational Version D","Relational, read only version D",TALK,DISCUSSION,Study1,B,21,83,Test,User,-,,Recall,Recall2,2054,show,28.571428571429,1520,1898,0,0,,1
5efa7db7141eff8c991bf737,cicba0f55i,"Deep vs Shallow",1,312,2020-07-08T14:57:24-07:00,2.7648658752441,4,versionC_stim.csv,RLVersionD.csv,"Relational Version D","Relational, read only version D",FLOOR,DISCOVER,Study1,U,71,73,Test,User,-,,Recall,Recall2,2307,bottom,14.285714285714,1593,2140,0,0,,1
5efa7db7141eff8c991bf737,cicba0f55i,"Deep vs Shallow",1,313,2020-07-08T14:57:29-07:00,4.3010280132294,4,versionC_stim.csv,RLVersionD.csv,"Relational Version D","Relational, read only version D",FLOWER,ORCHID,Study1,B,24,35,Test,User,-,,Recall,Recall2,3904,petal,0,2538,3820,0,0,,1
5efa7db7141eff8c991bf737,cicba0f55i,"Deep vs Shallow",1,314,2020-07-08T14:57:32-07:00,3.4599969387054,4,versionC_stim.csv,RLVersionD.csv,"Relational Version D","Relational, read only version D",ASSIGNMENT,DUE,Study1,S,46,54,Test,User,-,,Recall,Recall2,3022,test,28.571428571429,2039,2607,0,0,,1
5efa7db7141eff8c991bf737,cicba0f55i,"Deep vs Shallow",1,315,2020-07-08T14:57:35-07:00,3.3149101734161,4,versionC_stim.csv,RLVersionD.csv,"Relational Version D","Relational, read only version D",FANTASTIC,GREAT,Study1,F,35,8,Test,User,-,,Recall,Recall2,2876,best,44.444444444444,2316,2779,0,0,,1
5efa7db7141eff8c991bf737,cicba0f55i,"Deep vs Shallow",1,316,2020-07-08T14:57:38-07:00,2.4383239746094,4,versionC_stim.csv,RLVersionD.csv,"Relational Version D","Relational, read only version D",BLAZE,FIRE,Study1,F,45,33,Test,User,-,,Recall,Recall2,1970,fire,100,1533,1864,1,1,,1
5efa7db7141eff8c991bf737,cicba0f55i,"Deep vs Shallow",1,317,2020-07-08T14:57:57-07:00,19.142492055893,4,versionC_stim.csv,RLVersionD.csv,"Relational Version D","Relational, read only version D",WIND,BLOW,Study1,S,55,44,Test,User,-,,Recall,Recall2,18623,blow,100,18079,18490,1,1,,1
5efa7db7141eff8c991bf737,cicba0f55i,"Deep vs Shallow",1,318,2020-07-08T14:58:00-07:00,2.8452579975128,4,versionC_stim.csv,RLVersionD.csv,"Relational Version D","Relational, read only version D",GROWTH,HEIGHT,Study1,F,30,77,Test,User,-,,Recall,Recall2,2294,height,100,1662,2138,1,1,,1
5efa7db7141eff8c991bf737,cicba0f55i,"Deep vs Shallow",1,319,2020-07-08T14:58:20-07:00,20.02122092247,4,versionC_stim.csv,RLVersionD.csv,"Relational Version D","Relational, read only version D",SEIZE,TAKE,Study1,F,29,79,Test,User,-,,Recall,Recall2,17438,capture,36.363636363636,16188,17315,0,0,,0.193
5efa7db7141eff8c991bf737,cicba0f55i,"Deep vs Shallow",1,320,2020-07-08T14:58:23-07:00,3.3869960308075,4,versionC_stim.csv,RLVersionD.csv,"Relational Version D","Relational, read only version D",DIVISION,MATH,Study1,F,33,11,Test,User,-,,Recall,Recall2,2792,add,28.571428571429,2311,2604,0,0,,1
5efa7db7141eff8c991bf737,cicba0f55i,"Deep vs Shallow",1,321,2020-07-08T14:58:27-07:00,3.4300589561462,4,versionC_stim.csv,RLVersionD.csv,"Relational Version D","Relational, read only version D",SIP,DRINK,Study1,F,27,58,Test,User,-,,Recall,Recall2,3001,drink,100,2349,2805,1,1,,1
5efa7db7141eff8c991bf737,cicba0f55i,"Deep vs Shallow",1,322,2020-07-08T14:58:31-07:00,4.4271450042725,4,versionC_stim.csv,RLVersionD.csv,"Relational Version D","Relational, read only version D",HAND,FIX,Study1,U,75,86,Test,User,-,,Recall,Recall2,3965,glove,0,3284,3766,0,0,,1
5efa7db7141eff8c991bf737,cicba0f55i,"Deep vs Shallow",1,323,2020-07-08T14:58:34-07:00,2.7501239776611,4,versionC_stim.csv,RLVersionD.csv,"Relational Version D","Relational, read only version D",CAVE,DARK,Study1,F,28,29,Test,User,-,,Recall,Recall2,2284,dark,100,1718,2165,1,1,,1
5efa7db7141eff8c991bf737,cicba0f55i,"Deep vs Shallow",1,324,2020-07-08T14:58:37-07:00,3.1394989490509,4,versionC_stim.csv,RLVersionD.csv,"Relational Version D","Relational, read only version D",WOMAN,LIFT,Study1,U,69,13,Test,User,-,,Recall,Recall2,2680,man,0,2263,2451,0,0,,1
5efa7db7141eff8c991bf737,cicba0f55i,"Deep vs Shallow",1,325,2020-07-08T14:58:39-07:00,2.2779190540314,4,versionC_stim.csv,RLVersionD.csv,"Relational Version D","Relational, read only version D",TUCK,ALLOW,Study1,U,78,31,Test,User,-,,Recall,Recall2,1723,shirt,0,1104,1497,0,0,,1
5efa7db7141eff8c991bf737,cicba0f55i,"Deep vs Shallow",1,326,2020-07-08T14:58:49-07:00,9.6200048923492,4,versionC_stim.csv,RLVersionD.csv,"Relational Version D","Relational, read only version D",SACKING,DIETARY,Study1,U,67,47,Test,User,-,,Recall,Recall2,6911,dietary,100,3924,5870,1,1,,1
5efa7db7141eff8c991bf737,cicba0f55i,"Deep vs Shallow",1,327,2020-07-08T14:58:53-07:00,3.6717209815979,4,versionC_stim.csv,RLVersionD.csv,"Relational Version D","Relational, read only version D",CAR,HAPPY,Study1,U,77,30,Test,User,-,,Recall,Recall2,3203,engine,0,2580,3082,0,0,,1
5efa7db7141eff8c991bf737,cicba0f55i,"Deep vs Shallow",1,328,2020-07-08T14:58:55-07:00,2.7306110858917,4,versionC_stim.csv,RLVersionD.csv,"Relational Version D","Relational, read only version D",VASE,KING,Study1,U,85,78,Test,User,-,,Recall,Recall2,2275,flower,0,1376,1997,0,0,,1
5efa7db7141eff8c991bf737,cicba0f55i,"Deep vs Shallow",1,329,2020-07-08T14:59:01-07:00,5.6075000762939,4,versionC_stim.csv,RLVersionD.csv,"Relational Version D","Relational, read only version D",WORD,SENTENCE,Study1,F,31,48,Test,User,-,,Recall,Recall2,5164,speech,57.142857142857,4290,4960,0,0,,1
5efa7db7141eff8c991bf737,cicba0f55i,"Deep vs Shallow",1,330,2020-07-08T14:59:04-07:00,2.6111919879913,4,versionC_stim.csv,RLVersionD.csv,"Relational Version D","Relational, read only version D",MONEY,WAGE,Study1,B,8,37,Test,User,-,,Recall,Recall2,2117,business,16.666666666667,1162,2009,0,0,,1
5efa7db7141eff8c991bf737,cicba0f55i,"Deep vs Shallow",1,331,2020-07-08T14:59:08-07:00,4.7896368503571,4,versionC_stim.csv,RLVersionD.csv,"Relational Version D","Relational, read only version D",CHEESE,WINE,Study1,S,57,52,Test,User,-,,Recall,Recall2,4329,cow,28.571428571429,4015,4213,0,0,,1
5efa7db7141eff8c991bf737,cicba0f55i,"Deep vs Shallow",1,332,2020-07-08T14:59:12-07:00,3.2621371746063,4,versionC_stim.csv,RLVersionD.csv,"Relational Version D","Relational, read only version D",NEWS,EDITOR,Study1,B,10,41,Test,User,-,,Recall,Recall2,2797,paper,36.363636363636,1182,2653,0,0,,1
5efa7db7141eff8c991bf737,cicba0f55i,"Deep vs Shallow",1,333,2020-07-08T14:59:14-07:00,1.9386270046234,4,versionC_stim.csv,RLVersionD.csv,"Relational Version D","Relational, read only version D",STING,HORNET,Study1,B,11,63,Test,User,-,,Recall,Recall2,1477,bee,22.222222222222,1123,1344,0,0,,1
5efa7db7141eff8c991bf737,cicba0f55i,"Deep vs Shallow",1,334,2020-07-08T14:59:16-07:00,2.7724988460541,4,versionC_stim.csv,RLVersionD.csv,"Relational Version D","Relational, read only version D",ENOUGH,FULL,Study1,F,26,23,Test,User,-,,Recall,Recall2,2345,done,0,1927,2264,0,0,,1
5efa7db7141eff8c991bf737,cicba0f55i,"Deep vs Shallow",1,335,2020-07-08T14:59:20-07:00,3.769590139389,4,versionC_stim.csv,RLVersionD.csv,"Relational Version D","Relational, read only version D",SODA,POP,Study1,S,56,27,Test,User,-,,Recall,Recall2,3286,fizz,0,2246,3066,0,0,,1
5efa7db7141eff8c991bf737,cicba0f55i,"Deep vs Shallow",1,336,2020-07-08T14:59:24-07:00,3.3802349567413,4,versionC_stim.csv,RLVersionD.csv,"Relational Version D","Relational, read only version D",FISH,TUNA,Study1,B,25,38,Test,User,-,,Recall,Recall2,2927,sardines,16.666666666667,1700,2739,0,0,,1
5efa7db7141eff8c991bf737,cicba0f55i,"Deep vs Shallow",1,337,2020-07-08T14:59:31-07:00,7.6729390621185,4,versionC_stim.csv,RLVersionD.csv,"Relational Version D","Relational, read only version D",LION,ART,Study1,U,79,10,Test,User,-,,Recall,Recall2,7273,pretty,44.444444444444,3706,4324,0,0,,1
5efa7db7141eff8c991bf737,cicba0f55i,"Deep vs Shallow",1,338,2020-07-08T14:59:34-07:00,2.4123039245605,4,versionC_stim.csv,RLVersionD.csv,"Relational Version D","Relational, read only version D",STENCH,SMELL,Study1,F,42,80,Test,User,-,,Recall,Recall2,1934,smell,100,1112,1823,1,1,,1
5efa7db7141eff8c991bf737,cicba0f55i,"Deep vs Shallow",1,339,2020-07-08T14:59:36-07:00,2.0844950675964,4,versionC_stim.csv,RLVersionD.csv,"Relational Version D","Relational, read only version D",CHORE,WORK,Study1,F,39,20,Test,User,-,,Recall,Recall2,1626,work,100,1114,1501,1,1,,1
5efa7db7141eff8c991bf737,cicba0f55i,"Deep vs Shallow",1,340,2020-07-08T14:59:40-07:00,3.8429639339447,4,versionC_stim.csv,RLVersionD.csv,"Relational Version D","Relational, read only version D",LIVER,KIDNEY,Study1,S,53,25,Test,User,-,,Recall,Recall2,3362,ogan,20,2493,3086,0,0,,1
5efa7db7141eff8c991bf737,cicba0f55i,"Deep vs Shallow",1,341,2020-07-08T14:59:43-07:00,3.3314969539642,4,versionC_stim.csv,RLVersionD.csv,"Relational Version D","Relational, read only version D",FUTURE,PAST,Study1,S,61,32,Test,User,-,,Recall,Recall2,2903,past,100,2130,2580,1,1,,1
5efa7db7141eff8c991bf737,cicba0f55i,"Deep vs Shallow",1,342,2020-07-08T14:59:48-07:00,5.4241850376129,4,versionC_stim.csv,RLVersionD.csv,"Relational Version D","Relational, read only version D",SITE,LOCATION,Study1,S,48,17,Test,User,-,,Recall,Recall2,4950,location,100,3526,4652,1,1,,1
5efa7db7141eff8c991bf737,cicba0f55i,"Deep vs Shallow",1,343,2020-07-08T14:59:51-07:00,2.2961339950562,4,versionC_stim.csv,RLVersionD.csv,"Relational Version D","Relational, read only version D",BEE,HONEY,Study1,S,63,18,Test,User,-,,Recall,Recall2,1855,sting,20,1172,1733,0,0,,1
5efa7db7141eff8c991bf737,cicba0f55i,"Deep vs Shallow",1,344,2020-07-08T14:59:54-07:00,3.3132009506226,4,versionC_stim.csv,RLVersionD.csv,"Relational Version D","Relational, read only version D",DEFINITION,MEANING,Study1,S,62,15,Test,User,-,,Recall,Recall2,2872,word,0,2221,2698,0,0,,1
