Username,ID,ExperimentName,Session,Trial,Date,TimeDif,"Condition Number","Stimuli File","Order File","Condition Description","Condition Notes",Stimuli*Cue,Stimuli*Answer,Stimuli*Shuffle,"Stimuli*Stimuli Notes",Stimuli*Value,Procedure*Item,"Procedure*Trial Type","Procedure*Max Time","Procedure*Min Time",Procedure*Text,"Procedure*Procedure Notes",Procedure*Shuffle,Response*RT,Response*Response,Response*Accuracy,Response*RTfirst,Response*RTlast,Response*strictAcc,Response*lenientAcc,Response*focus,Response*Focus
5e8d45d744061711c6b8e3ad,g6n3un3k2r,"Deep vs Shallow",1,1,2020-07-08T14:26:59-07:00,13.664721012115,3,versionC_stim.csv,RLVersionC.csv,"Realational Version C","Relational, read only version C",,,,,,0,Instruct,-,10,"In this section, you will be presented with a series of word pairs. Please study both items in the pair.",,Instruct15,13266,,,-1,-1,,,,1
5e8d45d744061711c6b8e3ad,g6n3un3k2r,"Deep vs Shallow",1,2,2020-07-08T14:27:15-07:00,16.268754005432,3,versionC_stim.csv,RLVersionC.csv,"Realational Version C","Relational, read only version C",,,,,,0,Instruct,-,15,"As you study, please think about how the two concepts are RELATED to each other. For example, if you see the pair TURTLE-CAT, think about how both are alive, they are both animals, and both can be kept as pets.",,Instruct19,15737,,,-1,-1,,,,1
5e8d45d744061711c6b8e3ad,g6n3un3k2r,"Deep vs Shallow",1,3,2020-07-08T14:27:34-07:00,19.643224954605,3,versionC_stim.csv,RLVersionC.csv,"Realational Version C","Relational, read only version C",,,,,,0,FreeRecall,-,10,"What you should think about as you study each item pair? Type your response in the box below.",,CHECK1,19097,"Study them, and assess how they may be related to eachother.",0,6956,18134,0,0,,1
5e8d45d744061711c6b8e3ad,g6n3un3k2r,"Deep vs Shallow",1,4,2020-07-08T14:27:38-07:00,3.5146269798279,3,versionC_stim.csv,RLVersionC.csv,"Realational Version C","Relational, read only version C",,,,,,0,Instruct,User,-,"You will now begin the experiment. Press ENTER when you are ready to begin.",,Instruct000,2995,,,-1,-1,,,,1
5e8d45d744061711c6b8e3ad,g6n3un3k2r,"Deep vs Shallow",1,5,2020-07-08T14:27:43-07:00,4.9623601436615,3,versionC_stim.csv,RLVersionC.csv,"Realational Version C","Relational, read only version C",CATCHER,BASEBALL,BUFFER1,Buffer,2,4,Study,User,-,,Study/JOL,BUFFER,4458,,,-1,-1,,,,1
5e8d45d744061711c6b8e3ad,g6n3un3k2r,"Deep vs Shallow",1,6,2020-07-08T14:27:48-07:00,4.9346580505371,3,versionC_stim.csv,RLVersionC.csv,"Realational Version C","Relational, read only version C",GREEN,TREES,BUFFER1,Buffer,1,3,Study,User,-,,Study/JOL,BUFFER,4426,,,-1,-1,,,,1
5e8d45d744061711c6b8e3ad,g6n3un3k2r,"Deep vs Shallow",1,7,2020-07-08T14:27:52-07:00,4.4931910037994,3,versionC_stim.csv,RLVersionC.csv,"Realational Version C","Relational, read only version C",JAM,SPACE,BUFFER1,Buffer,5,6,Study,User,-,,Study/JOL,BUFFER,3971,,,-1,-1,,,,1
5e8d45d744061711c6b8e3ad,g6n3un3k2r,"Deep vs Shallow",1,8,2020-07-08T14:27:59-07:00,6.3088788986206,3,versionC_stim.csv,RLVersionC.csv,"Realational Version C","Relational, read only version C",HIDE,SCARE,BUFFER1,Buffer,4,2,Study,User,-,,Study/JOL,BUFFER,5780,,,-1,-1,,,,1
5e8d45d744061711c6b8e3ad,g6n3un3k2r,"Deep vs Shallow",1,9,2020-07-08T14:28:04-07:00,4.8733129501343,3,versionC_stim.csv,RLVersionC.csv,"Realational Version C","Relational, read only version C",BUTTER,PEANUT,BUFFER1,Buffer,3,5,Study,User,-,,Study/JOL,BUFFER,4352,,,-1,-1,,,,1
5e8d45d744061711c6b8e3ad,g6n3un3k2r,"Deep vs Shallow",1,10,2020-07-08T14:28:07-07:00,3.8844010829926,3,versionC_stim.csv,RLVersionC.csv,"Realational Version C","Relational, read only version C",COW,HERD,Study1,B,22,25,Study,User,-,,Study/JOL,"Study Phase",3371,,,-1,-1,,,,1
5e8d45d744061711c6b8e3ad,g6n3un3k2r,"Deep vs Shallow",1,11,2020-07-08T14:28:12-07:00,4.6629030704498,3,versionC_stim.csv,RLVersionC.csv,"Realational Version C","Relational, read only version C",DROWSY,SLEEP,Study1,F,41,38,Study,User,-,,Study/JOL,"Study Phase",4161,,,-1,-1,,,,1
5e8d45d744061711c6b8e3ad,g6n3un3k2r,"Deep vs Shallow",1,12,2020-07-08T14:28:23-07:00,10.570586919785,3,versionC_stim.csv,RLVersionC.csv,"Realational Version C","Relational, read only version C",COLD,BITTER,Study1,B,12,79,Study,User,-,,Study/JOL,"Study Phase",10064,,,-1,-1,,,,1
5e8d45d744061711c6b8e3ad,g6n3un3k2r,"Deep vs Shallow",1,13,2020-07-08T14:28:26-07:00,3.477963924408,3,versionC_stim.csv,RLVersionC.csv,"Realational Version C","Relational, read only version C",WIND,BLOW,Study1,S,55,86,Study,User,-,,Study/JOL,"Study Phase",2935,,,-1,-1,,,,1
5e8d45d744061711c6b8e3ad,g6n3un3k2r,"Deep vs Shallow",1,14,2020-07-08T14:28:42-07:00,15.982828140259,3,versionC_stim.csv,RLVersionC.csv,"Realational Version C","Relational, read only version C",SIGHT,DEBATE,Study1,U,73,14,Study,User,-,,Study/JOL,"Study Phase",15476,,,-1,-1,,,,1
5e8d45d744061711c6b8e3ad,g6n3un3k2r,"Deep vs Shallow",1,15,2020-07-08T14:28:46-07:00,4.025475025177,3,versionC_stim.csv,RLVersionC.csv,"Realational Version C","Relational, read only version C",FAMINE,HUNGER,Study1,F,40,62,Study,User,-,,Study/JOL,"Study Phase",3480,,,-1,-1,,,,1
5e8d45d744061711c6b8e3ad,g6n3un3k2r,"Deep vs Shallow",1,16,2020-07-08T14:28:51-07:00,5.0248429775238,3,versionC_stim.csv,RLVersionC.csv,"Realational Version C","Relational, read only version C",ENOUGH,FULL,Study1,F,26,43,Study,User,-,,Study/JOL,"Study Phase",4498,,,-1,-1,,,,1
5e8d45d744061711c6b8e3ad,g6n3un3k2r,"Deep vs Shallow",1,17,2020-07-08T14:28:53-07:00,1.7813868522644,3,versionC_stim.csv,RLVersionC.csv,"Realational Version C","Relational, read only version C",BEE,HONEY,Study1,S,63,18,Study,User,-,,Study/JOL,"Study Phase",1345,,,-1,-1,,,,1
5e8d45d744061711c6b8e3ad,g6n3un3k2r,"Deep vs Shallow",1,18,2020-07-08T14:28:55-07:00,1.8476359844208,3,versionC_stim.csv,RLVersionC.csv,"Realational Version C","Relational, read only version C",ROCK,GEOLOGY,Study1,B,19,37,Study,User,-,,Study/JOL,"Study Phase",1419,,,-1,-1,,,,1
5e8d45d744061711c6b8e3ad,g6n3un3k2r,"Deep vs Shallow",1,19,2020-07-08T14:29:01-07:00,6.1141681671143,3,versionC_stim.csv,RLVersionC.csv,"Realational Version C","Relational, read only version C",WOULD,CASH,Study1,U,83,49,Study,User,-,,Study/JOL,"Study Phase",5605,,,-1,-1,,,,1
5e8d45d744061711c6b8e3ad,g6n3un3k2r,"Deep vs Shallow",1,20,2020-07-08T14:29:02-07:00,1.4409208297729,3,versionC_stim.csv,RLVersionC.csv,"Realational Version C","Relational, read only version C",ATTORNEY,LAW,Study1,F,34,31,Study,User,-,,Study/JOL,"Study Phase",1020,,,-1,-1,,,,1
5e8d45d744061711c6b8e3ad,g6n3un3k2r,"Deep vs Shallow",1,21,2020-07-08T14:29:17-07:00,15.082489967346,3,versionC_stim.csv,RLVersionC.csv,"Realational Version C","Relational, read only version C",POSITION,MACHINE,Study1,U,76,65,Study,User,-,,Study/JOL,"Study Phase",14523,,,-1,-1,,,,1
5e8d45d744061711c6b8e3ad,g6n3un3k2r,"Deep vs Shallow",1,22,2020-07-08T14:29:19-07:00,1.9712362289429,3,versionC_stim.csv,RLVersionC.csv,"Realational Version C","Relational, read only version C",NEWS,EDITOR,Study1,B,10,58,Study,User,-,,Study/JOL,"Study Phase",1534,,,-1,-1,,,,1
5e8d45d744061711c6b8e3ad,g6n3un3k2r,"Deep vs Shallow",1,23,2020-07-08T14:29:21-07:00,1.6441497802734,3,versionC_stim.csv,RLVersionC.csv,"Realational Version C","Relational, read only version C",CARD,CREDIT,Study1,B,23,74,Study,User,-,,Study/JOL,"Study Phase",1225,,,-1,-1,,,,1
5e8d45d744061711c6b8e3ad,g6n3un3k2r,"Deep vs Shallow",1,24,2020-07-08T14:29:25-07:00,3.7494390010834,3,versionC_stim.csv,RLVersionC.csv,"Realational Version C","Relational, read only version C",BAR,GRILL,Study1,S,52,66,Study,User,-,,Study/JOL,"Study Phase",3238,,,-1,-1,,,,1
5e8d45d744061711c6b8e3ad,g6n3un3k2r,"Deep vs Shallow",1,25,2020-07-08T14:29:26-07:00,1.397402048111,3,versionC_stim.csv,RLVersionC.csv,"Realational Version C","Relational, read only version C",ROUND,CIRCLE,Study1,S,65,39,Study,User,-,,Study/JOL,"Study Phase",977,,,-1,-1,,,,1
5e8d45d744061711c6b8e3ad,g6n3un3k2r,"Deep vs Shallow",1,26,2020-07-08T14:29:37-07:00,10.794147014618,3,versionC_stim.csv,RLVersionC.csv,"Realational Version C","Relational, read only version C",TUCK,ALLOW,Study1,U,78,57,Study,User,-,,Study/JOL,"Study Phase",10296,,,-1,-1,,,,1
5e8d45d744061711c6b8e3ad,g6n3un3k2r,"Deep vs Shallow",1,27,2020-07-08T14:29:47-07:00,10.111526012421,3,versionC_stim.csv,RLVersionC.csv,"Realational Version C","Relational, read only version C",ACCIDENT,STRONG,Study1,U,80,20,Study,User,-,,Study/JOL,"Study Phase",9559,,,-1,-1,,,,1
5e8d45d744061711c6b8e3ad,g6n3un3k2r,"Deep vs Shallow",1,28,2020-07-08T14:29:49-07:00,1.8125650882721,3,versionC_stim.csv,RLVersionC.csv,"Realational Version C","Relational, read only version C",STENCH,SMELL,Study1,F,42,17,Study,User,-,,Study/JOL,"Study Phase",1378,,,-1,-1,,,,1
5e8d45d744061711c6b8e3ad,g6n3un3k2r,"Deep vs Shallow",1,29,2020-07-08T14:29:55-07:00,6.4463019371033,3,versionC_stim.csv,RLVersionC.csv,"Realational Version C","Relational, read only version C",BUSINESS,DEATH,Study1,U,72,50,Study,User,-,,Study/JOL,"Study Phase",5944,,,-1,-1,,,,1
5e8d45d744061711c6b8e3ad,g6n3un3k2r,"Deep vs Shallow",1,30,2020-07-08T14:29:58-07:00,2.4862608909607,3,versionC_stim.csv,RLVersionC.csv,"Realational Version C","Relational, read only version C",BAD,DELINQUENT,Study1,B,6,33,Study,User,-,,Study/JOL,"Study Phase",1964,,,-1,-1,,,,1
5e8d45d744061711c6b8e3ad,g6n3un3k2r,"Deep vs Shallow",1,31,2020-07-08T14:30:00-07:00,2.1237750053406,3,versionC_stim.csv,RLVersionC.csv,"Realational Version C","Relational, read only version C",LATCH,KEY,Study1,F,36,9,Study,User,-,,Study/JOL,"Study Phase",1704,,,-1,-1,,,,1
5e8d45d744061711c6b8e3ad,g6n3un3k2r,"Deep vs Shallow",1,32,2020-07-08T14:30:02-07:00,2.3769969940186,3,versionC_stim.csv,RLVersionC.csv,"Realational Version C","Relational, read only version C",PILOT,PLANE,Study1,F,44,12,Study,User,-,,Study/JOL,"Study Phase",1853,,,-1,-1,,,,1
5e8d45d744061711c6b8e3ad,g6n3un3k2r,"Deep vs Shallow",1,33,2020-07-08T14:30:06-07:00,3.4684290885925,3,versionC_stim.csv,RLVersionC.csv,"Realational Version C","Relational, read only version C",WORD,SENTENCE,Study1,F,31,48,Study,User,-,,Study/JOL,"Study Phase",2959,,,-1,-1,,,,1
5e8d45d744061711c6b8e3ad,g6n3un3k2r,"Deep vs Shallow",1,34,2020-07-08T14:30:11-07:00,4.9326920509338,3,versionC_stim.csv,RLVersionC.csv,"Realational Version C","Relational, read only version C",CAR,HAPPY,Study1,U,77,42,Study,User,-,,Study/JOL,"Study Phase",4396,,,-1,-1,,,,1
5e8d45d744061711c6b8e3ad,g6n3un3k2r,"Deep vs Shallow",1,35,2020-07-08T14:30:14-07:00,2.8699250221252,3,versionC_stim.csv,RLVersionC.csv,"Realational Version C","Relational, read only version C",CAVE,DARK,Study1,F,28,28,Study,User,-,,Study/JOL,"Study Phase",2348,,,-1,-1,,,,1
5e8d45d744061711c6b8e3ad,g6n3un3k2r,"Deep vs Shallow",1,36,2020-07-08T14:30:19-07:00,5.128674030304,3,versionC_stim.csv,RLVersionC.csv,"Realational Version C","Relational, read only version C",SODA,POP,Study1,S,56,19,Study,User,-,,Study/JOL,"Study Phase",4075,,,-1,-1,,,,1
5e8d45d744061711c6b8e3ad,g6n3un3k2r,"Deep vs Shallow",1,37,2020-07-08T14:30:21-07:00,2.1077280044556,3,versionC_stim.csv,RLVersionC.csv,"Realational Version C","Relational, read only version C",CHILI,HOT,Study1,F,37,47,Study,User,-,,Study/JOL,"Study Phase",1675,,,-1,-1,,,,1
5e8d45d744061711c6b8e3ad,g6n3un3k2r,"Deep vs Shallow",1,38,2020-07-08T14:30:24-07:00,2.8759319782257,3,versionC_stim.csv,RLVersionC.csv,"Realational Version C","Relational, read only version C",SALAD,LETTUCE,Study1,S,59,69,Study,User,-,,Study/JOL,"Study Phase",2449,,,-1,-1,,,,1
5e8d45d744061711c6b8e3ad,g6n3un3k2r,"Deep vs Shallow",1,39,2020-07-08T14:30:25-07:00,1.4389269351959,3,versionC_stim.csv,RLVersionC.csv,"Realational Version C","Relational, read only version C",CHILD,BABY,Study1,S,64,52,Study,User,-,,Study/JOL,"Study Phase",969,,,-1,-1,,,,1
5e8d45d744061711c6b8e3ad,g6n3un3k2r,"Deep vs Shallow",1,40,2020-07-08T14:30:27-07:00,1.6030879020691,3,versionC_stim.csv,RLVersionC.csv,"Realational Version C","Relational, read only version C",SEIZE,TAKE,Study1,F,29,51,Study,User,-,,Study/JOL,"Study Phase",1176,,,-1,-1,,,,1
5e8d45d744061711c6b8e3ad,g6n3un3k2r,"Deep vs Shallow",1,41,2020-07-08T14:30:34-07:00,7.3104491233826,3,versionC_stim.csv,RLVersionC.csv,"Realational Version C","Relational, read only version C",RIDDLE,SUGAR,Study1,U,81,10,Study,User,-,,Study/JOL,"Study Phase",6805,,,-1,-1,,,,1
5e8d45d744061711c6b8e3ad,g6n3un3k2r,"Deep vs Shallow",1,42,2020-07-08T14:30:36-07:00,1.7052459716797,3,versionC_stim.csv,RLVersionC.csv,"Realational Version C","Relational, read only version C",STOMACH,DIGESTION,Study1,B,7,84,Study,User,-,,Study/JOL,"Study Phase",1258,,,-1,-1,,,,1
5e8d45d744061711c6b8e3ad,g6n3un3k2r,"Deep vs Shallow",1,43,2020-07-08T14:30:38-07:00,2.0657119750977,3,versionC_stim.csv,RLVersionC.csv,"Realational Version C","Relational, read only version C",AMOUNT,NUMBER,Study1,S,47,53,Study,User,-,,Study/JOL,"Study Phase",1630,,,-1,-1,,,,1
5e8d45d744061711c6b8e3ad,g6n3un3k2r,"Deep vs Shallow",1,44,2020-07-08T14:30:44-07:00,6.2275381088257,3,versionC_stim.csv,RLVersionC.csv,"Realational Version C","Relational, read only version C",,,,,,0,Instruct,-,3,"Remember to focus on how the two items are similiar while you study!",,CHECK2,5690,,,-1,-1,,,,1
5e8d45d744061711c6b8e3ad,g6n3un3k2r,"Deep vs Shallow",1,45,2020-07-08T14:30:59-07:00,14.598660945892,3,versionC_stim.csv,RLVersionC.csv,"Realational Version C","Relational, read only version C",SICK,HIDE,Study1,U,84,56,Study,User,-,,Study/JOL,"Study Phase",14092,,,-1,-1,,,,1
5e8d45d744061711c6b8e3ad,g6n3un3k2r,"Deep vs Shallow",1,46,2020-07-08T14:31:04-07:00,5.5834958553314,3,versionC_stim.csv,RLVersionC.csv,"Realational Version C","Relational, read only version C",STING,HORNET,Study1,B,11,68,Study,User,-,,Study/JOL,"Study Phase",5010,,,-1,-1,,,,1
5e8d45d744061711c6b8e3ad,g6n3un3k2r,"Deep vs Shallow",1,47,2020-07-08T14:31:06-07:00,1.5401542186737,3,versionC_stim.csv,RLVersionC.csv,"Realational Version C","Relational, read only version C",ASSIGNMENT,DUE,Study1,S,46,26,Study,User,-,,Study/JOL,"Study Phase",1113,,,-1,-1,,,,1
5e8d45d744061711c6b8e3ad,g6n3un3k2r,"Deep vs Shallow",1,48,2020-07-08T14:31:08-07:00,1.899719953537,3,versionC_stim.csv,RLVersionC.csv,"Realational Version C","Relational, read only version C",WASP,BUG,Study1,F,32,75,Study,User,-,,Study/JOL,"Study Phase",1472,,,-1,-1,,,,1
5e8d45d744061711c6b8e3ad,g6n3un3k2r,"Deep vs Shallow",1,49,2020-07-08T14:31:15-07:00,7.0348060131073,3,versionC_stim.csv,RLVersionC.csv,"Realational Version C","Relational, read only version C",BELT,SOON,Study1,U,70,82,Study,User,-,,Study/JOL,"Study Phase",6524,,,-1,-1,,,,1
5e8d45d744061711c6b8e3ad,g6n3un3k2r,"Deep vs Shallow",1,50,2020-07-08T14:31:16-07:00,1.7269599437714,3,versionC_stim.csv,RLVersionC.csv,"Realational Version C","Relational, read only version C",OUT,WAY,Study1,B,16,27,Study,User,-,,Study/JOL,"Study Phase",1290,,,-1,-1,,,,1
5e8d45d744061711c6b8e3ad,g6n3un3k2r,"Deep vs Shallow",1,51,2020-07-08T14:31:18-07:00,1.3004710674286,3,versionC_stim.csv,RLVersionC.csv,"Realational Version C","Relational, read only version C",CHEESE,WINE,Study1,S,57,71,Study,User,-,,Study/JOL,"Study Phase",835,,,-1,-1,,,,1
5e8d45d744061711c6b8e3ad,g6n3un3k2r,"Deep vs Shallow",1,52,2020-07-08T14:31:21-07:00,3.3179228305817,3,versionC_stim.csv,RLVersionC.csv,"Realational Version C","Relational, read only version C",FLOOR,DISCOVER,Study1,U,71,64,Study,User,-,,Study/JOL,"Study Phase",2788,,,-1,-1,,,,1
5e8d45d744061711c6b8e3ad,g6n3un3k2r,"Deep vs Shallow",1,53,2020-07-08T14:31:24-07:00,3.2798190116882,3,versionC_stim.csv,RLVersionC.csv,"Realational Version C","Relational, read only version C",HAND,FIX,Study1,U,75,55,Study,User,-,,Study/JOL,"Study Phase",2757,,,-1,-1,,,,1
5e8d45d744061711c6b8e3ad,g6n3un3k2r,"Deep vs Shallow",1,54,2020-07-08T14:31:26-07:00,1.3503911495209,3,versionC_stim.csv,RLVersionC.csv,"Realational Version C","Relational, read only version C",BLAZE,FIRE,Study1,F,45,22,Study,User,-,,Study/JOL,"Study Phase",925,,,-1,-1,,,,1
5e8d45d744061711c6b8e3ad,g6n3un3k2r,"Deep vs Shallow",1,55,2020-07-08T14:31:27-07:00,1.4270360469818,3,versionC_stim.csv,RLVersionC.csv,"Realational Version C","Relational, read only version C",FISH,TUNA,Study1,B,25,77,Study,User,-,,Study/JOL,"Study Phase",1003,,,-1,-1,,,,1
5e8d45d744061711c6b8e3ad,g6n3un3k2r,"Deep vs Shallow",1,56,2020-07-08T14:31:32-07:00,4.9638547897339,3,versionC_stim.csv,RLVersionC.csv,"Realational Version C","Relational, read only version C",ADD,VALLEY,Study1,U,82,76,Study,User,-,,Study/JOL,"Study Phase",4452,,,-1,-1,,,,1
5e8d45d744061711c6b8e3ad,g6n3un3k2r,"Deep vs Shallow",1,57,2020-07-08T14:31:34-07:00,1.7713739871979,3,versionC_stim.csv,RLVersionC.csv,"Realational Version C","Relational, read only version C",FANTASTIC,GREAT,Study1,F,35,29,Study,User,-,,Study/JOL,"Study Phase",1356,,,-1,-1,,,,1
5e8d45d744061711c6b8e3ad,g6n3un3k2r,"Deep vs Shallow",1,58,2020-07-08T14:31:37-07:00,3.3439471721649,3,versionC_stim.csv,RLVersionC.csv,"Realational Version C","Relational, read only version C",DOG,PAW,Study1,B,15,41,Study,User,-,,Study/JOL,"Study Phase",1739,,,-1,-1,,,,1
5e8d45d744061711c6b8e3ad,g6n3un3k2r,"Deep vs Shallow",1,59,2020-07-08T14:31:39-07:00,1.6795229911804,3,versionC_stim.csv,RLVersionC.csv,"Realational Version C","Relational, read only version C",CHORE,WORK,Study1,F,39,13,Study,User,-,,Study/JOL,"Study Phase",1215,,,-1,-1,,,,1
5e8d45d744061711c6b8e3ad,g6n3un3k2r,"Deep vs Shallow",1,60,2020-07-08T14:31:40-07:00,1.3091628551483,3,versionC_stim.csv,RLVersionC.csv,"Realational Version C","Relational, read only version C",ATTIRE,CLOTHES,Study1,F,43,60,Study,User,-,,Study/JOL,"Study Phase",882,,,-1,-1,,,,1
5e8d45d744061711c6b8e3ad,g6n3un3k2r,"Deep vs Shallow",1,61,2020-07-08T14:31:43-07:00,2.3697271347046,3,versionC_stim.csv,RLVersionC.csv,"Realational Version C","Relational, read only version C",FUTURE,PAST,Study1,S,61,83,Study,User,-,,Study/JOL,"Study Phase",1868,,,-1,-1,,,,1
5e8d45d744061711c6b8e3ad,g6n3un3k2r,"Deep vs Shallow",1,62,2020-07-08T14:31:44-07:00,1.1909530162811,3,versionC_stim.csv,RLVersionC.csv,"Realational Version C","Relational, read only version C",CLEAN,HYGIENE,Study1,B,17,40,Study,User,-,,Study/JOL,"Study Phase",761,,,-1,-1,,,,1
5e8d45d744061711c6b8e3ad,g6n3un3k2r,"Deep vs Shallow",1,63,2020-07-08T14:31:49-07:00,5.2868909835815,3,versionC_stim.csv,RLVersionC.csv,"Realational Version C","Relational, read only version C",CLUTTER,PUSHER,Study1,U,66,44,Study,User,-,,Study/JOL,"Study Phase",4776,,,-1,-1,,,,1
5e8d45d744061711c6b8e3ad,g6n3un3k2r,"Deep vs Shallow",1,64,2020-07-08T14:31:53-07:00,4.1273419857025,3,versionC_stim.csv,RLVersionC.csv,"Realational Version C","Relational, read only version C",JURY,TRIAL,Study1,S,50,80,Study,User,-,,Study/JOL,"Study Phase",846,,,-1,-1,,,,1
5e8d45d744061711c6b8e3ad,g6n3un3k2r,"Deep vs Shallow",1,65,2020-07-08T14:31:56-07:00,2.9554409980774,3,versionC_stim.csv,RLVersionC.csv,"Realational Version C","Relational, read only version C",FOOT,SHOE,Study1,S,60,34,Study,User,-,,Study/JOL,"Study Phase",2473,,,-1,-1,,,,1
5e8d45d744061711c6b8e3ad,g6n3un3k2r,"Deep vs Shallow",1,66,2020-07-08T14:31:59-07:00,2.3968260288239,3,versionC_stim.csv,RLVersionC.csv,"Realational Version C","Relational, read only version C",FLOWER,ORCHID,Study1,B,24,11,Study,User,-,,Study/JOL,"Study Phase",1889,,,-1,-1,,,,1
5e8d45d744061711c6b8e3ad,g6n3un3k2r,"Deep vs Shallow",1,67,2020-07-08T14:32:00-07:00,1.4744758605957,3,versionC_stim.csv,RLVersionC.csv,"Realational Version C","Relational, read only version C",SITE,LOCATION,Study1,S,48,70,Study,User,-,,Study/JOL,"Study Phase",1023,,,-1,-1,,,,1
5e8d45d744061711c6b8e3ad,g6n3un3k2r,"Deep vs Shallow",1,68,2020-07-08T14:32:03-07:00,3.3570621013641,3,versionC_stim.csv,RLVersionC.csv,"Realational Version C","Relational, read only version C",BRONZE,ARTERY,Study1,U,74,63,Study,User,-,,Study/JOL,"Study Phase",2841,,,-1,-1,,,,1
5e8d45d744061711c6b8e3ad,g6n3un3k2r,"Deep vs Shallow",1,69,2020-07-08T14:32:08-07:00,4.4502639770508,3,versionC_stim.csv,RLVersionC.csv,"Realational Version C","Relational, read only version C",HUNGRY,PARK,Study1,U,68,81,Study,User,-,,Study/JOL,"Study Phase",3948,,,-1,-1,,,,1
5e8d45d744061711c6b8e3ad,g6n3un3k2r,"Deep vs Shallow",1,70,2020-07-08T14:32:15-07:00,7.2621240615845,3,versionC_stim.csv,RLVersionC.csv,"Realational Version C","Relational, read only version C",RACKET,BALL,Study1,F,38,59,Study,User,-,,Study/JOL,"Study Phase",6753,,,-1,-1,,,,1
5e8d45d744061711c6b8e3ad,g6n3un3k2r,"Deep vs Shallow",1,71,2020-07-08T14:32:18-07:00,2.6962828636169,3,versionC_stim.csv,RLVersionC.csv,"Realational Version C","Relational, read only version C",DEFINITION,MEANING,Study1,S,62,36,Study,User,-,,Study/JOL,"Study Phase",2171,,,-1,-1,,,,1
5e8d45d744061711c6b8e3ad,g6n3un3k2r,"Deep vs Shallow",1,72,2020-07-08T14:32:19-07:00,1.3166251182556,3,versionC_stim.csv,RLVersionC.csv,"Realational Version C","Relational, read only version C",MONEY,WAGE,Study1,B,8,16,Study,User,-,,Study/JOL,"Study Phase",902,,,-1,-1,,,,1
5e8d45d744061711c6b8e3ad,g6n3un3k2r,"Deep vs Shallow",1,73,2020-07-08T14:32:22-07:00,3.1962239742279,3,versionC_stim.csv,RLVersionC.csv,"Realational Version C","Relational, read only version C",VASE,KING,Study1,U,85,35,Study,User,-,,Study/JOL,"Study Phase",2680,,,-1,-1,,,,1
5e8d45d744061711c6b8e3ad,g6n3un3k2r,"Deep vs Shallow",1,74,2020-07-08T14:32:24-07:00,1.4730379581451,3,versionC_stim.csv,RLVersionC.csv,"Realational Version C","Relational, read only version C",TOILET,BATHROOM,Study1,S,58,54,Study,User,-,,Study/JOL,"Study Phase",1065,,,-1,-1,,,,1
5e8d45d744061711c6b8e3ad,g6n3un3k2r,"Deep vs Shallow",1,75,2020-07-08T14:32:25-07:00,1.4970910549164,3,versionC_stim.csv,RLVersionC.csv,"Realational Version C","Relational, read only version C",BIRD,SWAN,Study1,B,14,15,Study,User,-,,Study/JOL,"Study Phase",1067,,,-1,-1,,,,1
5e8d45d744061711c6b8e3ad,g6n3un3k2r,"Deep vs Shallow",1,76,2020-07-08T14:32:27-07:00,1.4334309101105,3,versionC_stim.csv,RLVersionC.csv,"Realational Version C","Relational, read only version C",WASTE,DUMP,Study1,S,49,85,Study,User,-,,Study/JOL,"Study Phase",1010,,,-1,-1,,,,1
5e8d45d744061711c6b8e3ad,g6n3un3k2r,"Deep vs Shallow",1,77,2020-07-08T14:32:28-07:00,1.6309900283813,3,versionC_stim.csv,RLVersionC.csv,"Realational Version C","Relational, read only version C",HAMMER,CHISEL,Study1,B,9,78,Study,User,-,,Study/JOL,"Study Phase",1205,,,-1,-1,,,,1
5e8d45d744061711c6b8e3ad,g6n3un3k2r,"Deep vs Shallow",1,78,2020-07-08T14:32:31-07:00,2.2965340614319,3,versionC_stim.csv,RLVersionC.csv,"Realational Version C","Relational, read only version C",DIVISION,MATH,Study1,F,33,8,Study,User,-,,Study/JOL,"Study Phase",883,,,-1,-1,,,,1
5e8d45d744061711c6b8e3ad,g6n3un3k2r,"Deep vs Shallow",1,79,2020-07-08T14:32:32-07:00,1.7011358737946,3,versionC_stim.csv,RLVersionC.csv,"Realational Version C","Relational, read only version C",WAR,REVOLUTION,Study1,B,20,23,Study,User,-,,Study/JOL,"Study Phase",1285,,,-1,-1,,,,1
5e8d45d744061711c6b8e3ad,g6n3un3k2r,"Deep vs Shallow",1,80,2020-07-08T14:32:34-07:00,1.3228690624237,3,versionC_stim.csv,RLVersionC.csv,"Realational Version C","Relational, read only version C",TALK,DISCUSSION,Study1,B,21,45,Study,User,-,,Study/JOL,"Study Phase",893,,,-1,-1,,,,1
5e8d45d744061711c6b8e3ad,g6n3un3k2r,"Deep vs Shallow",1,81,2020-07-08T14:32:35-07:00,1.1125431060791,3,versionC_stim.csv,RLVersionC.csv,"Realational Version C","Relational, read only version C",END,BEGIN,Study1,S,54,32,Study,User,-,,Study/JOL,"Study Phase",681,,,-1,-1,,,,1
5e8d45d744061711c6b8e3ad,g6n3un3k2r,"Deep vs Shallow",1,82,2020-07-08T14:32:52-07:00,16.940855979919,3,versionC_stim.csv,RLVersionC.csv,"Realational Version C","Relational, read only version C",SACKING,DIETARY,Study1,U,67,67,Study,User,-,,Study/JOL,"Study Phase",16245,,,-1,-1,,,,1
5e8d45d744061711c6b8e3ad,g6n3un3k2r,"Deep vs Shallow",1,83,2020-07-08T14:32:54-07:00,2.4022300243378,3,versionC_stim.csv,RLVersionC.csv,"Realational Version C","Relational, read only version C",DESIGN,ARCHITECTURE,Study1,S,51,24,Study,User,-,,Study/JOL,"Study Phase",1887,,,-1,-1,,,,1
5e8d45d744061711c6b8e3ad,g6n3un3k2r,"Deep vs Shallow",1,84,2020-07-08T14:32:56-07:00,1.8278889656067,3,versionC_stim.csv,RLVersionC.csv,"Realational Version C","Relational, read only version C",GROWTH,HEIGHT,Study1,F,30,30,Study,User,-,,Study/JOL,"Study Phase",1397,,,-1,-1,,,,1
5e8d45d744061711c6b8e3ad,g6n3un3k2r,"Deep vs Shallow",1,85,2020-07-08T14:32:57-07:00,1.1597499847412,3,versionC_stim.csv,RLVersionC.csv,"Realational Version C","Relational, read only version C",LIVER,KIDNEY,Study1,S,53,73,Study,User,-,,Study/JOL,"Study Phase",728,,,-1,-1,,,,1
5e8d45d744061711c6b8e3ad,g6n3un3k2r,"Deep vs Shallow",1,86,2020-07-08T14:32:59-07:00,1.5594110488892,3,versionC_stim.csv,RLVersionC.csv,"Realational Version C","Relational, read only version C",PLANT,ROOT,Study1,B,13,72,Study,User,-,,Study/JOL,"Study Phase",1128,,,-1,-1,,,,1
5e8d45d744061711c6b8e3ad,g6n3un3k2r,"Deep vs Shallow",1,87,2020-07-08T14:33:02-07:00,3.6232719421387,3,versionC_stim.csv,RLVersionC.csv,"Realational Version C","Relational, read only version C",SIP,DRINK,Study1,F,27,61,Study,User,-,,Study/JOL,"Study Phase",2119,,,-1,-1,,,,1
5e8d45d744061711c6b8e3ad,g6n3un3k2r,"Deep vs Shallow",1,88,2020-07-08T14:33:11-07:00,8.5658190250397,3,versionC_stim.csv,RLVersionC.csv,"Realational Version C","Relational, read only version C",WOMAN,LIFT,Study1,U,69,7,Study,User,-,,Study/JOL,"Study Phase",8053,,,-1,-1,,,,1
5e8d45d744061711c6b8e3ad,g6n3un3k2r,"Deep vs Shallow",1,89,2020-07-08T14:33:18-07:00,7.6020748615265,3,versionC_stim.csv,RLVersionC.csv,"Realational Version C","Relational, read only version C",LION,ART,Study1,U,79,21,Study,User,-,,Study/JOL,"Study Phase",7063,,,-1,-1,,,,1
5e8d45d744061711c6b8e3ad,g6n3un3k2r,"Deep vs Shallow",1,90,2020-07-08T14:33:20-07:00,1.5975301265717,3,versionC_stim.csv,RLVersionC.csv,"Realational Version C","Relational, read only version C",WATER,BRIDGE,Study1,B,18,46,Study,User,-,,Study/JOL,"Study Phase",1159,,,-1,-1,,,,1
5e8d45d744061711c6b8e3ad,g6n3un3k2r,"Deep vs Shallow",1,91,2020-07-08T14:33:22-07:00,1.9355108737946,3,versionC_stim.csv,RLVersionC.csv,"Realational Version C","Relational, read only version C",GOOSE,GEESE,BUFFER2,Buffer,86,89,Study,User,-,,Study/JOL,BUFFER2,1506,,,-1,-1,,,,1
5e8d45d744061711c6b8e3ad,g6n3un3k2r,"Deep vs Shallow",1,92,2020-07-08T14:33:25-07:00,3.3726201057434,3,versionC_stim.csv,RLVersionC.csv,"Realational Version C","Relational, read only version C",SPACE,MOON,BUFFER2,Buffer,89,88,Study,User,-,,Study/JOL,BUFFER2,2852,,,-1,-1,,,,1
5e8d45d744061711c6b8e3ad,g6n3un3k2r,"Deep vs Shallow",1,93,2020-07-08T14:33:27-07:00,1.7215919494629,3,versionC_stim.csv,RLVersionC.csv,"Realational Version C","Relational, read only version C",POLICE,SHERRIF,BUFFER2,Buffer,87,90,Study,User,-,,Study/JOL,BUFFER2,1313,,,-1,-1,,,,1
5e8d45d744061711c6b8e3ad,g6n3un3k2r,"Deep vs Shallow",1,94,2020-07-08T14:33:31-07:00,3.8509659767151,3,versionC_stim.csv,RLVersionC.csv,"Realational Version C","Relational, read only version C",CHOCOLATE,MALT,BUFFER2,Buffer,88,87,Study,User,-,,Study/JOL,BUFFER2,3340,,,-1,-1,,,,1
5e8d45d744061711c6b8e3ad,g6n3un3k2r,"Deep vs Shallow",1,95,2020-07-08T14:33:35-07:00,4.1835920810699,3,versionC_stim.csv,RLVersionC.csv,"Realational Version C","Relational, read only version C",STUFF,THING,BUFFER2,Buffer,90,91,Study,User,-,,Study/JOL,BUFFER2,3680,,,-1,-1,,,,1
5e8d45d744061711c6b8e3ad,g6n3un3k2r,"Deep vs Shallow",1,96,2020-07-08T14:33:37-07:00,1.8405740261078,3,versionC_stim.csv,RLVersionC.csv,"Realational Version C","Relational, read only version C",,,,,,0,Instruct,User,-,"You have completed this section. Please press Enter.",Filler_Instruction,Instruct2,1428,,,-1,-1,,,,1
5e8d45d744061711c6b8e3ad,g6n3un3k2r,"Deep vs Shallow",1,97,2020-07-08T14:33:39-07:00,1.9907028675079,3,versionC_stim.csv,RLVersionC.csv,"Realational Version C","Relational, read only version C",,,,,,0,Instruct,User,-,"You have completed this section. Please press Enter.",Filler_Instruction,Instruct5,1570,,,-1,-1,,,,1
5e8d45d744061711c6b8e3ad,g6n3un3k2r,"Deep vs Shallow",1,98,2020-07-08T14:33:51-07:00,11.975087165833,3,versionC_stim.csv,RLVersionC.csv,"Realational Version C","Relational, read only version C",,,,,,0,FreeRecall,-,10,"What were you supposed to focus on while you studied each pair? (Hint: Think back to the instructions). Type your answer in the space below.",,CHECK3,11451,"The similarities between two objects. ",0,3095,9624,0,0,,1
5e8d45d744061711c6b8e3ad,g6n3un3k2r,"Deep vs Shallow",1,99,2020-07-08T14:35:52-07:00,120.58708000183,3,versionC_stim.csv,RLVersionC.csv,"Realational Version C","Relational, read only version C",,,,,,0,FreeRecall,120,120,"Please list the 50 US states in alphabetical order. The task will automatically advance to the next screen after two minutes.",,Filler1,120004,"Arkansas A B California Delaware E F G Idaho",0,3149,116582,0,0,,1
5e8d45d744061711c6b8e3ad,g6n3un3k2r,"Deep vs Shallow",1,100,2020-07-08T14:36:05-07:00,13.565950870514,3,versionC_stim.csv,RLVersionC.csv,"Realational Version C","Relational, read only version C",,,,,,0,Instruct,-,10,"You will now be presented with the first word from each of the previously studied item pairs. Please type the missing word. If you do not know the word, you may guess or press Enter to skip forward to the next pair.",,Instruct3,12984,,,-1,-1,,,,1
5e8d45d744061711c6b8e3ad,g6n3un3k2r,"Deep vs Shallow",1,101,2020-07-08T14:36:09-07:00,4.0525870323181,3,versionC_stim.csv,RLVersionC.csv,"Realational Version C","Relational, read only version C",FAMINE,HUNGER,Study1,F,40,62,Test,User,-,,Recall,Recall1,3446,Hunger,100,2087,2875,1,1,,1
5e8d45d744061711c6b8e3ad,g6n3un3k2r,"Deep vs Shallow",1,102,2020-07-08T14:36:13-07:00,3.3980619907379,3,versionC_stim.csv,RLVersionC.csv,"Realational Version C","Relational, read only version C",SICK,HIDE,Study1,U,84,56,Test,User,-,,Recall,Recall1,2866,Hide,100,2266,2711,1,1,,1
5e8d45d744061711c6b8e3ad,g6n3un3k2r,"Deep vs Shallow",1,103,2020-07-08T14:36:17-07:00,3.9808900356293,3,versionC_stim.csv,RLVersionC.csv,"Realational Version C","Relational, read only version C",DIVISION,MATH,Study1,F,33,8,Test,User,-,,Recall,Recall1,3465,Math,100,2223,2852,1,1,,1
5e8d45d744061711c6b8e3ad,g6n3un3k2r,"Deep vs Shallow",1,104,2020-07-08T14:36:28-07:00,11.172112941742,3,versionC_stim.csv,RLVersionC.csv,"Realational Version C","Relational, read only version C",FLOOR,DISCOVER,Study1,U,71,64,Test,User,-,,Recall,Recall1,10618,Secret,42.857142857143,5205,10419,0,0,,1
5e8d45d744061711c6b8e3ad,g6n3un3k2r,"Deep vs Shallow",1,105,2020-07-08T14:36:30-07:00,2.1873209476471,3,versionC_stim.csv,RLVersionC.csv,"Realational Version C","Relational, read only version C",HUNGRY,PARK,Study1,U,68,81,Test,User,-,,Recall,Recall1,1693,Famine,20,905,1575,0,0,,1
5e8d45d744061711c6b8e3ad,g6n3un3k2r,"Deep vs Shallow",1,106,2020-07-08T14:36:38-07:00,8.4655861854553,3,versionC_stim.csv,RLVersionC.csv,"Realational Version C","Relational, read only version C",JURY,TRIAL,Study1,S,50,80,Test,User,-,,Recall,Recall1,7941,Judge,0,2734,7861,0,0,,1
5e8d45d744061711c6b8e3ad,g6n3un3k2r,"Deep vs Shallow",1,107,2020-07-08T14:36:46-07:00,7.9645788669586,3,versionC_stim.csv,RLVersionC.csv,"Realational Version C","Relational, read only version C",GROWTH,HEIGHT,Study1,F,30,30,Test,User,-,,Recall,Recall1,7449,Height,100,6652,7315,1,1,,1
5e8d45d744061711c6b8e3ad,g6n3un3k2r,"Deep vs Shallow",1,108,2020-07-08T14:36:51-07:00,5.1825571060181,3,versionC_stim.csv,RLVersionC.csv,"Realational Version C","Relational, read only version C",BEE,HONEY,Study1,S,63,18,Test,User,-,,Recall,Recall1,4655,Honey,100,2365,4410,1,1,,1
5e8d45d744061711c6b8e3ad,g6n3un3k2r,"Deep vs Shallow",1,109,2020-07-08T14:36:54-07:00,2.650032043457,3,versionC_stim.csv,RLVersionC.csv,"Realational Version C","Relational, read only version C",LATCH,KEY,Study1,F,36,9,Test,User,-,,Recall,Recall1,2081,Key,100,1423,1838,1,1,,1
5e8d45d744061711c6b8e3ad,g6n3un3k2r,"Deep vs Shallow",1,110,2020-07-08T14:37:00-07:00,5.5078048706055,3,versionC_stim.csv,RLVersionC.csv,"Realational Version C","Relational, read only version C",OUT,WAY,Study1,B,16,27,Test,User,-,,Recall,Recall1,4992,,0,-1,-1,0,0,,1
5e8d45d744061711c6b8e3ad,g6n3un3k2r,"Deep vs Shallow",1,111,2020-07-08T14:37:03-07:00,3.511785030365,3,versionC_stim.csv,RLVersionC.csv,"Realational Version C","Relational, read only version C",STENCH,SMELL,Study1,F,42,17,Test,User,-,,Recall,Recall1,3017,Stink,20,1067,2455,0,0,,1
5e8d45d744061711c6b8e3ad,g6n3un3k2r,"Deep vs Shallow",1,112,2020-07-08T14:37:09-07:00,5.8125529289246,3,versionC_stim.csv,RLVersionC.csv,"Realational Version C","Relational, read only version C",CHILI,HOT,Study1,F,37,47,Test,User,-,,Recall,Recall1,5277,Hot,100,2244,5045,1,1,,1
5e8d45d744061711c6b8e3ad,g6n3un3k2r,"Deep vs Shallow",1,113,2020-07-08T14:37:15-07:00,5.7314441204071,3,versionC_stim.csv,RLVersionC.csv,"Realational Version C","Relational, read only version C",TOILET,BATHROOM,Study1,S,58,54,Test,User,-,,Recall,Recall1,5224,,0,-1,-1,0,0,,1
5e8d45d744061711c6b8e3ad,g6n3un3k2r,"Deep vs Shallow",1,114,2020-07-08T14:37:20-07:00,4.84894490242,3,versionC_stim.csv,RLVersionC.csv,"Realational Version C","Relational, read only version C",LIVER,KIDNEY,Study1,S,53,73,Test,User,-,,Recall,Recall1,4330,,0,-1,-1,0,0,,1
5e8d45d744061711c6b8e3ad,g6n3un3k2r,"Deep vs Shallow",1,115,2020-07-08T14:37:31-07:00,11.360161066055,3,versionC_stim.csv,RLVersionC.csv,"Realational Version C","Relational, read only version C",TALK,DISCUSSION,Study1,B,21,45,Test,User,-,,Recall,Recall1,10788,,0,6463,6464,0,0,,1
5e8d45d744061711c6b8e3ad,g6n3un3k2r,"Deep vs Shallow",1,116,2020-07-08T14:37:39-07:00,8.1804859638214,3,versionC_stim.csv,RLVersionC.csv,"Realational Version C","Relational, read only version C",CAR,HAPPY,Study1,U,77,42,Test,User,-,,Recall,Recall1,7651,,0,-1,-1,0,0,,1
5e8d45d744061711c6b8e3ad,g6n3un3k2r,"Deep vs Shallow",1,117,2020-07-08T14:37:46-07:00,6.5142550468445,3,versionC_stim.csv,RLVersionC.csv,"Realational Version C","Relational, read only version C",CLEAN,HYGIENE,Study1,B,17,40,Test,User,-,,Recall,Recall1,5976,,0,-1,-1,0,0,,1
5e8d45d744061711c6b8e3ad,g6n3un3k2r,"Deep vs Shallow",1,118,2020-07-08T14:37:49-07:00,3.6512589454651,3,versionC_stim.csv,RLVersionC.csv,"Realational Version C","Relational, read only version C",PILOT,PLANE,Study1,F,44,12,Test,User,-,,Recall,Recall1,2109,Plane,100,1486,2024,1,1,,1
5e8d45d744061711c6b8e3ad,g6n3un3k2r,"Deep vs Shallow",1,119,2020-07-08T14:37:53-07:00,4.1026251316071,3,versionC_stim.csv,RLVersionC.csv,"Realational Version C","Relational, read only version C",BUSINESS,DEATH,Study1,U,72,50,Test,User,-,,Recall,Recall1,3588,Death,100,2541,3188,1,1,,1
5e8d45d744061711c6b8e3ad,g6n3un3k2r,"Deep vs Shallow",1,120,2020-07-08T14:38:02-07:00,8.135235786438,3,versionC_stim.csv,RLVersionC.csv,"Realational Version C","Relational, read only version C",SITE,LOCATION,Study1,S,48,70,Test,User,-,,Recall,Recall1,7622,Location,100,6359,7425,1,1,,1
5e8d45d744061711c6b8e3ad,g6n3un3k2r,"Deep vs Shallow",1,121,2020-07-08T14:38:12-07:00,10.729085206985,3,versionC_stim.csv,RLVersionC.csv,"Realational Version C","Relational, read only version C",WOMAN,LIFT,Study1,U,69,7,Test,User,-,,Recall,Recall1,10178,Raise,22.222222222222,7175,9898,0,0,,1
5e8d45d744061711c6b8e3ad,g6n3un3k2r,"Deep vs Shallow",1,122,2020-07-08T14:38:22-07:00,10.23575592041,3,versionC_stim.csv,RLVersionC.csv,"Realational Version C","Relational, read only version C",ATTORNEY,LAW,Study1,F,34,31,Test,User,-,,Recall,Recall1,9673,Lawyer,66.666666666667,7012,9588,0,0,,1
5e8d45d744061711c6b8e3ad,g6n3un3k2r,"Deep vs Shallow",1,123,2020-07-08T14:38:27-07:00,4.1145179271698,3,versionC_stim.csv,RLVersionC.csv,"Realational Version C","Relational, read only version C",SEIZE,TAKE,Study1,F,29,51,Test,User,-,,Recall,Recall1,3584,Hold,0,2813,3152,0,0,,1
5e8d45d744061711c6b8e3ad,g6n3un3k2r,"Deep vs Shallow",1,124,2020-07-08T14:38:30-07:00,3.5705289840698,3,versionC_stim.csv,RLVersionC.csv,"Realational Version C","Relational, read only version C",WASP,BUG,Study1,F,32,75,Test,User,-,,Recall,Recall1,3058,Bug,100,2546,2808,1,1,,1
5e8d45d744061711c6b8e3ad,g6n3un3k2r,"Deep vs Shallow",1,125,2020-07-08T14:38:34-07:00,3.3873951435089,3,versionC_stim.csv,RLVersionC.csv,"Realational Version C","Relational, read only version C",CAVE,DARK,Study1,F,28,28,Test,User,-,,Recall,Recall1,2860,Dark,100,2120,2674,1,1,,1
5e8d45d744061711c6b8e3ad,g6n3un3k2r,"Deep vs Shallow",1,126,2020-07-08T14:38:36-07:00,2.7065029144287,3,versionC_stim.csv,RLVersionC.csv,"Realational Version C","Relational, read only version C",SIP,DRINK,Study1,F,27,61,Test,User,-,,Recall,Recall1,2162,Drink,100,1365,1977,1,1,,1
5e8d45d744061711c6b8e3ad,g6n3un3k2r,"Deep vs Shallow",1,127,2020-07-08T14:38:43-07:00,6.6559929847717,3,versionC_stim.csv,RLVersionC.csv,"Realational Version C","Relational, read only version C",WATER,BRIDGE,Study1,B,18,46,Test,User,-,,Recall,Recall1,6135,Wet,22.222222222222,5627,6026,0,0,,1
5e8d45d744061711c6b8e3ad,g6n3un3k2r,"Deep vs Shallow",1,128,2020-07-08T14:38:49-07:00,5.9992680549622,3,versionC_stim.csv,RLVersionC.csv,"Realational Version C","Relational, read only version C",NEWS,EDITOR,Study1,B,10,58,Test,User,-,,Recall,Recall1,5468,,0,4204,4204,0,0,,1
5e8d45d744061711c6b8e3ad,g6n3un3k2r,"Deep vs Shallow",1,129,2020-07-08T14:39:08-07:00,18.723572015762,3,versionC_stim.csv,RLVersionC.csv,"Realational Version C","Relational, read only version C",SACKING,DIETARY,Study1,U,67,67,Test,User,-,,Recall,Recall1,18189,Liver,50,17360,17991,0,0,,1
5e8d45d744061711c6b8e3ad,g6n3un3k2r,"Deep vs Shallow",1,130,2020-07-08T14:39:13-07:00,5.0713188648224,3,versionC_stim.csv,RLVersionC.csv,"Realational Version C","Relational, read only version C",HAMMER,CHISEL,Study1,B,9,78,Test,User,-,,Recall,Recall1,4531,Chisel,100,3611,4293,1,1,,1
5e8d45d744061711c6b8e3ad,g6n3un3k2r,"Deep vs Shallow",1,131,2020-07-08T14:39:17-07:00,3.8740441799164,3,versionC_stim.csv,RLVersionC.csv,"Realational Version C","Relational, read only version C",RACKET,BALL,Study1,F,38,59,Test,User,-,,Recall,Recall1,3353,,0,-1,-1,0,0,,1
5e8d45d744061711c6b8e3ad,g6n3un3k2r,"Deep vs Shallow",1,132,2020-07-08T14:39:20-07:00,3.7319238185883,3,versionC_stim.csv,RLVersionC.csv,"Realational Version C","Relational, read only version C",BIRD,SWAN,Study1,B,14,15,Test,User,-,,Recall,Recall1,3206,Fly,0,2445,2778,0,0,,1
5e8d45d744061711c6b8e3ad,g6n3un3k2r,"Deep vs Shallow",1,133,2020-07-08T14:39:23-07:00,3.0777630805969,3,versionC_stim.csv,RLVersionC.csv,"Realational Version C","Relational, read only version C",PLANT,ROOT,Study1,B,13,72,Test,User,-,,Recall,Recall1,2539,Grow,50,2028,2427,0,0,,1
5e8d45d744061711c6b8e3ad,g6n3un3k2r,"Deep vs Shallow",1,134,2020-07-08T14:39:27-07:00,3.5704579353333,3,versionC_stim.csv,RLVersionC.csv,"Realational Version C","Relational, read only version C",STING,HORNET,Study1,B,11,68,Test,User,-,,Recall,Recall1,3043,Hornet,100,2016,2930,1,1,,1
5e8d45d744061711c6b8e3ad,g6n3un3k2r,"Deep vs Shallow",1,135,2020-07-08T14:39:32-07:00,5.0106720924377,3,versionC_stim.csv,RLVersionC.csv,"Realational Version C","Relational, read only version C",ROCK,GEOLOGY,Study1,B,19,37,Test,User,-,,Recall,Recall1,4494,,0,-1,-1,0,0,,1
5e8d45d744061711c6b8e3ad,g6n3un3k2r,"Deep vs Shallow",1,136,2020-07-08T14:39:36-07:00,3.6234860420227,3,versionC_stim.csv,RLVersionC.csv,"Realational Version C","Relational, read only version C",DOG,PAW,Study1,B,15,41,Test,User,-,,Recall,Recall1,3108,Bone,0,2564,2995,0,0,,1
5e8d45d744061711c6b8e3ad,g6n3un3k2r,"Deep vs Shallow",1,137,2020-07-08T14:39:43-07:00,7.0065009593964,3,versionC_stim.csv,RLVersionC.csv,"Realational Version C","Relational, read only version C",WASTE,DUMP,Study1,S,49,85,Test,User,-,,Recall,Recall1,6484,Trash,0,4717,6243,0,0,,1
5e8d45d744061711c6b8e3ad,g6n3un3k2r,"Deep vs Shallow",1,138,2020-07-08T14:39:46-07:00,3.10294008255,3,versionC_stim.csv,RLVersionC.csv,"Realational Version C","Relational, read only version C",STOMACH,DIGESTION,Study1,B,7,84,Test,User,-,,Recall,Recall1,2551,Liver,28.571428571429,1834,2499,0,0,,1
5e8d45d744061711c6b8e3ad,g6n3un3k2r,"Deep vs Shallow",1,139,2020-07-08T14:39:51-07:00,5.0381569862366,3,versionC_stim.csv,RLVersionC.csv,"Realational Version C","Relational, read only version C",ROUND,CIRCLE,Study1,S,65,39,Test,User,-,,Recall,Recall1,4510,Circle,100,3823,4426,1,1,,1
5e8d45d744061711c6b8e3ad,g6n3un3k2r,"Deep vs Shallow",1,140,2020-07-08T14:39:54-07:00,3.7083778381348,3,versionC_stim.csv,RLVersionC.csv,"Realational Version C","Relational, read only version C",SALAD,LETTUCE,Study1,S,59,69,Test,User,-,,Recall,Recall1,3193,Lettuce,100,2126,3095,1,1,,1
5e8d45d744061711c6b8e3ad,g6n3un3k2r,"Deep vs Shallow",1,141,2020-07-08T14:39:57-07:00,2.4705410003662,3,versionC_stim.csv,RLVersionC.csv,"Realational Version C","Relational, read only version C",ASSIGNMENT,DUE,Study1,S,46,26,Test,User,-,,Recall,Recall1,1915,Due,100,1392,1743,1,1,,1
5e8d45d744061711c6b8e3ad,g6n3un3k2r,"Deep vs Shallow",1,142,2020-07-08T14:40:01-07:00,4.12251496315,3,versionC_stim.csv,RLVersionC.csv,"Realational Version C","Relational, read only version C",COW,HERD,Study1,B,22,25,Test,User,-,,Recall,Recall1,3594,Herd,100,2072,3014,1,1,,1
5e8d45d744061711c6b8e3ad,g6n3un3k2r,"Deep vs Shallow",1,143,2020-07-08T14:40:09-07:00,8.2660892009735,3,versionC_stim.csv,RLVersionC.csv,"Realational Version C","Relational, read only version C",WORD,SENTENCE,Study1,F,31,48,Test,User,-,,Recall,Recall1,7749,Sentence,100,6256,7466,1,1,,1
5e8d45d744061711c6b8e3ad,g6n3un3k2r,"Deep vs Shallow",1,144,2020-07-08T14:40:20-07:00,10.585363864899,3,versionC_stim.csv,RLVersionC.csv,"Realational Version C","Relational, read only version C",FISH,TUNA,Study1,B,25,77,Test,User,-,,Recall,Recall1,10039,Swim,0,7486,8632,0,0,,1
5e8d45d744061711c6b8e3ad,g6n3un3k2r,"Deep vs Shallow",1,145,2020-07-08T14:40:44-07:00,24.374972105026,3,versionC_stim.csv,RLVersionC.csv,"Realational Version C","Relational, read only version C",COLD,BITTER,Study1,B,12,79,Test,User,-,,Recall,Recall1,23826,,0,-1,-1,0,0,,1
5e8d45d744061711c6b8e3ad,g6n3un3k2r,"Deep vs Shallow",1,146,2020-07-08T14:40:49-07:00,4.7671649456024,3,versionC_stim.csv,RLVersionC.csv,"Realational Version C","Relational, read only version C",LION,ART,Study1,U,79,21,Test,User,-,,Recall,Recall1,4187,,0,-1,-1,0,0,,1
5e8d45d744061711c6b8e3ad,g6n3un3k2r,"Deep vs Shallow",1,147,2020-07-08T14:40:53-07:00,3.9836699962616,3,versionC_stim.csv,RLVersionC.csv,"Realational Version C","Relational, read only version C",ATTIRE,CLOTHES,Study1,F,43,60,Test,User,-,,Recall,Recall1,3462,Smart,16.666666666667,2566,3396,0,0,,1
5e8d45d744061711c6b8e3ad,g6n3un3k2r,"Deep vs Shallow",1,148,2020-07-08T14:40:57-07:00,4.2768740653992,3,versionC_stim.csv,RLVersionC.csv,"Realational Version C","Relational, read only version C",POSITION,MACHINE,Study1,U,76,65,Test,User,-,,Recall,Recall1,3731,,0,-1,-1,0,0,,1
5e8d45d744061711c6b8e3ad,g6n3un3k2r,"Deep vs Shallow",1,149,2020-07-08T14:41:06-07:00,8.5504620075226,3,versionC_stim.csv,RLVersionC.csv,"Realational Version C","Relational, read only version C",ACCIDENT,STRONG,Study1,U,80,20,Test,User,-,,Recall,Recall1,8025,,0,-1,-1,0,0,,1
5e8d45d744061711c6b8e3ad,g6n3un3k2r,"Deep vs Shallow",1,150,2020-07-08T14:41:11-07:00,4.7273988723755,3,versionC_stim.csv,RLVersionC.csv,"Realational Version C","Relational, read only version C",ENOUGH,FULL,Study1,F,26,43,Test,User,-,,Recall,Recall1,4146,Full,100,2999,3910,1,1,,1
5e8d45d744061711c6b8e3ad,g6n3un3k2r,"Deep vs Shallow",1,151,2020-07-08T14:41:13-07:00,2.4611489772797,3,versionC_stim.csv,RLVersionC.csv,"Realational Version C","Relational, read only version C",RIDDLE,SUGAR,Study1,U,81,10,Test,User,-,,Recall,Recall1,1951,Sugar,100,1106,1788,1,1,,1
5e8d45d744061711c6b8e3ad,g6n3un3k2r,"Deep vs Shallow",1,152,2020-07-08T14:41:19-07:00,5.8427670001984,3,versionC_stim.csv,RLVersionC.csv,"Realational Version C","Relational, read only version C",WAR,REVOLUTION,Study1,B,20,23,Test,User,-,,Recall,Recall1,5310,Revolution,100,3778,5117,1,1,,1
5e8d45d744061711c6b8e3ad,g6n3un3k2r,"Deep vs Shallow",1,153,2020-07-08T14:41:23-07:00,4.1283211708069,3,versionC_stim.csv,RLVersionC.csv,"Realational Version C","Relational, read only version C",FUTURE,PAST,Study1,S,61,83,Test,User,-,,Recall,Recall1,3506,Pas,85.714285714286,2998,3408,0,1,,1
5e8d45d744061711c6b8e3ad,g6n3un3k2r,"Deep vs Shallow",1,154,2020-07-08T14:41:27-07:00,4.1909248828888,3,versionC_stim.csv,RLVersionC.csv,"Realational Version C","Relational, read only version C",DEFINITION,MEANING,Study1,S,62,36,Test,User,-,,Recall,Recall1,3674,Define,46.153846153846,2829,3480,0,0,,1
5e8d45d744061711c6b8e3ad,g6n3un3k2r,"Deep vs Shallow",1,155,2020-07-08T14:41:31-07:00,3.9401581287384,3,versionC_stim.csv,RLVersionC.csv,"Realational Version C","Relational, read only version C",WOULD,CASH,Study1,U,83,49,Test,User,-,,Recall,Recall1,3426,,0,-1,-1,0,0,,1
5e8d45d744061711c6b8e3ad,g6n3un3k2r,"Deep vs Shallow",1,156,2020-07-08T14:41:33-07:00,2.0495369434357,3,versionC_stim.csv,RLVersionC.csv,"Realational Version C","Relational, read only version C",BLAZE,FIRE,Study1,F,45,22,Test,User,-,,Recall,Recall1,1619,Fire,100,1050,1450,1,1,,1
5e8d45d744061711c6b8e3ad,g6n3un3k2r,"Deep vs Shallow",1,157,2020-07-08T14:41:37-07:00,3.3810369968414,3,versionC_stim.csv,RLVersionC.csv,"Realational Version C","Relational, read only version C",VASE,KING,Study1,U,85,35,Test,User,-,,Recall,Recall1,2858,King,100,2022,2476,1,1,,1
5e8d45d744061711c6b8e3ad,g6n3un3k2r,"Deep vs Shallow",1,158,2020-07-08T14:41:41-07:00,4.5577070713043,3,versionC_stim.csv,RLVersionC.csv,"Realational Version C","Relational, read only version C",DROWSY,SLEEP,Study1,F,41,38,Test,User,-,,Recall,Recall1,4019,Sleepy,90.909090909091,3068,3743,0,1,,1
5e8d45d744061711c6b8e3ad,g6n3un3k2r,"Deep vs Shallow",1,159,2020-07-08T14:41:47-07:00,5.9075357913971,3,versionC_stim.csv,RLVersionC.csv,"Realational Version C","Relational, read only version C",BAD,DELINQUENT,Study1,B,6,33,Test,User,-,,Recall,Recall1,5391,Delinquant,90,3598,4959,0,1,,1
5e8d45d744061711c6b8e3ad,g6n3un3k2r,"Deep vs Shallow",1,160,2020-07-08T14:41:52-07:00,4.9592621326447,3,versionC_stim.csv,RLVersionC.csv,"Realational Version C","Relational, read only version C",BRONZE,ARTERY,Study1,U,74,63,Test,User,-,,Recall,Recall1,4431,Artery,100,3035,4020,1,1,,1
5e8d45d744061711c6b8e3ad,g6n3un3k2r,"Deep vs Shallow",1,161,2020-07-08T14:41:55-07:00,3.2040519714355,3,versionC_stim.csv,RLVersionC.csv,"Realational Version C","Relational, read only version C",CARD,CREDIT,Study1,B,23,74,Test,User,-,,Recall,Recall1,2686,Credit,100,1830,2546,1,1,,1
5e8d45d744061711c6b8e3ad,g6n3un3k2r,"Deep vs Shallow",1,162,2020-07-08T14:41:58-07:00,2.6081259250641,3,versionC_stim.csv,RLVersionC.csv,"Realational Version C","Relational, read only version C",CHEESE,WINE,Study1,S,57,71,Test,User,-,,Recall,Recall1,2099,Wine,100,1472,1908,1,1,,1
5e8d45d744061711c6b8e3ad,g6n3un3k2r,"Deep vs Shallow",1,163,2020-07-08T14:42:04-07:00,5.948212146759,3,versionC_stim.csv,RLVersionC.csv,"Realational Version C","Relational, read only version C",END,BEGIN,Study1,S,54,32,Test,User,-,,Recall,Recall1,5434,Finish,36.363636363636,2031,5183,0,0,,1
5e8d45d744061711c6b8e3ad,g6n3un3k2r,"Deep vs Shallow",1,164,2020-07-08T14:42:10-07:00,6.2797389030457,3,versionC_stim.csv,RLVersionC.csv,"Realational Version C","Relational, read only version C",FANTASTIC,GREAT,Study1,F,35,29,Test,User,-,,Recall,Recall1,4080,Amazing,16.666666666667,3254,3968,0,0,,1
5e8d45d744061711c6b8e3ad,g6n3un3k2r,"Deep vs Shallow",1,165,2020-07-08T14:42:13-07:00,3.3687961101532,3,versionC_stim.csv,RLVersionC.csv,"Realational Version C","Relational, read only version C",CHILD,BABY,Study1,S,64,52,Test,User,-,,Recall,Recall1,2919,,0,-1,-1,0,0,,1
5e8d45d744061711c6b8e3ad,g6n3un3k2r,"Deep vs Shallow",1,166,2020-07-08T14:42:19-07:00,5.4402828216553,3,versionC_stim.csv,RLVersionC.csv,"Realational Version C","Relational, read only version C",MONEY,WAGE,Study1,B,8,16,Test,User,-,,Recall,Recall1,4919,Rich,0,4302,4721,0,0,,1
5e8d45d744061711c6b8e3ad,g6n3un3k2r,"Deep vs Shallow",1,167,2020-07-08T14:42:34-07:00,15.13755607605,3,versionC_stim.csv,RLVersionC.csv,"Realational Version C","Relational, read only version C",SIGHT,DEBATE,Study1,U,73,14,Test,User,-,,Recall,Recall1,14591,Machine,30.769230769231,13308,14279,0,0,,1
5e8d45d744061711c6b8e3ad,g6n3un3k2r,"Deep vs Shallow",1,168,2020-07-08T14:42:37-07:00,3.5034170150757,3,versionC_stim.csv,RLVersionC.csv,"Realational Version C","Relational, read only version C",WIND,BLOW,Study1,S,55,86,Test,User,-,,Recall,Recall1,2929,Blow,100,1757,2788,1,1,,1
5e8d45d744061711c6b8e3ad,g6n3un3k2r,"Deep vs Shallow",1,169,2020-07-08T14:42:45-07:00,7.2322499752045,3,versionC_stim.csv,RLVersionC.csv,"Realational Version C","Relational, read only version C",DESIGN,ARCHITECTURE,Study1,S,51,24,Test,User,-,,Recall,Recall1,6688,,0,-1,-1,0,0,,1
5e8d45d744061711c6b8e3ad,g6n3un3k2r,"Deep vs Shallow",1,170,2020-07-08T14:42:50-07:00,5.6954090595245,3,versionC_stim.csv,RLVersionC.csv,"Realational Version C","Relational, read only version C",FOOT,SHOE,Study1,S,60,34,Test,User,-,,Recall,Recall1,4167,Toe,57.142857142857,3635,4040,0,0,,1
5e8d45d744061711c6b8e3ad,g6n3un3k2r,"Deep vs Shallow",1,171,2020-07-08T14:42:58-07:00,7.3504250049591,3,versionC_stim.csv,RLVersionC.csv,"Realational Version C","Relational, read only version C",HAND,FIX,Study1,U,75,55,Test,User,-,,Recall,Recall1,6827,,0,-1,-1,0,0,,1
5e8d45d744061711c6b8e3ad,g6n3un3k2r,"Deep vs Shallow",1,172,2020-07-08T14:43:00-07:00,2.1515860557556,3,versionC_stim.csv,RLVersionC.csv,"Realational Version C","Relational, read only version C",SODA,POP,Study1,S,56,19,Test,User,-,,Recall,Recall1,1687,Pop,100,1105,1484,1,1,,1
5e8d45d744061711c6b8e3ad,g6n3un3k2r,"Deep vs Shallow",1,173,2020-07-08T14:43:05-07:00,4.9601929187775,3,versionC_stim.csv,RLVersionC.csv,"Realational Version C","Relational, read only version C",BAR,GRILL,Study1,S,52,66,Test,User,-,,Recall,Recall1,4404,Drink,40,3399,4111,0,0,,1
5e8d45d744061711c6b8e3ad,g6n3un3k2r,"Deep vs Shallow",1,174,2020-07-08T14:43:18-07:00,13.212828874588,3,versionC_stim.csv,RLVersionC.csv,"Realational Version C","Relational, read only version C",AMOUNT,NUMBER,Study1,S,47,53,Test,User,-,,Recall,Recall1,9203,,0,-1,-1,0,0,,1
5e8d45d744061711c6b8e3ad,g6n3un3k2r,"Deep vs Shallow",1,175,2020-07-08T14:43:32-07:00,14.075829029083,3,versionC_stim.csv,RLVersionC.csv,"Realational Version C","Relational, read only version C",TUCK,ALLOW,Study1,U,78,57,Test,User,-,,Recall,Recall1,13418,,0,7303,7712,0,0,,1
5e8d45d744061711c6b8e3ad,g6n3un3k2r,"Deep vs Shallow",1,176,2020-07-08T14:43:35-07:00,3.2520940303802,3,versionC_stim.csv,RLVersionC.csv,"Realational Version C","Relational, read only version C",CHORE,WORK,Study1,F,39,13,Test,User,-,,Recall,Recall1,2717,Work,100,1988,2406,1,1,,1
5e8d45d744061711c6b8e3ad,g6n3un3k2r,"Deep vs Shallow",1,177,2020-07-08T14:43:39-07:00,3.7764019966125,3,versionC_stim.csv,RLVersionC.csv,"Realational Version C","Relational, read only version C",FLOWER,ORCHID,Study1,B,24,11,Test,User,-,,Recall,Recall1,3265,Orchid,100,2300,3122,1,1,,1
5e8d45d744061711c6b8e3ad,g6n3un3k2r,"Deep vs Shallow",1,178,2020-07-08T14:43:45-07:00,5.5413889884949,3,versionC_stim.csv,RLVersionC.csv,"Realational Version C","Relational, read only version C",ADD,VALLEY,Study1,U,82,76,Test,User,-,,Recall,Recall1,4998,Subtract,14.285714285714,3434,4899,0,0,,1
5e8d45d744061711c6b8e3ad,g6n3un3k2r,"Deep vs Shallow",1,179,2020-07-08T14:43:51-07:00,6.3990020751953,3,versionC_stim.csv,RLVersionC.csv,"Realational Version C","Relational, read only version C",CLUTTER,PUSHER,Study1,U,66,44,Test,User,-,,Recall,Recall1,5853,,0,-1,-1,0,0,,1
5e8d45d744061711c6b8e3ad,g6n3un3k2r,"Deep vs Shallow",1,180,2020-07-08T14:43:56-07:00,5.1878809928894,3,versionC_stim.csv,RLVersionC.csv,"Realational Version C","Relational, read only version C",BELT,SOON,Study1,U,70,82,Test,User,-,,Recall,Recall1,4633,Future,0,3705,4417,0,0,,1
5e8d45d744061711c6b8e3ad,g6n3un3k2r,"Deep vs Shallow",1,181,2020-07-08T14:44:12-07:00,15.97132897377,3,versionC_stim.csv,RLVersionC.csv,"Realational Version C","Relational, read only version C",,,,,,0,Instruct,,10,"You will now be presented with a new set of word pairs. Please study each pair. Remember that your memory will be tested! When finished, press Enter to move to the next pair.",Initial_Instruct,Instruct4,14437,,,-1,-1,,,,1
5e8d45d744061711c6b8e3ad,g6n3un3k2r,"Deep vs Shallow",1,182,2020-07-08T14:44:29-07:00,17.029189109802,3,versionC_stim.csv,RLVersionC.csv,"Realational Version C","Relational, read only version C",,,,,,0,Instruct,-,15,"As you study, please think about how the two concepts are RELATED to each other. For example, if you see the pair TURTLE-CAT, think about how both are alive, they are both animals, and both can be kept as pets.",,Instruct20,16440,,,-1,-1,,,,1
5e8d45d744061711c6b8e3ad,g6n3un3k2r,"Deep vs Shallow",1,183,2020-07-08T14:44:41-07:00,11.900683879852,3,versionC_stim.csv,RLVersionC.csv,"Realational Version C","Relational, read only version C",,,,,,0,FreeRecall,-,10,"What you should think about as you study each item pair? Type your response in the box below.",,CHECK4,11355,"The relation of the words. ",0,2293,7002,0,0,,1
5e8d45d744061711c6b8e3ad,g6n3un3k2r,"Deep vs Shallow",1,184,2020-07-08T14:44:42-07:00,1.221419095993,3,versionC_stim.csv,RLVersionC.csv,"Realational Version C","Relational, read only version C",,,,,,0,Instruct,User,-,"Press Enter when you are readty to begin",,Instruct11,764,,,-1,-1,,,,1
5e8d45d744061711c6b8e3ad,g6n3un3k2r,"Deep vs Shallow",1,185,2020-07-08T14:44:50-07:00,7.4305808544159,3,versionC_stim.csv,RLVersionC.csv,"Realational Version C","Relational, read only version C",ADVENTURE,CAMP,BUFFER3,Buffer,95,95,Study,User,-,,Study/JOL,BUFFER3,6931,,,-1,-1,,,,1
5e8d45d744061711c6b8e3ad,g6n3un3k2r,"Deep vs Shallow",1,186,2020-07-08T14:44:58-07:00,8.0393199920654,3,versionC_stim.csv,RLVersionC.csv,"Realational Version C","Relational, read only version C",STRING,NOODLE,BUFFER3,Buffer,92,92,Study,User,-,,Study/JOL,BUFFER3,7515,,,-1,-1,,,,1
5e8d45d744061711c6b8e3ad,g6n3un3k2r,"Deep vs Shallow",1,187,2020-07-08T14:45:06-07:00,8.2320020198822,3,versionC_stim.csv,RLVersionC.csv,"Realational Version C","Relational, read only version C",FISH,SHRIMP,BUFFER3,Buffer,93,93,Study,User,-,,Study/JOL,BUFFER3,7661,,,-1,-1,,,,1
5e8d45d744061711c6b8e3ad,g6n3un3k2r,"Deep vs Shallow",1,188,2020-07-08T14:45:12-07:00,6.0484220981598,3,versionC_stim.csv,RLVersionC.csv,"Realational Version C","Relational, read only version C",FROZEN,ICE,BUFFER3,Buffer,94,94,Study,User,-,,Study/JOL,BUFFER3,5525,,,-1,-1,,,,1
5e8d45d744061711c6b8e3ad,g6n3un3k2r,"Deep vs Shallow",1,189,2020-07-08T14:45:23-07:00,10.78013586998,3,versionC_stim.csv,RLVersionC.csv,"Realational Version C","Relational, read only version C",POTATO,CARROT,BUFFER3,Buffer,91,96,Study,User,-,,Study/JOL,BUFFER3,10256,,,-1,-1,,,,1
5e8d45d744061711c6b8e3ad,g6n3un3k2r,"Deep vs Shallow",1,190,2020-07-08T14:45:29-07:00,5.5666379928589,3,versionC_stim.csv,RLVersionC.csv,"Realational Version C","Relational, read only version C",CUT,CHOP,Study2,B,107,130,Study,User,-,,Study/JOL,"Study Phase2",5015,,,-1,-1,,,,1
5e8d45d744061711c6b8e3ad,g6n3un3k2r,"Deep vs Shallow",1,191,2020-07-08T14:45:35-07:00,6.2796380519867,3,versionC_stim.csv,RLVersionC.csv,"Realational Version C","Relational, read only version C",TIE,SHOELACE,Study2,B,99,143,Study,User,-,,Study/JOL,"Study Phase2",5766,,,-1,-1,,,,1
5e8d45d744061711c6b8e3ad,g6n3un3k2r,"Deep vs Shallow",1,192,2020-07-08T14:45:40-07:00,4.8994970321655,3,versionC_stim.csv,RLVersionC.csv,"Realational Version C","Relational, read only version C",CAR,DRIVER,Study2,B,106,168,Study,User,-,,Study/JOL,"Study Phase2",4366,,,-1,-1,,,,1
5e8d45d744061711c6b8e3ad,g6n3un3k2r,"Deep vs Shallow",1,193,2020-07-08T14:45:45-07:00,5.6800789833069,3,versionC_stim.csv,RLVersionC.csv,"Realational Version C","Relational, read only version C",DOG,FURRY,Study2,B,102,175,Study,User,-,,Study/JOL,"Study Phase2",5031,,,-1,-1,,,,1
5e8d45d744061711c6b8e3ad,g6n3un3k2r,"Deep vs Shallow",1,194,2020-07-08T14:45:49-07:00,3.854553937912,3,versionC_stim.csv,RLVersionC.csv,"Realational Version C","Relational, read only version C",TEMPER,TANTRUM,Study2,S,154,167,Study,User,-,,Study/JOL,"Study Phase2",3341,,,-1,-1,,,,1
5e8d45d744061711c6b8e3ad,g6n3un3k2r,"Deep vs Shallow",1,195,2020-07-08T14:45:55-07:00,5.606418132782,3,versionC_stim.csv,RLVersionC.csv,"Realational Version C","Relational, read only version C",PAPER,DOCUMENT,Study2,B,109,122,Study,User,-,,Study/JOL,"Study Phase2",5031,,,-1,-1,,,,1
5e8d45d744061711c6b8e3ad,g6n3un3k2r,"Deep vs Shallow",1,196,2020-07-08T14:46:04-07:00,8.7325479984283,3,versionC_stim.csv,RLVersionC.csv,"Realational Version C","Relational, read only version C",SARDINE,FISH,Study2,F,130,113,Study,User,-,,Study/JOL,"Study Phase2",8208,,,-1,-1,,,,1
5e8d45d744061711c6b8e3ad,g6n3un3k2r,"Deep vs Shallow",1,197,2020-07-08T14:46:12-07:00,8.8120009899139,3,versionC_stim.csv,RLVersionC.csv,"Realational Version C","Relational, read only version C",SCAR,MAIN,Study2,U,175,99,Study,User,-,,Study/JOL,"Study Phase2",8243,,,-1,-1,,,,1
5e8d45d744061711c6b8e3ad,g6n3un3k2r,"Deep vs Shallow",1,198,2020-07-08T14:46:19-07:00,6.5892629623413,3,versionC_stim.csv,RLVersionC.csv,"Realational Version C","Relational, read only version C",TICK,FLEA,Study2,S,151,117,Study,User,-,,Study/JOL,"Study Phase2",6056,,,-1,-1,,,,1
5e8d45d744061711c6b8e3ad,g6n3un3k2r,"Deep vs Shallow",1,199,2020-07-08T14:46:25-07:00,5.9229071140289,3,versionC_stim.csv,RLVersionC.csv,"Realational Version C","Relational, read only version C",FIGHT,FEUD,Study2,B,113,136,Study,User,-,,Study/JOL,"Study Phase2",5387,,,-1,-1,,,,1
5e8d45d744061711c6b8e3ad,g6n3un3k2r,"Deep vs Shallow",1,200,2020-07-08T14:46:32-07:00,6.6925489902496,3,versionC_stim.csv,RLVersionC.csv,"Realational Version C","Relational, read only version C",STRAWBERRY,FRUIT,Study2,F,124,163,Study,User,-,,Study/JOL,"Study Phase2",6153,,,-1,-1,,,,1
5e8d45d744061711c6b8e3ad,g6n3un3k2r,"Deep vs Shallow",1,201,2020-07-08T14:46:39-07:00,7.7863509654999,3,versionC_stim.csv,RLVersionC.csv,"Realational Version C","Relational, read only version C",BRAWL,FIGHT,Study2,F,135,151,Study,User,-,,Study/JOL,"Study Phase2",7203,,,-1,-1,,,,1
5e8d45d744061711c6b8e3ad,g6n3un3k2r,"Deep vs Shallow",1,202,2020-07-08T14:46:44-07:00,4.9444069862366,3,versionC_stim.csv,RLVersionC.csv,"Realational Version C","Relational, read only version C",SHAVE,RAZOR,Study2,S,136,129,Study,User,-,,Study/JOL,"Study Phase2",4428,,,-1,-1,,,,1
5e8d45d744061711c6b8e3ad,g6n3un3k2r,"Deep vs Shallow",1,203,2020-07-08T14:46:51-07:00,6.4482100009918,3,versionC_stim.csv,RLVersionC.csv,"Realational Version C","Relational, read only version C",PLANT,CACTUS,Study2,B,98,121,Study,User,-,,Study/JOL,"Study Phase2",5901,,,-1,-1,,,,1
5e8d45d744061711c6b8e3ad,g6n3un3k2r,"Deep vs Shallow",1,204,2020-07-08T14:46:57-07:00,6.2970240116119,3,versionC_stim.csv,RLVersionC.csv,"Realational Version C","Relational, read only version C",COMMUNICATION,PHONE,Study2,S,149,146,Study,User,-,,Study/JOL,"Study Phase2",5766,,,-1,-1,,,,1
5e8d45d744061711c6b8e3ad,g6n3un3k2r,"Deep vs Shallow",1,205,2020-07-08T14:47:04-07:00,6.6282410621643,3,versionC_stim.csv,RLVersionC.csv,"Realational Version C","Relational, read only version C",AWAY,GONE,Study2,S,142,155,Study,User,-,,Study/JOL,"Study Phase2",6108,,,-1,-1,,,,1
5e8d45d744061711c6b8e3ad,g6n3un3k2r,"Deep vs Shallow",1,206,2020-07-08T14:47:17-07:00,13.152028799057,3,versionC_stim.csv,RLVersionC.csv,"Realational Version C","Relational, read only version C",PENGUIN,BIRD,Study2,F,119,159,Study,User,-,,Study/JOL,"Study Phase2",12611,,,-1,-1,,,,1
5e8d45d744061711c6b8e3ad,g6n3un3k2r,"Deep vs Shallow",1,207,2020-07-08T14:47:25-07:00,8.2862710952759,3,versionC_stim.csv,RLVersionC.csv,"Realational Version C","Relational, read only version C",GAME,CLUE,Study2,B,97,173,Study,User,-,,Study/JOL,"Study Phase2",7709,,,-1,-1,,,,1
5e8d45d744061711c6b8e3ad,g6n3un3k2r,"Deep vs Shallow",1,208,2020-07-08T14:47:33-07:00,7.849622964859,3,versionC_stim.csv,RLVersionC.csv,"Realational Version C","Relational, read only version C",LEAGUE,BASEBALL,Study2,F,131,114,Study,User,-,,Study/JOL,"Study Phase2",7309,,,-1,-1,,,,1
5e8d45d744061711c6b8e3ad,g6n3un3k2r,"Deep vs Shallow",1,209,2020-07-08T14:47:43-07:00,9.7678420543671,3,versionC_stim.csv,RLVersionC.csv,"Realational Version C","Relational, read only version C",STEAK,GIVE,Study2,U,158,102,Study,User,-,,Study/JOL,"Study Phase2",9236,,,-1,-1,,,,1
5e8d45d744061711c6b8e3ad,g6n3un3k2r,"Deep vs Shallow",1,210,2020-07-08T14:47:49-07:00,5.8736190795898,3,versionC_stim.csv,RLVersionC.csv,"Realational Version C","Relational, read only version C",HAVE,OWN,Study2,S,153,158,Study,User,-,,Study/JOL,"Study Phase2",5343,,,-1,-1,,,,1
5e8d45d744061711c6b8e3ad,g6n3un3k2r,"Deep vs Shallow",1,211,2020-07-08T14:47:59-07:00,10.107201814651,3,versionC_stim.csv,RLVersionC.csv,"Realational Version C","Relational, read only version C",BANKER,MONEY,Study2,F,132,174,Study,User,-,,Study/JOL,"Study Phase2",8557,,,-1,-1,,,,1
5e8d45d744061711c6b8e3ad,g6n3un3k2r,"Deep vs Shallow",1,212,2020-07-08T14:48:10-07:00,11.075669050217,3,versionC_stim.csv,RLVersionC.csv,"Realational Version C","Relational, read only version C",LONG,EXTENSION,Study2,B,96,124,Study,User,-,,Study/JOL,"Study Phase2",10493,,,-1,-1,,,,1
5e8d45d744061711c6b8e3ad,g6n3un3k2r,"Deep vs Shallow",1,213,2020-07-08T14:48:20-07:00,10.182946920395,3,versionC_stim.csv,RLVersionC.csv,"Realational Version C","Relational, read only version C",AIRCRAFT,PLANE,Study2,F,129,154,Study,User,-,,Study/JOL,"Study Phase2",9646,,,-1,-1,,,,1
5e8d45d744061711c6b8e3ad,g6n3un3k2r,"Deep vs Shallow",1,214,2020-07-08T14:48:24-07:00,3.6544561386108,3,versionC_stim.csv,RLVersionC.csv,"Realational Version C","Relational, read only version C",BALLOON,POP,Study2,F,123,171,Study,User,-,,Study/JOL,"Study Phase2",3119,,,-1,-1,,,,1
5e8d45d744061711c6b8e3ad,g6n3un3k2r,"Deep vs Shallow",1,215,2020-07-08T14:48:27-07:00,3.4307730197906,3,versionC_stim.csv,RLVersionC.csv,"Realational Version C","Relational, read only version C",COFFIN,DEAD,Study2,F,128,97,Study,User,-,,Study/JOL,"Study Phase2",2913,,,-1,-1,,,,1
5e8d45d744061711c6b8e3ad,g6n3un3k2r,"Deep vs Shallow",1,216,2020-07-08T14:48:31-07:00,3.7164359092712,3,versionC_stim.csv,RLVersionC.csv,"Realational Version C","Relational, read only version C",COLD,CHILL,Study2,B,114,172,Study,User,-,,Study/JOL,"Study Phase2",3182,,,-1,-1,,,,1
5e8d45d744061711c6b8e3ad,g6n3un3k2r,"Deep vs Shallow",1,217,2020-07-08T14:48:35-07:00,4.0176351070404,3,versionC_stim.csv,RLVersionC.csv,"Realational Version C","Relational, read only version C",HEAD,SCALP,Study2,B,105,134,Study,User,-,,Study/JOL,"Study Phase2",3502,,,-1,-1,,,,1
5e8d45d744061711c6b8e3ad,g6n3un3k2r,"Deep vs Shallow",1,218,2020-07-08T14:48:38-07:00,3.256078004837,3,versionC_stim.csv,RLVersionC.csv,"Realational Version C","Relational, read only version C",BRACELET,WRIST,Study2,S,140,115,Study,User,-,,Study/JOL,"Study Phase2",2736,,,-1,-1,,,,1
5e8d45d744061711c6b8e3ad,g6n3un3k2r,"Deep vs Shallow",1,219,2020-07-08T14:48:47-07:00,8.8067970275879,3,versionC_stim.csv,RLVersionC.csv,"Realational Version C","Relational, read only version C",FLIP,TURN,Study2,F,116,110,Study,User,-,,Study/JOL,"Study Phase2",8274,,,-1,-1,,,,1
5e8d45d744061711c6b8e3ad,g6n3un3k2r,"Deep vs Shallow",1,220,2020-07-08T14:48:57-07:00,9.8087408542633,3,versionC_stim.csv,RLVersionC.csv,"Realational Version C","Relational, read only version C",CARBON,ELEMENT,Study2,S,141,165,Study,User,-,,Study/JOL,"Study Phase2",9289,,,-1,-1,,,,1
5e8d45d744061711c6b8e3ad,g6n3un3k2r,"Deep vs Shallow",1,221,2020-07-08T14:49:04-07:00,6.8536970615387,3,versionC_stim.csv,RLVersionC.csv,"Realational Version C","Relational, read only version C",REEL,ROD,Study2,S,150,128,Study,User,-,,Study/JOL,"Study Phase2",6313,,,-1,-1,,,,1
5e8d45d744061711c6b8e3ad,g6n3un3k2r,"Deep vs Shallow",1,222,2020-07-08T14:49:13-07:00,9.6375539302826,3,versionC_stim.csv,RLVersionC.csv,"Realational Version C","Relational, read only version C",GROUND,EARTH,Study2,S,144,142,Study,User,-,,Study/JOL,"Study Phase2",9103,,,-1,-1,,,,1
5e8d45d744061711c6b8e3ad,g6n3un3k2r,"Deep vs Shallow",1,223,2020-07-08T14:49:25-07:00,12.065094947815,3,versionC_stim.csv,RLVersionC.csv,"Realational Version C","Relational, read only version C",SIGN,LOAN,Study2,U,171,157,Study,User,-,,Study/JOL,"Study Phase2",11490,,,-1,-1,,,,1
5e8d45d744061711c6b8e3ad,g6n3un3k2r,"Deep vs Shallow",1,224,2020-07-08T14:49:31-07:00,5.5109481811523,3,versionC_stim.csv,RLVersionC.csv,"Realational Version C","Relational, read only version C",,,,,,0,Instruct,-,3,"Remember to focus on how the two items are similiar while you study!",,CHECK5,4966,,,-1,-1,,,,1
5e8d45d744061711c6b8e3ad,g6n3un3k2r,"Deep vs Shallow",1,225,2020-07-08T14:49:39-07:00,8.3469159603119,3,versionC_stim.csv,RLVersionC.csv,"Realational Version C","Relational, read only version C",HATE,NAME,Study2,U,167,101,Study,User,-,,Study/JOL,"Study Phase2",7802,,,-1,-1,,,,1
5e8d45d744061711c6b8e3ad,g6n3un3k2r,"Deep vs Shallow",1,226,2020-07-08T14:49:48-07:00,9.2401728630066,3,versionC_stim.csv,RLVersionC.csv,"Realational Version C","Relational, read only version C",BANG,FUZZY,Study2,U,168,131,Study,User,-,,Study/JOL,"Study Phase2",8704,,,-1,-1,,,,1
5e8d45d744061711c6b8e3ad,g6n3un3k2r,"Deep vs Shallow",1,227,2020-07-08T14:49:54-07:00,5.9172329902649,3,versionC_stim.csv,RLVersionC.csv,"Realational Version C","Relational, read only version C",WET,DRY,Study2,S,146,153,Study,User,-,,Study/JOL,"Study Phase2",5371,,,-1,-1,,,,1
5e8d45d744061711c6b8e3ad,g6n3un3k2r,"Deep vs Shallow",1,228,2020-07-08T14:49:59-07:00,5.1479640007019,3,versionC_stim.csv,RLVersionC.csv,"Realational Version C","Relational, read only version C",TAN,SUN,Study2,S,155,152,Study,User,-,,Study/JOL,"Study Phase2",4612,,,-1,-1,,,,1
5e8d45d744061711c6b8e3ad,g6n3un3k2r,"Deep vs Shallow",1,229,2020-07-08T14:50:04-07:00,4.2451109886169,3,versionC_stim.csv,RLVersionC.csv,"Realational Version C","Relational, read only version C",LIE,TRUTH,Study2,S,148,160,Study,User,-,,Study/JOL,"Study Phase2",3694,,,-1,-1,,,,1
5e8d45d744061711c6b8e3ad,g6n3un3k2r,"Deep vs Shallow",1,230,2020-07-08T14:50:13-07:00,9.4320120811462,3,versionC_stim.csv,RLVersionC.csv,"Realational Version C","Relational, read only version C",RED,CHERRY,Study2,B,104,120,Study,User,-,,Study/JOL,"Study Phase2",8839,,,-1,-1,,,,1
5e8d45d744061711c6b8e3ad,g6n3un3k2r,"Deep vs Shallow",1,231,2020-07-08T14:50:19-07:00,6.0805690288544,3,versionC_stim.csv,RLVersionC.csv,"Realational Version C","Relational, read only version C",Morning,TEMPERATURE,Study2,U,173,132,Study,User,-,,Study/JOL,"Study Phase2",5537,,,-1,-1,,,,1
5e8d45d744061711c6b8e3ad,g6n3un3k2r,"Deep vs Shallow",1,232,2020-07-08T14:50:27-07:00,8.2848420143127,3,versionC_stim.csv,RLVersionC.csv,"Realational Version C","Relational, read only version C",THIMBLE,THREAD,Study2,F,121,116,Study,User,-,,Study/JOL,"Study Phase2",7758,,,-1,-1,,,,1
5e8d45d744061711c6b8e3ad,g6n3un3k2r,"Deep vs Shallow",1,233,2020-07-08T14:50:36-07:00,9.0407660007477,3,versionC_stim.csv,RLVersionC.csv,"Realational Version C","Relational, read only version C",FICTION,LISTEN,Study2,U,164,148,Study,User,-,,Study/JOL,"Study Phase2",8505,,,-1,-1,,,,1
5e8d45d744061711c6b8e3ad,g6n3un3k2r,"Deep vs Shallow",1,234,2020-07-08T14:50:46-07:00,9.7605791091919,3,versionC_stim.csv,RLVersionC.csv,"Realational Version C","Relational, read only version C",JAR,MASON,Study2,S,138,141,Study,User,-,,Study/JOL,"Study Phase2",9219,,,-1,-1,,,,1
5e8d45d744061711c6b8e3ad,g6n3un3k2r,"Deep vs Shallow",1,235,2020-07-08T14:50:57-07:00,11.127775907516,3,versionC_stim.csv,RLVersionC.csv,"Realational Version C","Relational, read only version C",CLEAR,MOAT,Study2,U,169,112,Study,User,-,,Study/JOL,"Study Phase2",10586,,,-1,-1,,,,1
5e8d45d744061711c6b8e3ad,g6n3un3k2r,"Deep vs Shallow",1,236,2020-07-08T14:51:06-07:00,8.8561470508575,3,versionC_stim.csv,RLVersionC.csv,"Realational Version C","Relational, read only version C",OUNCE,BOTH,Study2,U,172,138,Study,User,-,,Study/JOL,"Study Phase2",8307,,,-1,-1,,,,1
5e8d45d744061711c6b8e3ad,g6n3un3k2r,"Deep vs Shallow",1,237,2020-07-08T14:51:16-07:00,9.340423822403,3,versionC_stim.csv,RLVersionC.csv,"Realational Version C","Relational, read only version C",SMELL,INCENSE,Study2,B,110,105,Study,User,-,,Study/JOL,"Study Phase2",8758,,,-1,-1,,,,1
5e8d45d744061711c6b8e3ad,g6n3un3k2r,"Deep vs Shallow",1,238,2020-07-08T14:51:21-07:00,5.8193671703339,3,versionC_stim.csv,RLVersionC.csv,"Realational Version C","Relational, read only version C",WAX,CANDLE,Study2,S,139,176,Study,User,-,,Study/JOL,"Study Phase2",5285,,,-1,-1,,,,1
5e8d45d744061711c6b8e3ad,g6n3un3k2r,"Deep vs Shallow",1,239,2020-07-08T14:51:34-07:00,13.016454935074,3,versionC_stim.csv,RLVersionC.csv,"Realational Version C","Relational, read only version C",SHAKE,Shell,Study2,U,163,147,Study,User,-,,Study/JOL,"Study Phase2",12508,,,-1,-1,,,,1
5e8d45d744061711c6b8e3ad,g6n3un3k2r,"Deep vs Shallow",1,240,2020-07-08T14:51:45-07:00,10.618665933609,3,versionC_stim.csv,RLVersionC.csv,"Realational Version C","Relational, read only version C",TOIL,LEASE,Study2,U,170,111,Study,User,-,,Study/JOL,"Study Phase2",10033,,,-1,-1,,,,1
5e8d45d744061711c6b8e3ad,g6n3un3k2r,"Deep vs Shallow",1,241,2020-07-08T14:51:53-07:00,7.4678430557251,3,versionC_stim.csv,RLVersionC.csv,"Realational Version C","Relational, read only version C",SEATBELT,SAFETY,Study2,S,147,140,Study,User,-,,Study/JOL,"Study Phase2",6934,,,-1,-1,,,,1
5e8d45d744061711c6b8e3ad,g6n3un3k2r,"Deep vs Shallow",1,242,2020-07-08T14:52:01-07:00,8.7471721172333,3,versionC_stim.csv,RLVersionC.csv,"Realational Version C","Relational, read only version C",CLOTH,STRETCH,Study2,U,157,162,Study,User,-,,Study/JOL,"Study Phase2",8242,,,-1,-1,,,,1
5e8d45d744061711c6b8e3ad,g6n3un3k2r,"Deep vs Shallow",1,243,2020-07-08T14:52:08-07:00,6.3049237728119,3,versionC_stim.csv,RLVersionC.csv,"Realational Version C","Relational, read only version C",VILLAIN,BAD,Study2,F,118,103,Study,User,-,,Study/JOL,"Study Phase2",5712,,,-1,-1,,,,1
5e8d45d744061711c6b8e3ad,g6n3un3k2r,"Deep vs Shallow",1,244,2020-07-08T14:52:12-07:00,4.0990331172943,3,versionC_stim.csv,RLVersionC.csv,"Realational Version C","Relational, read only version C",FAVORITE,BEST,Study2,F,125,119,Study,User,-,,Study/JOL,"Study Phase2",3572,,,-1,-1,,,,1
5e8d45d744061711c6b8e3ad,g6n3un3k2r,"Deep vs Shallow",1,245,2020-07-08T14:52:29-07:00,17.076081037521,3,versionC_stim.csv,RLVersionC.csv,"Realational Version C","Relational, read only version C",CLOTHES,CAKE,Study2,U,166,107,Study,User,-,,Study/JOL,"Study Phase2",16544,,,-1,-1,,,,1
5e8d45d744061711c6b8e3ad,g6n3un3k2r,"Deep vs Shallow",1,246,2020-07-08T14:52:33-07:00,4.4883570671082,3,versionC_stim.csv,RLVersionC.csv,"Realational Version C","Relational, read only version C",CHILDREN,MIRROR,Study2,U,174,169,Study,User,-,,Study/JOL,"Study Phase2",3900,,,-1,-1,,,,1
5e8d45d744061711c6b8e3ad,g6n3un3k2r,"Deep vs Shallow",1,247,2020-07-08T14:52:38-07:00,5.2744488716125,3,versionC_stim.csv,RLVersionC.csv,"Realational Version C","Relational, read only version C",END,ADJOURN,Study2,B,101,118,Study,User,-,,Study/JOL,"Study Phase2",4748,,,-1,-1,,,,1
5e8d45d744061711c6b8e3ad,g6n3un3k2r,"Deep vs Shallow",1,248,2020-07-08T14:52:47-07:00,8.5600130558014,3,versionC_stim.csv,RLVersionC.csv,"Realational Version C","Relational, read only version C",OBTAIN,MEAT,Study2,U,161,144,Study,User,-,,Study/JOL,"Study Phase2",8020,,,-1,-1,,,,1
5e8d45d744061711c6b8e3ad,g6n3un3k2r,"Deep vs Shallow",1,249,2020-07-08T14:52:50-07:00,2.7502899169922,3,versionC_stim.csv,RLVersionC.csv,"Realational Version C","Relational, read only version C",NAP,SLEEP,Study2,F,134,125,Study,User,-,,Study/JOL,"Study Phase2",2227,,,-1,-1,,,,1
5e8d45d744061711c6b8e3ad,g6n3un3k2r,"Deep vs Shallow",1,250,2020-07-08T14:53:01-07:00,10.856090068817,3,versionC_stim.csv,RLVersionC.csv,"Realational Version C","Relational, read only version C",REVENGE,EVEN,Study2,F,122,161,Study,User,-,,Study/JOL,"Study Phase2",10240,,,-1,-1,,,,1
5e8d45d744061711c6b8e3ad,g6n3un3k2r,"Deep vs Shallow",1,251,2020-07-08T14:53:05-07:00,4.5663259029388,3,versionC_stim.csv,RLVersionC.csv,"Realational Version C","Relational, read only version C",TRASH,LITTER,Study2,B,103,149,Study,User,-,,Study/JOL,"Study Phase2",4023,,,-1,-1,,,,1
5e8d45d744061711c6b8e3ad,g6n3un3k2r,"Deep vs Shallow",1,252,2020-07-08T14:53:18-07:00,12.591387987137,3,versionC_stim.csv,RLVersionC.csv,"Realational Version C","Relational, read only version C",CHARM,VEHICLE,Study2,U,160,139,Study,User,-,,Study/JOL,"Study Phase2",12079,,,-1,-1,,,,1
5e8d45d744061711c6b8e3ad,g6n3un3k2r,"Deep vs Shallow",1,253,2020-07-08T14:53:21-07:00,3.514454126358,3,versionC_stim.csv,RLVersionC.csv,"Realational Version C","Relational, read only version C",PANTHER,CAT,Study2,F,126,150,Study,User,-,,Study/JOL,"Study Phase2",2950,,,-1,-1,,,,1
5e8d45d744061711c6b8e3ad,g6n3un3k2r,"Deep vs Shallow",1,254,2020-07-08T14:53:27-07:00,5.4759359359741,3,versionC_stim.csv,RLVersionC.csv,"Realational Version C","Relational, read only version C",ACTRESS,STAR,Study2,F,120,137,Study,User,-,,Study/JOL,"Study Phase2",3946,,,-1,-1,,,,1
5e8d45d744061711c6b8e3ad,g6n3un3k2r,"Deep vs Shallow",1,255,2020-07-08T14:53:41-07:00,14.261210918427,3,versionC_stim.csv,RLVersionC.csv,"Realational Version C","Relational, read only version C",MAROON,JUSTICE,Study2,U,156,135,Study,User,-,,Study/JOL,"Study Phase2",13693,,,-1,-1,,,,1
5e8d45d744061711c6b8e3ad,g6n3un3k2r,"Deep vs Shallow",1,256,2020-07-08T14:53:47-07:00,5.7848341464996,3,versionC_stim.csv,RLVersionC.csv,"Realational Version C","Relational, read only version C",MYSTERY,DETECTIVE,Study2,B,100,156,Study,User,-,,Study/JOL,"Study Phase2",5232,,,-1,-1,,,,1
5e8d45d744061711c6b8e3ad,g6n3un3k2r,"Deep vs Shallow",1,257,2020-07-08T14:53:52-07:00,5.6194438934326,3,versionC_stim.csv,RLVersionC.csv,"Realational Version C","Relational, read only version C",NOISE,LOUD,Study2,S,152,100,Study,User,-,,Study/JOL,"Study Phase2",5097,,,-1,-1,,,,1
5e8d45d744061711c6b8e3ad,g6n3un3k2r,"Deep vs Shallow",1,258,2020-07-08T14:54:08-07:00,15.684422969818,3,versionC_stim.csv,RLVersionC.csv,"Realational Version C","Relational, read only version C",JOKE,KEYS,Study2,U,165,164,Study,User,-,,Study/JOL,"Study Phase2",15144,,,-1,-1,,,,1
5e8d45d744061711c6b8e3ad,g6n3un3k2r,"Deep vs Shallow",1,259,2020-07-08T14:54:16-07:00,7.6221430301666,3,versionC_stim.csv,RLVersionC.csv,"Realational Version C","Relational, read only version C",SCISSORS,SHEARS,Study2,B,112,123,Study,User,-,,Study/JOL,"Study Phase2",7060,,,-1,-1,,,,1
5e8d45d744061711c6b8e3ad,g6n3un3k2r,"Deep vs Shallow",1,260,2020-07-08T14:54:19-07:00,3.1747870445251,3,versionC_stim.csv,RLVersionC.csv,"Realational Version C","Relational, read only version C",EQUAL,RIGHTS,Study2,S,137,126,Study,User,-,,Study/JOL,"Study Phase2",2638,,,-1,-1,,,,1
5e8d45d744061711c6b8e3ad,g6n3un3k2r,"Deep vs Shallow",1,261,2020-07-08T14:54:21-07:00,1.9277949333191,3,versionC_stim.csv,RLVersionC.csv,"Realational Version C","Relational, read only version C",LOVE,AFFECTION,Study2,B,115,145,Study,User,-,,Study/JOL,"Study Phase2",1459,,,-1,-1,,,,1
5e8d45d744061711c6b8e3ad,g6n3un3k2r,"Deep vs Shallow",1,262,2020-07-08T14:54:22-07:00,1.4802260398865,3,versionC_stim.csv,RLVersionC.csv,"Realational Version C","Relational, read only version C",DRINK,WATER,Study2,S,143,133,Study,User,-,,Study/JOL,"Study Phase2",1047,,,-1,-1,,,,1
5e8d45d744061711c6b8e3ad,g6n3un3k2r,"Deep vs Shallow",1,263,2020-07-08T14:54:31-07:00,8.561105966568,3,versionC_stim.csv,RLVersionC.csv,"Realational Version C","Relational, read only version C",TRUTHFUL,HONEST,Study2,F,133,106,Study,User,-,,Study/JOL,"Study Phase2",8030,,,-1,-1,,,,1
5e8d45d744061711c6b8e3ad,g6n3un3k2r,"Deep vs Shallow",1,264,2020-07-08T14:54:33-07:00,2.5245940685272,3,versionC_stim.csv,RLVersionC.csv,"Realational Version C","Relational, read only version C",EAT,DINE,Study2,B,111,170,Study,User,-,,Study/JOL,"Study Phase2",1980,,,-1,-1,,,,1
5e8d45d744061711c6b8e3ad,g6n3un3k2r,"Deep vs Shallow",1,265,2020-07-08T14:54:38-07:00,4.8787889480591,3,versionC_stim.csv,RLVersionC.csv,"Realational Version C","Relational, read only version C",WINDSHIELD,CAR,Study2,F,117,109,Study,User,-,,Study/JOL,"Study Phase2",4333,,,-1,-1,,,,1
5e8d45d744061711c6b8e3ad,g6n3un3k2r,"Deep vs Shallow",1,266,2020-07-08T14:54:50-07:00,11.568647146225,3,versionC_stim.csv,RLVersionC.csv,"Realational Version C","Relational, read only version C",ABLE,CRACKLE,Study2,U,162,104,Study,User,-,,Study/JOL,"Study Phase2",11006,,,-1,-1,,,,1
5e8d45d744061711c6b8e3ad,g6n3un3k2r,"Deep vs Shallow",1,267,2020-07-08T14:54:55-07:00,5.5013678073883,3,versionC_stim.csv,RLVersionC.csv,"Realational Version C","Relational, read only version C",DONKEY,MULE,Study2,B,108,98,Study,User,-,,Study/JOL,"Study Phase2",4907,,,-1,-1,,,,1
5e8d45d744061711c6b8e3ad,g6n3un3k2r,"Deep vs Shallow",1,268,2020-07-08T14:54:58-07:00,2.1778390407562,3,versionC_stim.csv,RLVersionC.csv,"Realational Version C","Relational, read only version C",BREAKABLE,GLASS,Study2,F,127,166,Study,User,-,,Study/JOL,"Study Phase2",1737,,,-1,-1,,,,1
5e8d45d744061711c6b8e3ad,g6n3un3k2r,"Deep vs Shallow",1,269,2020-07-08T14:55:04-07:00,6.5889501571655,3,versionC_stim.csv,RLVersionC.csv,"Realational Version C","Relational, read only version C",ELECTION,MAZE,Study2,U,159,127,Study,User,-,,Study/JOL,"Study Phase2",6057,,,-1,-1,,,,1
5e8d45d744061711c6b8e3ad,g6n3un3k2r,"Deep vs Shallow",1,270,2020-07-08T14:55:06-07:00,2.278767824173,3,versionC_stim.csv,RLVersionC.csv,"Realational Version C","Relational, read only version C",LONELY,ALONE,Study2,S,145,108,Study,User,-,,Study/JOL,"Study Phase2",1713,,,-1,-1,,,,1
5e8d45d744061711c6b8e3ad,g6n3un3k2r,"Deep vs Shallow",1,271,2020-07-08T14:55:10-07:00,3.7455492019653,3,versionC_stim.csv,RLVersionC.csv,"Realational Version C","Relational, read only version C",MARCH,SPRING,BUFFER4,Buffer,179,178,Study,User,-,,Study/JOL,BUFFER4,3185,,,-1,-1,,,,1
5e8d45d744061711c6b8e3ad,g6n3un3k2r,"Deep vs Shallow",1,272,2020-07-08T14:55:14-07:00,3.6203689575195,3,versionC_stim.csv,RLVersionC.csv,"Realational Version C","Relational, read only version C",YEAR,MONTH,BUFFER4,Buffer,177,179,Study,User,-,,Study/JOL,BUFFER4,2996,,,-1,-1,,,,1
5e8d45d744061711c6b8e3ad,g6n3un3k2r,"Deep vs Shallow",1,273,2020-07-08T14:55:17-07:00,3.5722219944,3,versionC_stim.csv,RLVersionC.csv,"Realational Version C","Relational, read only version C",SPOOKY,OCTOBER,BUFFER4,Buffer,180,181,Study,User,-,,Study/JOL,BUFFER4,3029,,,-1,-1,,,,1
5e8d45d744061711c6b8e3ad,g6n3un3k2r,"Deep vs Shallow",1,274,2020-07-08T14:55:25-07:00,7.4420719146729,3,versionC_stim.csv,RLVersionC.csv,"Realational Version C","Relational, read only version C",WEAKS,DAYS,BUFFER4,Buffer,176,177,Study,User,-,,Study/JOL,BUFFER4,6903,,,-1,-1,,,,1
5e8d45d744061711c6b8e3ad,g6n3un3k2r,"Deep vs Shallow",1,275,2020-07-08T14:55:28-07:00,2.7431409358978,3,versionC_stim.csv,RLVersionC.csv,"Realational Version C","Relational, read only version C",SHED,TOOL,BUFFER4,Buffer,178,180,Study,User,-,,Study/JOL,BUFFER4,2191,,,-1,-1,,,,1
5e8d45d744061711c6b8e3ad,g6n3un3k2r,"Deep vs Shallow",1,276,2020-07-08T14:55:29-07:00,1.4497120380402,3,versionC_stim.csv,RLVersionC.csv,"Realational Version C","Relational, read only version C",,,,,,0,Instruct,User,-,"You have completed this section. Please press Enter.",Filler_Instruction,Instruct5,976,,,-1,-1,,,,1
5e8d45d744061711c6b8e3ad,g6n3un3k2r,"Deep vs Shallow",1,277,2020-07-08T14:55:40-07:00,11.488078117371,3,versionC_stim.csv,RLVersionC.csv,"Realational Version C","Relational, read only version C",,,,,,0,FreeRecall,-,10,"What were you supposed to focus on while you studied each pair? (Hint: Think back to the instructions). Type your answer in the space below.",,CHECK3,10940,"Similarities that you can find. ",0,2717,9079,0,0,,1
5e8d45d744061711c6b8e3ad,g6n3un3k2r,"Deep vs Shallow",1,278,2020-07-08T14:55:42-07:00,1.887354850769,3,versionC_stim.csv,RLVersionC.csv,"Realational Version C","Relational, read only version C",,,,,,0,Instruct,User,-,"You have completed this section. Please press Enter.",Filler_Instruction,Instruct5,1433,,,-1,-1,,,,1
5e8d45d744061711c6b8e3ad,g6n3un3k2r,"Deep vs Shallow",1,279,2020-07-08T14:57:43-07:00,120.53004217148,3,versionC_stim.csv,RLVersionC.csv,"Realational Version C","Relational, read only version C",,,,,,0,FreeRecall,120,120,"Please list the 50 US states in reverse alphabetical order (z - a). The task will automatically advance to the next screen after two minutes.",,Filler2,120003,"Z Y Washington Wyoming Wisconsin West Virginia Vermont Utah Texas South Dakota South Carolina Rhode Island Philadelphia Oklahoma Oregon L ",0,3101,119053,0,0,,1
5e8d45d744061711c6b8e3ad,g6n3un3k2r,"Deep vs Shallow",1,280,2020-07-08T14:57:55-07:00,12.331583976746,3,versionC_stim.csv,RLVersionC.csv,"Realational Version C","Relational, read only version C",,,,,,0,Instruct,-,10,"You will now be presented with the first word from each of the previously studied item pairs. Please type the missing word. If you do not know the word, you may guess or press Enter to skip forward to the next pair.",,Instruct6,11741,,,-1,-1,,,,1
5e8d45d744061711c6b8e3ad,g6n3un3k2r,"Deep vs Shallow",1,281,2020-07-08T14:58:02-07:00,6.4024639129639,3,versionC_stim.csv,RLVersionC.csv,"Realational Version C","Relational, read only version C",CLOTH,STRETCH,Study2,U,157,162,Test,User,-,,Recall,Recall2,5814,Stretch,100,3469,5484,1,1,,1
5e8d45d744061711c6b8e3ad,g6n3un3k2r,"Deep vs Shallow",1,282,2020-07-08T14:58:05-07:00,3.4606809616089,3,versionC_stim.csv,RLVersionC.csv,"Realational Version C","Relational, read only version C",EQUAL,RIGHTS,Study2,S,137,126,Test,User,-,,Recall,Recall2,2743,Rights,100,1969,2664,1,1,,1
5e8d45d744061711c6b8e3ad,g6n3un3k2r,"Deep vs Shallow",1,283,2020-07-08T14:58:08-07:00,3.2241661548615,3,versionC_stim.csv,RLVersionC.csv,"Realational Version C","Relational, read only version C",THIMBLE,THREAD,Study2,F,121,116,Test,User,-,,Recall,Recall2,2660,Thread,100,1135,2583,1,1,,1
5e8d45d744061711c6b8e3ad,g6n3un3k2r,"Deep vs Shallow",1,284,2020-07-08T14:58:22-07:00,13.726506948471,3,versionC_stim.csv,RLVersionC.csv,"Realational Version C","Relational, read only version C",JAR,MASON,Study2,S,138,141,Test,User,-,,Recall,Recall2,13164,Mason,100,11294,12958,1,1,,1
5e8d45d744061711c6b8e3ad,g6n3un3k2r,"Deep vs Shallow",1,285,2020-07-08T14:58:25-07:00,2.5020279884338,3,versionC_stim.csv,RLVersionC.csv,"Realational Version C","Relational, read only version C",BREAKABLE,GLASS,Study2,F,127,166,Test,User,-,,Recall,Recall2,1934,Glass,100,1310,1866,1,1,,1
5e8d45d744061711c6b8e3ad,g6n3un3k2r,"Deep vs Shallow",1,286,2020-07-08T14:58:27-07:00,2.1326460838318,3,versionC_stim.csv,RLVersionC.csv,"Realational Version C","Relational, read only version C",NAP,SLEEP,Study2,F,134,125,Test,User,-,,Recall,Recall2,1708,Sleep,100,1062,1545,1,1,,1
5e8d45d744061711c6b8e3ad,g6n3un3k2r,"Deep vs Shallow",1,287,2020-07-08T14:58:30-07:00,2.9225969314575,3,versionC_stim.csv,RLVersionC.csv,"Realational Version C","Relational, read only version C",TICK,FLEA,Study2,S,151,117,Test,User,-,,Recall,Recall2,2391,Flea,100,1796,2233,1,1,,1
5e8d45d744061711c6b8e3ad,g6n3un3k2r,"Deep vs Shallow",1,288,2020-07-08T14:58:35-07:00,5.5288798809052,3,versionC_stim.csv,RLVersionC.csv,"Realational Version C","Relational, read only version C",ABLE,CRACKLE,Study2,U,162,104,Test,User,-,,Recall,Recall2,4996,Crackle,100,3124,4804,1,1,,1
5e8d45d744061711c6b8e3ad,g6n3un3k2r,"Deep vs Shallow",1,289,2020-07-08T14:58:38-07:00,2.4572830200195,3,versionC_stim.csv,RLVersionC.csv,"Realational Version C","Relational, read only version C",PENGUIN,BIRD,Study2,F,119,159,Test,User,-,,Recall,Recall2,1905,Bird,100,1402,1824,1,1,,1
5e8d45d744061711c6b8e3ad,g6n3un3k2r,"Deep vs Shallow",1,290,2020-07-08T14:58:41-07:00,3.5737421512604,3,versionC_stim.csv,RLVersionC.csv,"Realational Version C","Relational, read only version C",CLOTHES,CAKE,Study2,U,166,107,Test,User,-,,Recall,Recall2,3043,Cake,100,2489,2935,1,1,,1
5e8d45d744061711c6b8e3ad,g6n3un3k2r,"Deep vs Shallow",1,291,2020-07-08T14:58:44-07:00,2.5253798961639,3,versionC_stim.csv,RLVersionC.csv,"Realational Version C","Relational, read only version C",WAX,CANDLE,Study2,S,139,176,Test,User,-,,Recall,Recall2,1994,Candle,100,1213,1904,1,1,,1
5e8d45d744061711c6b8e3ad,g6n3un3k2r,"Deep vs Shallow",1,292,2020-07-08T14:58:56-07:00,12.448807954788,3,versionC_stim.csv,RLVersionC.csv,"Realational Version C","Relational, read only version C",COLD,CHILL,Study2,B,114,172,Test,User,-,,Recall,Recall2,11920,Ice,25,10145,11753,0,0,,1
5e8d45d744061711c6b8e3ad,g6n3un3k2r,"Deep vs Shallow",1,293,2020-07-08T14:58:59-07:00,2.797455072403,3,versionC_stim.csv,RLVersionC.csv,"Realational Version C","Relational, read only version C",BANKER,MONEY,Study2,F,132,174,Test,User,-,,Recall,Recall2,2218,Money,100,1374,2048,1,1,,1
5e8d45d744061711c6b8e3ad,g6n3un3k2r,"Deep vs Shallow",1,294,2020-07-08T14:59:09-07:00,10.383131980896,3,versionC_stim.csv,RLVersionC.csv,"Realational Version C","Relational, read only version C",CHILDREN,MIRROR,Study2,U,174,169,Test,User,-,,Recall,Recall2,9851,,0,-1,-1,0,0,,1
5e8d45d744061711c6b8e3ad,g6n3un3k2r,"Deep vs Shallow",1,295,2020-07-08T14:59:13-07:00,4.0881979465485,3,versionC_stim.csv,RLVersionC.csv,"Realational Version C","Relational, read only version C",CARBON,ELEMENT,Study2,S,141,165,Test,User,-,,Recall,Recall2,3503,Element,100,2706,3364,1,1,,1
5e8d45d744061711c6b8e3ad,g6n3un3k2r,"Deep vs Shallow",1,296,2020-07-08T14:59:39-07:00,25.313024044037,3,versionC_stim.csv,RLVersionC.csv,"Realational Version C","Relational, read only version C",SIGN,LOAN,Study2,U,171,157,Test,User,-,,Recall,Recall2,24781,,0,-1,-1,0,0,,1
5e8d45d744061711c6b8e3ad,g6n3un3k2r,"Deep vs Shallow",1,297,2020-07-08T14:59:42-07:00,2.7789618968964,3,versionC_stim.csv,RLVersionC.csv,"Realational Version C","Relational, read only version C",DRINK,WATER,Study2,S,143,133,Test,User,-,,Recall,Recall2,2188,Water,100,1056,1803,1,1,,1
5e8d45d744061711c6b8e3ad,g6n3un3k2r,"Deep vs Shallow",1,298,2020-07-08T14:59:45-07:00,3.1703860759735,3,versionC_stim.csv,RLVersionC.csv,"Realational Version C","Relational, read only version C",PANTHER,CAT,Study2,F,126,150,Test,User,-,,Recall,Recall2,2624,Cat,100,2029,2525,1,1,,1
5e8d45d744061711c6b8e3ad,g6n3un3k2r,"Deep vs Shallow",1,299,2020-07-08T14:59:58-07:00,12.899960041046,3,versionC_stim.csv,RLVersionC.csv,"Realational Version C","Relational, read only version C",AWAY,GONE,Study2,S,142,155,Test,User,-,,Recall,Recall2,12361,Here,25,7632,12286,0,0,,1
5e8d45d744061711c6b8e3ad,g6n3un3k2r,"Deep vs Shallow",1,300,2020-07-08T15:00:00-07:00,2.7032289505005,3,versionC_stim.csv,RLVersionC.csv,"Realational Version C","Relational, read only version C",STEAK,GIVE,Study2,U,158,102,Test,User,-,,Recall,Recall2,2168,Give,100,1630,2069,1,1,,1
5e8d45d744061711c6b8e3ad,g6n3un3k2r,"Deep vs Shallow",1,301,2020-07-08T15:00:04-07:00,3.2195749282837,3,versionC_stim.csv,RLVersionC.csv,"Realational Version C","Relational, read only version C",BRAWL,FIGHT,Study2,F,135,151,Test,User,-,,Recall,Recall2,2674,Fight,100,1275,2391,1,1,,1
5e8d45d744061711c6b8e3ad,g6n3un3k2r,"Deep vs Shallow",1,302,2020-07-08T15:00:13-07:00,9.4529061317444,3,versionC_stim.csv,RLVersionC.csv,"Realational Version C","Relational, read only version C",CUT,CHOP,Study2,B,107,130,Test,User,-,,Recall,Recall2,8913,Shears,20,1740,8837,0,0,,1
5e8d45d744061711c6b8e3ad,g6n3un3k2r,"Deep vs Shallow",1,303,2020-07-08T15:00:21-07:00,7.8487319946289,3,versionC_stim.csv,RLVersionC.csv,"Realational Version C","Relational, read only version C",LOVE,AFFECTION,Study2,B,115,145,Test,User,-,,Recall,Recall2,7312,Adore,28.571428571429,4628,7236,0,0,,1
5e8d45d744061711c6b8e3ad,g6n3un3k2r,"Deep vs Shallow",1,304,2020-07-08T15:00:25-07:00,4.4448890686035,3,versionC_stim.csv,RLVersionC.csv,"Realational Version C","Relational, read only version C",REEL,ROD,Study2,S,150,128,Test,User,-,,Recall,Recall2,3800,Fish,0,3009,3510,0,0,,1
5e8d45d744061711c6b8e3ad,g6n3un3k2r,"Deep vs Shallow",1,305,2020-07-08T15:00:29-07:00,3.5548079013824,3,versionC_stim.csv,RLVersionC.csv,"Realational Version C","Relational, read only version C",SCISSORS,SHEARS,Study2,B,112,123,Test,User,-,,Recall,Recall2,2962,Shears,100,1115,2872,1,1,,1
5e8d45d744061711c6b8e3ad,g6n3un3k2r,"Deep vs Shallow",1,306,2020-07-08T15:00:45-07:00,16.266708135605,3,versionC_stim.csv,RLVersionC.csv,"Realational Version C","Relational, read only version C",RED,CHERRY,Study2,B,104,120,Test,User,-,,Recall,Recall2,15712,,0,-1,-1,0,0,,1
5e8d45d744061711c6b8e3ad,g6n3un3k2r,"Deep vs Shallow",1,307,2020-07-08T15:00:51-07:00,5.6283559799194,3,versionC_stim.csv,RLVersionC.csv,"Realational Version C","Relational, read only version C",HAVE,OWN,Study2,S,153,158,Test,User,-,,Recall,Recall2,5034,"Possess ",20,3203,4529,0,0,,1
5e8d45d744061711c6b8e3ad,g6n3un3k2r,"Deep vs Shallow",1,308,2020-07-08T15:00:53-07:00,2.7761428356171,3,versionC_stim.csv,RLVersionC.csv,"Realational Version C","Relational, read only version C",LIE,TRUTH,Study2,S,148,160,Test,User,-,,Recall,Recall2,2255,Truth,100,1543,2049,1,1,,1
5e8d45d744061711c6b8e3ad,g6n3un3k2r,"Deep vs Shallow",1,309,2020-07-08T15:00:55-07:00,1.9522960186005,3,versionC_stim.csv,RLVersionC.csv,"Realational Version C","Relational, read only version C",AIRCRAFT,PLANE,Study2,F,129,154,Test,User,-,,Recall,Recall2,1490,Plane,100,952,1386,1,1,,1
5e8d45d744061711c6b8e3ad,g6n3un3k2r,"Deep vs Shallow",1,310,2020-07-08T15:00:59-07:00,3.5734040737152,3,versionC_stim.csv,RLVersionC.csv,"Realational Version C","Relational, read only version C",MYSTERY,DETECTIVE,Study2,B,100,156,Test,User,-,,Recall,Recall2,3040,Detective,100,1703,2959,1,1,,1
5e8d45d744061711c6b8e3ad,g6n3un3k2r,"Deep vs Shallow",1,311,2020-07-08T15:01:01-07:00,2.0907928943634,3,versionC_stim.csv,RLVersionC.csv,"Realational Version C","Relational, read only version C",WINDSHIELD,CAR,Study2,F,117,109,Test,User,-,,Recall,Recall2,1639,Car,100,1175,1587,1,1,,1
5e8d45d744061711c6b8e3ad,g6n3un3k2r,"Deep vs Shallow",1,312,2020-07-08T15:01:04-07:00,2.6424541473389,3,versionC_stim.csv,RLVersionC.csv,"Realational Version C","Relational, read only version C",TAN,SUN,Study2,S,155,152,Test,User,-,,Recall,Recall2,2103,Sun,100,1592,1939,1,1,,1
5e8d45d744061711c6b8e3ad,g6n3un3k2r,"Deep vs Shallow",1,313,2020-07-08T15:01:12-07:00,8.7169499397278,3,versionC_stim.csv,RLVersionC.csv,"Realational Version C","Relational, read only version C",LEAGUE,BASEBALL,Study2,F,131,114,Test,User,-,,Recall,Recall2,8176,,0,-1,-1,0,0,,1
5e8d45d744061711c6b8e3ad,g6n3un3k2r,"Deep vs Shallow",1,314,2020-07-08T15:01:20-07:00,7.2158470153809,3,versionC_stim.csv,RLVersionC.csv,"Realational Version C","Relational, read only version C",REVENGE,EVEN,Study2,F,122,161,Test,User,-,,Recall,Recall2,6675,Even,100,5741,6278,1,1,,1
5e8d45d744061711c6b8e3ad,g6n3un3k2r,"Deep vs Shallow",1,315,2020-07-08T15:01:35-07:00,15.699882030487,3,versionC_stim.csv,RLVersionC.csv,"Realational Version C","Relational, read only version C",PAPER,DOCUMENT,Study2,B,109,122,Test,User,-,,Recall,Recall2,15136,,0,-1,-1,0,0,,1
5e8d45d744061711c6b8e3ad,g6n3un3k2r,"Deep vs Shallow",1,316,2020-07-08T15:01:51-07:00,15.805377006531,3,versionC_stim.csv,RLVersionC.csv,"Realational Version C","Relational, read only version C",TOIL,LEASE,Study2,U,170,111,Test,User,-,,Recall,Recall2,14218,Leas,88.888888888889,8689,13997,0,1,,1
5e8d45d744061711c6b8e3ad,g6n3un3k2r,"Deep vs Shallow",1,317,2020-07-08T15:01:54-07:00,2.9941399097443,3,versionC_stim.csv,RLVersionC.csv,"Realational Version C","Relational, read only version C",DONKEY,MULE,Study2,B,108,98,Test,User,-,,Recall,Recall2,2441,Mule,100,1818,2351,1,1,,1
5e8d45d744061711c6b8e3ad,g6n3un3k2r,"Deep vs Shallow",1,318,2020-07-08T15:02:08-07:00,13.856225013733,3,versionC_stim.csv,RLVersionC.csv,"Realational Version C","Relational, read only version C",TRUTHFUL,HONEST,Study2,F,133,106,Test,User,-,,Recall,Recall2,13312,Lie,22.222222222222,7925,9058,0,0,,0.95
5e8d45d744061711c6b8e3ad,g6n3un3k2r,"Deep vs Shallow",1,319,2020-07-08T15:02:11-07:00,3.3396799564362,3,versionC_stim.csv,RLVersionC.csv,"Realational Version C","Relational, read only version C",VILLAIN,BAD,Study2,F,118,103,Test,User,-,,Recall,Recall2,2723,Bad,100,1472,2634,1,1,,1
5e8d45d744061711c6b8e3ad,g6n3un3k2r,"Deep vs Shallow",1,320,2020-07-08T15:02:15-07:00,3.8316111564636,3,versionC_stim.csv,RLVersionC.csv,"Realational Version C","Relational, read only version C",GROUND,EARTH,Study2,S,144,142,Test,User,-,,Recall,Recall2,3275,Floor,20,2317,2943,0,0,,1
5e8d45d744061711c6b8e3ad,g6n3un3k2r,"Deep vs Shallow",1,321,2020-07-08T15:02:18-07:00,2.9256489276886,3,versionC_stim.csv,RLVersionC.csv,"Realational Version C","Relational, read only version C",SEATBELT,SAFETY,Study2,S,147,140,Test,User,-,,Recall,Recall2,2375,Safety,100,1141,2232,1,1,,1
5e8d45d744061711c6b8e3ad,g6n3un3k2r,"Deep vs Shallow",1,322,2020-07-08T15:02:22-07:00,3.5948860645294,3,versionC_stim.csv,RLVersionC.csv,"Realational Version C","Relational, read only version C",OBTAIN,MEAT,Study2,U,161,144,Test,User,-,,Recall,Recall2,3055,Earn,50,2346,2842,0,0,,1
5e8d45d744061711c6b8e3ad,g6n3un3k2r,"Deep vs Shallow",1,323,2020-07-08T15:02:27-07:00,5.1873710155487,3,versionC_stim.csv,RLVersionC.csv,"Realational Version C","Relational, read only version C",TIE,SHOELACE,Study2,B,99,143,Test,User,-,,Recall,Recall2,4603,Shoelace,100,1872,4369,1,1,,1
5e8d45d744061711c6b8e3ad,g6n3un3k2r,"Deep vs Shallow",1,324,2020-07-08T15:02:34-07:00,6.9917898178101,3,versionC_stim.csv,RLVersionC.csv,"Realational Version C","Relational, read only version C",COMMUNICATION,PHONE,Study2,S,149,146,Test,User,-,,Recall,Recall2,6393,Phone,100,2185,5741,1,1,,1
5e8d45d744061711c6b8e3ad,g6n3un3k2r,"Deep vs Shallow",1,325,2020-07-08T15:02:38-07:00,4.0089671611786,3,versionC_stim.csv,RLVersionC.csv,"Realational Version C","Relational, read only version C",TEMPER,TANTRUM,Study2,S,154,167,Test,User,-,,Recall,Recall2,2430,Tantrum,100,922,2235,1,1,,1
5e8d45d744061711c6b8e3ad,g6n3un3k2r,"Deep vs Shallow",1,326,2020-07-08T15:02:48-07:00,9.8999059200287,3,versionC_stim.csv,RLVersionC.csv,"Realational Version C","Relational, read only version C",BRACELET,WRIST,Study2,S,140,115,Test,User,-,,Recall,Recall2,9346,Car,25,7577,8063,0,0,,1
5e8d45d744061711c6b8e3ad,g6n3un3k2r,"Deep vs Shallow",1,327,2020-07-08T15:02:54-07:00,6.0550720691681,3,versionC_stim.csv,RLVersionC.csv,"Realational Version C","Relational, read only version C",OUNCE,BOTH,Study2,U,172,138,Test,User,-,,Recall,Recall2,5502,Two,28.571428571429,3610,5077,0,0,,1
5e8d45d744061711c6b8e3ad,g6n3un3k2r,"Deep vs Shallow",1,328,2020-07-08T15:03:14-07:00,19.661753892899,3,versionC_stim.csv,RLVersionC.csv,"Realational Version C","Relational, read only version C",MAROON,JUSTICE,Study2,U,156,135,Test,User,-,,Recall,Recall2,19126,Justice,100,18038,19032,1,1,,1
5e8d45d744061711c6b8e3ad,g6n3un3k2r,"Deep vs Shallow",1,329,2020-07-08T15:03:17-07:00,3.7779240608215,3,versionC_stim.csv,RLVersionC.csv,"Realational Version C","Relational, read only version C",FAVORITE,BEST,Study2,F,125,119,Test,User,-,,Recall,Recall2,3186,Best,100,2515,3105,1,1,,1
5e8d45d744061711c6b8e3ad,g6n3un3k2r,"Deep vs Shallow",1,330,2020-07-08T15:03:23-07:00,5.8193800449371,3,versionC_stim.csv,RLVersionC.csv,"Realational Version C","Relational, read only version C",LONG,EXTENSION,Study2,B,96,124,Test,User,-,,Recall,Recall2,5280,Extend,66.666666666667,4061,5140,0,0,,1
5e8d45d744061711c6b8e3ad,g6n3un3k2r,"Deep vs Shallow",1,331,2020-07-08T15:03:25-07:00,2.0071699619293,3,versionC_stim.csv,RLVersionC.csv,"Realational Version C","Relational, read only version C",BALLOON,POP,Study2,F,123,171,Test,User,-,,Recall,Recall2,1562,Pop,100,1063,1423,1,1,,1
5e8d45d744061711c6b8e3ad,g6n3un3k2r,"Deep vs Shallow",1,332,2020-07-08T15:03:27-07:00,2.1075608730316,3,versionC_stim.csv,RLVersionC.csv,"Realational Version C","Relational, read only version C",COFFIN,DEAD,Study2,F,128,97,Test,User,-,,Recall,Recall2,1646,Dead,100,954,1548,1,1,,1
5e8d45d744061711c6b8e3ad,g6n3un3k2r,"Deep vs Shallow",1,333,2020-07-08T15:03:31-07:00,4.1479160785675,3,versionC_stim.csv,RLVersionC.csv,"Realational Version C","Relational, read only version C",FLIP,TURN,Study2,F,116,110,Test,User,-,,Recall,Recall2,3607,Turn,100,3004,3403,1,1,,1
5e8d45d744061711c6b8e3ad,g6n3un3k2r,"Deep vs Shallow",1,334,2020-07-08T15:03:37-07:00,5.9915339946747,3,versionC_stim.csv,RLVersionC.csv,"Realational Version C","Relational, read only version C",CAR,DRIVER,Study2,B,106,168,Test,User,-,,Recall,Recall2,5449,Windshield,25,2789,5266,0,0,,1
5e8d45d744061711c6b8e3ad,g6n3un3k2r,"Deep vs Shallow",1,335,2020-07-08T15:03:44-07:00,6.2552630901337,3,versionC_stim.csv,RLVersionC.csv,"Realational Version C","Relational, read only version C",SHAKE,Shell,Study2,U,163,147,Test,User,-,,Recall,Recall2,5680,,0,-1,-1,0,0,,1
5e8d45d744061711c6b8e3ad,g6n3un3k2r,"Deep vs Shallow",1,336,2020-07-08T15:03:46-07:00,2.6819779872894,3,versionC_stim.csv,RLVersionC.csv,"Realational Version C","Relational, read only version C",SHAVE,RAZOR,Study2,S,136,129,Test,User,-,,Recall,Recall2,2129,Razor,100,1207,1888,1,1,,1
5e8d45d744061711c6b8e3ad,g6n3un3k2r,"Deep vs Shallow",1,337,2020-07-08T15:03:50-07:00,3.8261258602142,3,versionC_stim.csv,RLVersionC.csv,"Realational Version C","Relational, read only version C",STRAWBERRY,FRUIT,Study2,F,124,163,Test,User,-,,Recall,Recall2,3274,Fruit,100,1731,2413,1,1,,1
5e8d45d744061711c6b8e3ad,g6n3un3k2r,"Deep vs Shallow",1,338,2020-07-08T15:03:56-07:00,6.2897021770477,3,versionC_stim.csv,RLVersionC.csv,"Realational Version C","Relational, read only version C",JOKE,KEYS,Study2,U,165,164,Test,User,-,,Recall,Recall2,4746,Key,85.714285714286,1991,3470,0,1,,1
5e8d45d744061711c6b8e3ad,g6n3un3k2r,"Deep vs Shallow",1,339,2020-07-08T15:04:03-07:00,6.1156849861145,3,versionC_stim.csv,RLVersionC.csv,"Realational Version C","Relational, read only version C",TRASH,LITTER,Study2,B,103,149,Test,User,-,,Recall,Recall2,5522,Litter,100,2413,5446,1,1,,1
5e8d45d744061711c6b8e3ad,g6n3un3k2r,"Deep vs Shallow",1,340,2020-07-08T15:04:06-07:00,3.517030954361,3,versionC_stim.csv,RLVersionC.csv,"Realational Version C","Relational, read only version C",HATE,NAME,Study2,U,167,101,Test,User,-,,Recall,Recall2,1949,Name,100,1488,1845,1,1,,1
5e8d45d744061711c6b8e3ad,g6n3un3k2r,"Deep vs Shallow",1,341,2020-07-08T15:04:10-07:00,4.2705109119415,3,versionC_stim.csv,RLVersionC.csv,"Realational Version C","Relational, read only version C",HEAD,SCALP,Study2,B,105,134,Test,User,-,,Recall,Recall2,3730,Toe,0,3354,3594,0,0,,1
5e8d45d744061711c6b8e3ad,g6n3un3k2r,"Deep vs Shallow",1,342,2020-07-08T15:04:17-07:00,6.3213770389557,3,versionC_stim.csv,RLVersionC.csv,"Realational Version C","Relational, read only version C",END,ADJOURN,Study2,B,101,118,Test,User,-,,Recall,Recall2,5762,Finish,15.384615384615,2083,5506,0,0,,1
5e8d45d744061711c6b8e3ad,g6n3un3k2r,"Deep vs Shallow",1,343,2020-07-08T15:04:28-07:00,11.099695920944,3,versionC_stim.csv,RLVersionC.csv,"Realational Version C","Relational, read only version C",FICTION,LISTEN,Study2,U,164,148,Test,User,-,,Recall,Recall2,10525,Vision,50,5687,6513,0,0,,1
5e8d45d744061711c6b8e3ad,g6n3un3k2r,"Deep vs Shallow",1,344,2020-07-08T15:04:34-07:00,6.2013189792633,3,versionC_stim.csv,RLVersionC.csv,"Realational Version C","Relational, read only version C",SMELL,INCENSE,Study2,B,110,105,Test,User,-,,Recall,Recall2,5606,,0,-1,-1,0,0,,1
5e8d45d744061711c6b8e3ad,g6n3un3k2r,"Deep vs Shallow",1,345,2020-07-08T15:04:39-07:00,4.981831073761,3,versionC_stim.csv,RLVersionC.csv,"Realational Version C","Relational, read only version C",SCAR,MAIN,Study2,U,175,99,Test,User,-,,Recall,Recall2,4459,Main,100,3696,4164,1,1,,1
5e8d45d744061711c6b8e3ad,g6n3un3k2r,"Deep vs Shallow",1,346,2020-07-08T15:04:44-07:00,5.0197579860687,3,versionC_stim.csv,RLVersionC.csv,"Realational Version C","Relational, read only version C",ELECTION,MAZE,Study2,U,159,127,Test,User,-,,Recall,Recall2,4471,,0,-1,-1,0,0,,1
