Username,ID,ExperimentName,Session,Trial,Date,TimeDif,"Condition Number","Stimuli File","Order File","Condition Description","Condition Notes",Stimuli*Cue,Stimuli*Answer,Stimuli*Shuffle,"Stimuli*Stimuli Notes",Stimuli*Value,Procedure*Item,"Procedure*Trial Type","Procedure*Max Time","Procedure*Min Time",Procedure*Text,"Procedure*Procedure Notes",Procedure*Shuffle,Response*RT,Response*Response,Response*Accuracy,Response*RTfirst,Response*RTlast,Response*strictAcc,Response*lenientAcc,Response*focus,Response*Focus
5e650e7afc8a902839459455,wk67mioorl,"Deep vs Shallow",1,1,2020-07-08T14:19:35-07:00,15.425901889801,2,versionA_stim.csv,RLVersionB.csv,"Relational Version B","Relational, read only version B",,,,,,0,Instruct,-,10,"In this section, you will be presented with a series of word pairs. Please study both items in the pair.",,Instruct13,15074,,,-1,-1,,,,0.737
5e650e7afc8a902839459455,wk67mioorl,"Deep vs Shallow",1,2,2020-07-08T14:21:32-07:00,117.11434912682,2,versionA_stim.csv,RLVersionB.csv,"Relational Version B","Relational, read only version B",,,,,,0,Instruct,-,15,"As you study, please think about how the two concepts are RELATED to each other. For example, if you see the pair TURTLE-CAT, think about how both are alive, they are both animals, and both can be kept as pets.",,Instruct19,116655,,,-1,-1,,,,0.201
5e650e7afc8a902839459455,wk67mioorl,"Deep vs Shallow",1,3,2020-07-08T14:21:45-07:00,12.411478042603,2,versionA_stim.csv,RLVersionB.csv,"Relational Version B","Relational, read only version B",,,,,,0,FreeRecall,-,10,"What you should think about as you study each item pair? Type your response in the box below.",,CHECK1,11935,"Association between the two items",0,4095,8781,0,0,,1
5e650e7afc8a902839459455,wk67mioorl,"Deep vs Shallow",1,4,2020-07-08T14:21:53-07:00,7.8561589717865,2,versionA_stim.csv,RLVersionB.csv,"Relational Version B","Relational, read only version B",,,,,,0,Instruct,User,-,"You will now begin the experiment. Press ENTER when you are ready to begin.",,Instruct000,6467,,,-1,-1,,,,0.92
5e650e7afc8a902839459455,wk67mioorl,"Deep vs Shallow",1,5,2020-07-08T14:21:56-07:00,3.5299489498138,2,versionA_stim.csv,RLVersionB.csv,"Relational Version B","Relational, read only version B",NOODLE,STRING,BUFFER3,Buffer,92,94,Study,User,-,,Study/JOL,BUFFER,3135,,,-1,-1,,,,1
5e650e7afc8a902839459455,wk67mioorl,"Deep vs Shallow",1,6,2020-07-08T14:21:58-07:00,1.9709410667419,2,versionA_stim.csv,RLVersionB.csv,"Relational Version B","Relational, read only version B",CAMP,ADVENTURE,BUFFER3,Buffer,95,92,Study,User,-,,Study/JOL,BUFFER,1559,,,-1,-1,,,,1
5e650e7afc8a902839459455,wk67mioorl,"Deep vs Shallow",1,7,2020-07-08T14:21:59-07:00,1.0260908603668,2,versionA_stim.csv,RLVersionB.csv,"Relational Version B","Relational, read only version B",ICE,FROZEN,BUFFER3,Buffer,94,93,Study,User,-,,Study/JOL,BUFFER,658,,,-1,-1,,,,1
5e650e7afc8a902839459455,wk67mioorl,"Deep vs Shallow",1,8,2020-07-08T14:22:01-07:00,1.2798960208893,2,versionA_stim.csv,RLVersionB.csv,"Relational Version B","Relational, read only version B",SHRIMP,FISH,BUFFER3,Buffer,93,96,Study,User,-,,Study/JOL,BUFFER,903,,,-1,-1,,,,1
5e650e7afc8a902839459455,wk67mioorl,"Deep vs Shallow",1,9,2020-07-08T14:22:02-07:00,1.7312531471252,2,versionA_stim.csv,RLVersionB.csv,"Relational Version B","Relational, read only version B",CARROT,POTATO,BUFFER3,Buffer,91,95,Study,User,-,,Study/JOL,BUFFER,1349,,,-1,-1,,,,1
5e650e7afc8a902839459455,wk67mioorl,"Deep vs Shallow",1,10,2020-07-08T14:22:04-07:00,2.1767909526825,2,versionA_stim.csv,RLVersionB.csv,"Relational Version B","Relational, read only version B",MONEY,BANKER,Study2,B,132,140,Study,User,-,,Study/JOL,"Study Phase",798,,,-1,-1,,,,1
5e650e7afc8a902839459455,wk67mioorl,"Deep vs Shallow",1,11,2020-07-08T14:22:06-07:00,1.875128030777,2,versionA_stim.csv,RLVersionB.csv,"Relational Version B","Relational, read only version B",MAZE,ELECTION,Study2,U,159,148,Study,User,-,,Study/JOL,"Study Phase",1482,,,-1,-1,,,,1
5e650e7afc8a902839459455,wk67mioorl,"Deep vs Shallow",1,12,2020-07-08T14:22:09-07:00,2.5923619270325,2,versionA_stim.csv,RLVersionB.csv,"Relational Version B","Relational, read only version B",BOTH,OUNCE,Study2,U,172,162,Study,User,-,,Study/JOL,"Study Phase",1214,,,-1,-1,,,,1
5e650e7afc8a902839459455,wk67mioorl,"Deep vs Shallow",1,13,2020-07-08T14:22:12-07:00,2.6011829376221,2,versionA_stim.csv,RLVersionB.csv,"Relational Version B","Relational, read only version B",TEMPERATURE,Morning,Study2,U,173,120,Study,User,-,,Study/JOL,"Study Phase",1227,,,-1,-1,,,,1
5e650e7afc8a902839459455,wk67mioorl,"Deep vs Shallow",1,14,2020-07-08T14:22:13-07:00,1.4666121006012,2,versionA_stim.csv,RLVersionB.csv,"Relational Version B","Relational, read only version B",SHOELACE,TIE,Study2,F,99,124,Study,User,-,,Study/JOL,"Study Phase",1083,,,-1,-1,,,,1
5e650e7afc8a902839459455,wk67mioorl,"Deep vs Shallow",1,15,2020-07-08T14:22:15-07:00,2.3514020442963,2,versionA_stim.csv,RLVersionB.csv,"Relational Version B","Relational, read only version B",STRETCH,CLOTH,Study2,U,157,175,Study,User,-,,Study/JOL,"Study Phase",976,,,-1,-1,,,,1
5e650e7afc8a902839459455,wk67mioorl,"Deep vs Shallow",1,16,2020-07-08T14:22:18-07:00,2.7906517982483,2,versionA_stim.csv,RLVersionB.csv,"Relational Version B","Relational, read only version B",RIGHTS,EQUAL,Study2,S,137,160,Study,User,-,,Study/JOL,"Study Phase",2335,,,-1,-1,,,,1
5e650e7afc8a902839459455,wk67mioorl,"Deep vs Shallow",1,17,2020-07-08T14:22:20-07:00,2.2688570022583,2,versionA_stim.csv,RLVersionB.csv,"Relational Version B","Relational, read only version B",CRACKLE,ABLE,Study2,U,162,107,Study,User,-,,Study/JOL,"Study Phase",1808,,,-1,-1,,,,1
5e650e7afc8a902839459455,wk67mioorl,"Deep vs Shallow",1,18,2020-07-08T14:22:22-07:00,2.0607481002808,2,versionA_stim.csv,RLVersionB.csv,"Relational Version B","Relational, read only version B",EARTH,GROUND,Study2,S,144,131,Study,User,-,,Study/JOL,"Study Phase",1621,,,-1,-1,,,,1
5e650e7afc8a902839459455,wk67mioorl,"Deep vs Shallow",1,19,2020-07-08T14:22:24-07:00,1.3466401100159,2,versionA_stim.csv,RLVersionB.csv,"Relational Version B","Relational, read only version B",GONE,AWAY,Study2,S,142,169,Study,User,-,,Study/JOL,"Study Phase",958,,,-1,-1,,,,1
5e650e7afc8a902839459455,wk67mioorl,"Deep vs Shallow",1,20,2020-07-08T14:22:25-07:00,1.4168679714203,2,versionA_stim.csv,RLVersionB.csv,"Relational Version B","Relational, read only version B",PHONE,COMMUNICATION,Study2,S,149,110,Study,User,-,,Study/JOL,"Study Phase",1046,,,-1,-1,,,,1
5e650e7afc8a902839459455,wk67mioorl,"Deep vs Shallow",1,21,2020-07-08T14:22:26-07:00,1.241623878479,2,versionA_stim.csv,RLVersionB.csv,"Relational Version B","Relational, read only version B",MOAT,CLEAR,Study2,U,169,174,Study,User,-,,Study/JOL,"Study Phase",870,,,-1,-1,,,,1
5e650e7afc8a902839459455,wk67mioorl,"Deep vs Shallow",1,22,2020-07-08T14:22:29-07:00,2.0392119884491,2,versionA_stim.csv,RLVersionB.csv,"Relational Version B","Relational, read only version B",BAD,VILLAIN,Study2,B,118,165,Study,User,-,,Study/JOL,"Study Phase",1660,,,-1,-1,,,,1
5e650e7afc8a902839459455,wk67mioorl,"Deep vs Shallow",1,23,2020-07-08T14:22:31-07:00,2.3290021419525,2,versionA_stim.csv,RLVersionB.csv,"Relational Version B","Relational, read only version B",Shell,SHAKE,Study2,U,163,117,Study,User,-,,Study/JOL,"Study Phase",1932,,,-1,-1,,,,1
5e650e7afc8a902839459455,wk67mioorl,"Deep vs Shallow",1,24,2020-07-08T14:22:32-07:00,1.354309797287,2,versionA_stim.csv,RLVersionB.csv,"Relational Version B","Relational, read only version B",FEUD,FIGHT,Study2,F,113,135,Study,User,-,,Study/JOL,"Study Phase",972,,,-1,-1,,,,1
5e650e7afc8a902839459455,wk67mioorl,"Deep vs Shallow",1,25,2020-07-08T14:22:33-07:00,0.98749017715454,2,versionA_stim.csv,RLVersionB.csv,"Relational Version B","Relational, read only version B",MIRROR,CHILDREN,Study2,U,174,132,Study,User,-,,Study/JOL,"Study Phase",627,,,-1,-1,,,,1
5e650e7afc8a902839459455,wk67mioorl,"Deep vs Shallow",1,26,2020-07-08T14:22:34-07:00,1.1244869232178,2,versionA_stim.csv,RLVersionB.csv,"Relational Version B","Relational, read only version B",MASON,JAR,Study2,S,138,171,Study,User,-,,Study/JOL,"Study Phase",754,,,-1,-1,,,,1
5e650e7afc8a902839459455,wk67mioorl,"Deep vs Shallow",1,27,2020-07-08T14:22:36-07:00,1.3469340801239,2,versionA_stim.csv,RLVersionB.csv,"Relational Version B","Relational, read only version B",SUN,TAN,Study2,S,155,138,Study,User,-,,Study/JOL,"Study Phase",973,,,-1,-1,,,,1
5e650e7afc8a902839459455,wk67mioorl,"Deep vs Shallow",1,28,2020-07-08T14:22:38-07:00,2.3778698444366,2,versionA_stim.csv,RLVersionB.csv,"Relational Version B","Relational, read only version B",DINE,EAT,Study2,F,111,139,Study,User,-,,Study/JOL,"Study Phase",2000,,,-1,-1,,,,1
5e650e7afc8a902839459455,wk67mioorl,"Deep vs Shallow",1,29,2020-07-08T14:22:40-07:00,1.5015640258789,2,versionA_stim.csv,RLVersionB.csv,"Relational Version B","Relational, read only version B",LEASE,TOIL,Study2,U,170,151,Study,User,-,,Study/JOL,"Study Phase",1106,,,-1,-1,,,,1
5e650e7afc8a902839459455,wk67mioorl,"Deep vs Shallow",1,30,2020-07-08T14:23:15-07:00,35.726181030273,2,versionA_stim.csv,RLVersionB.csv,"Relational Version B","Relational, read only version B",CHOP,CUT,Study2,F,107,157,Study,User,-,,Study/JOL,"Study Phase",35227,,,-1,-1,,,,1
5e650e7afc8a902839459455,wk67mioorl,"Deep vs Shallow",1,31,2020-07-08T14:23:16-07:00,1.1807630062103,2,versionA_stim.csv,RLVersionB.csv,"Relational Version B","Relational, read only version B",PLANE,AIRCRAFT,Study2,B,129,159,Study,User,-,,Study/JOL,"Study Phase",474,,,-1,-1,,,,1
5e650e7afc8a902839459455,wk67mioorl,"Deep vs Shallow",1,32,2020-07-08T14:23:17-07:00,0.76662611961365,2,versionA_stim.csv,RLVersionB.csv,"Relational Version B","Relational, read only version B",FIGHT,BRAWL,Study2,B,135,166,Study,User,-,,Study/JOL,"Study Phase",416,,,-1,-1,,,,1
5e650e7afc8a902839459455,wk67mioorl,"Deep vs Shallow",1,33,2020-07-08T14:23:18-07:00,0.69032001495361,2,versionA_stim.csv,RLVersionB.csv,"Relational Version B","Relational, read only version B",MULE,DONKEY,Study2,F,108,154,Study,User,-,,Study/JOL,"Study Phase",334,,,-1,-1,,,,1
5e650e7afc8a902839459455,wk67mioorl,"Deep vs Shallow",1,34,2020-07-08T14:23:19-07:00,0.62187099456787,2,versionA_stim.csv,RLVersionB.csv,"Relational Version B","Relational, read only version B",OWN,HAVE,Study2,S,153,143,Study,User,-,,Study/JOL,"Study Phase",259,,,-1,-1,,,,1
5e650e7afc8a902839459455,wk67mioorl,"Deep vs Shallow",1,35,2020-07-08T14:23:19-07:00,0.68513488769531,2,versionA_stim.csv,RLVersionB.csv,"Relational Version B","Relational, read only version B",POP,BALLOON,Study2,B,123,122,Study,User,-,,Study/JOL,"Study Phase",332,,,-1,-1,,,,1
5e650e7afc8a902839459455,wk67mioorl,"Deep vs Shallow",1,36,2020-07-08T14:23:20-07:00,0.66191291809082,2,versionA_stim.csv,RLVersionB.csv,"Relational Version B","Relational, read only version B",SHEARS,SCISSORS,Study2,F,112,146,Study,User,-,,Study/JOL,"Study Phase",313,,,-1,-1,,,,1
5e650e7afc8a902839459455,wk67mioorl,"Deep vs Shallow",1,37,2020-07-08T14:23:21-07:00,0.72585916519165,2,versionA_stim.csv,RLVersionB.csv,"Relational Version B","Relational, read only version B",LOUD,NOISE,Study2,S,152,115,Study,User,-,,Study/JOL,"Study Phase",366,,,-1,-1,,,,1
5e650e7afc8a902839459455,wk67mioorl,"Deep vs Shallow",1,38,2020-07-08T14:23:21-07:00,0.69551086425781,2,versionA_stim.csv,RLVersionB.csv,"Relational Version B","Relational, read only version B",CLUE,GAME,Study2,F,97,98,Study,User,-,,Study/JOL,"Study Phase",337,,,-1,-1,,,,1
5e650e7afc8a902839459455,wk67mioorl,"Deep vs Shallow",1,39,2020-07-08T14:23:22-07:00,0.70757007598877,2,versionA_stim.csv,RLVersionB.csv,"Relational Version B","Relational, read only version B",ALONE,LONELY,Study2,S,145,128,Study,User,-,,Study/JOL,"Study Phase",354,,,-1,-1,,,,1
5e650e7afc8a902839459455,wk67mioorl,"Deep vs Shallow",1,40,2020-07-08T14:23:23-07:00,0.70446491241455,2,versionA_stim.csv,RLVersionB.csv,"Relational Version B","Relational, read only version B",DETECTIVE,MYSTERY,Study2,F,100,158,Study,User,-,,Study/JOL,"Study Phase",352,,,-1,-1,,,,1
5e650e7afc8a902839459455,wk67mioorl,"Deep vs Shallow",1,41,2020-07-08T14:23:44-07:00,21.772145032883,2,versionA_stim.csv,RLVersionB.csv,"Relational Version B","Relational, read only version B",TANTRUM,TEMPER,Study2,S,154,106,Study,User,-,,Study/JOL,"Study Phase",21306,,,-1,-1,,,,0.619
5e650e7afc8a902839459455,wk67mioorl,"Deep vs Shallow",1,42,2020-07-08T14:23:45-07:00,0.80808305740356,2,versionA_stim.csv,RLVersionB.csv,"Relational Version B","Relational, read only version B",DRY,WET,Study2,S,146,142,Study,User,-,,Study/JOL,"Study Phase",398,,,-1,-1,,,,1
5e650e7afc8a902839459455,wk67mioorl,"Deep vs Shallow",1,43,2020-07-08T14:23:46-07:00,0.74447703361511,2,versionA_stim.csv,RLVersionB.csv,"Relational Version B","Relational, read only version B",INCENSE,SMELL,Study2,F,110,112,Study,User,-,,Study/JOL,"Study Phase",369,,,-1,-1,,,,1
5e650e7afc8a902839459455,wk67mioorl,"Deep vs Shallow",1,44,2020-07-08T14:23:50-07:00,3.9101469516754,2,versionA_stim.csv,RLVersionB.csv,"Relational Version B","Relational, read only version B",,,,,,0,Instruct,-,3,"Remember to focus on how the two items are similiar while you study!",,CHECK2,3542,,,-1,-1,,,,1
5e650e7afc8a902839459455,wk67mioorl,"Deep vs Shallow",1,45,2020-07-08T14:23:51-07:00,1.3145830631256,2,versionA_stim.csv,RLVersionB.csv,"Relational Version B","Relational, read only version B",FUZZY,BANG,Study2,U,168,176,Study,User,-,,Study/JOL,"Study Phase",937,,,-1,-1,,,,1
5e650e7afc8a902839459455,wk67mioorl,"Deep vs Shallow",1,46,2020-07-08T14:23:52-07:00,0.85503697395325,2,versionA_stim.csv,RLVersionB.csv,"Relational Version B","Relational, read only version B",FLEA,TICK,Study2,S,151,173,Study,User,-,,Study/JOL,"Study Phase",493,,,-1,-1,,,,1
5e650e7afc8a902839459455,wk67mioorl,"Deep vs Shallow",1,47,2020-07-08T14:23:53-07:00,1.2271249294281,2,versionA_stim.csv,RLVersionB.csv,"Relational Version B","Relational, read only version B",FRUIT,STRAWBERRY,Study2,B,124,133,Study,User,-,,Study/JOL,"Study Phase",863,,,-1,-1,,,,1
5e650e7afc8a902839459455,wk67mioorl,"Deep vs Shallow",1,48,2020-07-08T14:24:10-07:00,16.252083063126,2,versionA_stim.csv,RLVersionB.csv,"Relational Version B","Relational, read only version B",SCALP,HEAD,Study2,F,105,130,Study,User,-,,Study/JOL,"Study Phase",15788,,,-1,-1,,,,0.703
5e650e7afc8a902839459455,wk67mioorl,"Deep vs Shallow",1,49,2020-07-08T14:24:11-07:00,1.4085988998413,2,versionA_stim.csv,RLVersionB.csv,"Relational Version B","Relational, read only version B",MAIN,SCAR,Study2,U,175,149,Study,User,-,,Study/JOL,"Study Phase",1044,,,-1,-1,,,,1
5e650e7afc8a902839459455,wk67mioorl,"Deep vs Shallow",1,50,2020-07-08T14:24:12-07:00,1.0621020793915,2,versionA_stim.csv,RLVersionB.csv,"Relational Version B","Relational, read only version B",DEAD,COFFIN,Study2,B,128,161,Study,User,-,,Study/JOL,"Study Phase",683,,,-1,-1,,,,1
5e650e7afc8a902839459455,wk67mioorl,"Deep vs Shallow",1,51,2020-07-08T14:24:14-07:00,1.700541973114,2,versionA_stim.csv,RLVersionB.csv,"Relational Version B","Relational, read only version B",BEST,FAVORITE,Study2,B,125,99,Study,User,-,,Study/JOL,"Study Phase",1325,,,-1,-1,,,,1
5e650e7afc8a902839459455,wk67mioorl,"Deep vs Shallow",1,52,2020-07-08T14:24:15-07:00,1.3301250934601,2,versionA_stim.csv,RLVersionB.csv,"Relational Version B","Relational, read only version B",DOCUMENT,PAPER,Study2,F,109,111,Study,User,-,,Study/JOL,"Study Phase",938,,,-1,-1,,,,1
5e650e7afc8a902839459455,wk67mioorl,"Deep vs Shallow",1,53,2020-07-08T14:24:16-07:00,1.0992448329926,2,versionA_stim.csv,RLVersionB.csv,"Relational Version B","Relational, read only version B",THREAD,THIMBLE,Study2,B,121,129,Study,User,-,,Study/JOL,"Study Phase",732,,,-1,-1,,,,1
5e650e7afc8a902839459455,wk67mioorl,"Deep vs Shallow",1,54,2020-07-08T14:24:43-07:00,26.733114004135,2,versionA_stim.csv,RLVersionB.csv,"Relational Version B","Relational, read only version B",VEHICLE,CHARM,Study2,U,160,97,Study,User,-,,Study/JOL,"Study Phase",26279,,,-1,-1,,,,0.129
5e650e7afc8a902839459455,wk67mioorl,"Deep vs Shallow",1,55,2020-07-08T14:24:44-07:00,1.1509511470795,2,versionA_stim.csv,RLVersionB.csv,"Relational Version B","Relational, read only version B",GLASS,BREAKABLE,Study2,B,127,104,Study,User,-,,Study/JOL,"Study Phase",759,,,-1,-1,,,,1
5e650e7afc8a902839459455,wk67mioorl,"Deep vs Shallow",1,56,2020-07-08T14:25:12-07:00,27.466570854187,2,versionA_stim.csv,RLVersionB.csv,"Relational Version B","Relational, read only version B",SAFETY,SEATBELT,Study2,S,147,126,Study,User,-,,Study/JOL,"Study Phase",27013,,,-1,-1,,,,0.081
5e650e7afc8a902839459455,wk67mioorl,"Deep vs Shallow",1,57,2020-07-08T14:25:12-07:00,0.869469165802,2,versionA_stim.csv,RLVersionB.csv,"Relational Version B","Relational, read only version B",KEYS,JOKE,Study2,U,165,136,Study,User,-,,Study/JOL,"Study Phase",462,,,-1,-1,,,,1
5e650e7afc8a902839459455,wk67mioorl,"Deep vs Shallow",1,58,2020-07-08T14:25:13-07:00,0.71313500404358,2,versionA_stim.csv,RLVersionB.csv,"Relational Version B","Relational, read only version B",FURRY,DOG,Study2,F,102,172,Study,User,-,,Study/JOL,"Study Phase",350,,,-1,-1,,,,1
5e650e7afc8a902839459455,wk67mioorl,"Deep vs Shallow",1,59,2020-07-08T14:25:17-07:00,4.2226028442383,2,versionA_stim.csv,RLVersionB.csv,"Relational Version B","Relational, read only version B",FISH,SARDINE,Study2,B,130,145,Study,User,-,,Study/JOL,"Study Phase",3859,,,-1,-1,,,,1
5e650e7afc8a902839459455,wk67mioorl,"Deep vs Shallow",1,60,2020-07-08T14:25:20-07:00,3.0412089824677,2,versionA_stim.csv,RLVersionB.csv,"Relational Version B","Relational, read only version B",ROD,REEL,Study2,S,150,164,Study,User,-,,Study/JOL,"Study Phase",2646,,,-1,-1,,,,1
5e650e7afc8a902839459455,wk67mioorl,"Deep vs Shallow",1,61,2020-07-08T14:25:21-07:00,0.81932497024536,2,versionA_stim.csv,RLVersionB.csv,"Relational Version B","Relational, read only version B",LITTER,TRASH,Study2,F,103,144,Study,User,-,,Study/JOL,"Study Phase",421,,,-1,-1,,,,1
5e650e7afc8a902839459455,wk67mioorl,"Deep vs Shallow",1,62,2020-07-08T14:25:23-07:00,1.914213180542,2,versionA_stim.csv,RLVersionB.csv,"Relational Version B","Relational, read only version B",SLEEP,NAP,Study2,B,134,100,Study,User,-,,Study/JOL,"Study Phase",1543,,,-1,-1,,,,1
5e650e7afc8a902839459455,wk67mioorl,"Deep vs Shallow",1,63,2020-07-08T14:25:24-07:00,1.2971498966217,2,versionA_stim.csv,RLVersionB.csv,"Relational Version B","Relational, read only version B",EVEN,REVENGE,Study2,B,122,103,Study,User,-,,Study/JOL,"Study Phase",913,,,-1,-1,,,,1
5e650e7afc8a902839459455,wk67mioorl,"Deep vs Shallow",1,64,2020-07-08T14:25:26-07:00,1.140634059906,2,versionA_stim.csv,RLVersionB.csv,"Relational Version B","Relational, read only version B",HONEST,TRUTHFUL,Study2,B,133,116,Study,User,-,,Study/JOL,"Study Phase",767,,,-1,-1,,,,1
5e650e7afc8a902839459455,wk67mioorl,"Deep vs Shallow",1,65,2020-07-08T14:25:26-07:00,0.69398903846741,2,versionA_stim.csv,RLVersionB.csv,"Relational Version B","Relational, read only version B",MEAT,OBTAIN,Study2,U,161,102,Study,User,-,,Study/JOL,"Study Phase",325,,,-1,-1,,,,1
5e650e7afc8a902839459455,wk67mioorl,"Deep vs Shallow",1,66,2020-07-08T14:25:27-07:00,0.72992300987244,2,versionA_stim.csv,RLVersionB.csv,"Relational Version B","Relational, read only version B",WATER,DRINK,Study2,S,143,118,Study,User,-,,Study/JOL,"Study Phase",368,,,-1,-1,,,,1
5e650e7afc8a902839459455,wk67mioorl,"Deep vs Shallow",1,67,2020-07-08T14:25:28-07:00,0.77979302406311,2,versionA_stim.csv,RLVersionB.csv,"Relational Version B","Relational, read only version B",RAZOR,SHAVE,Study2,S,136,150,Study,User,-,,Study/JOL,"Study Phase",407,,,-1,-1,,,,1
5e650e7afc8a902839459455,wk67mioorl,"Deep vs Shallow",1,68,2020-07-08T14:25:29-07:00,0.95275783538818,2,versionA_stim.csv,RLVersionB.csv,"Relational Version B","Relational, read only version B",CHERRY,RED,Study2,F,104,114,Study,User,-,,Study/JOL,"Study Phase",585,,,-1,-1,,,,1
5e650e7afc8a902839459455,wk67mioorl,"Deep vs Shallow",1,69,2020-07-08T14:25:30-07:00,0.833083152771,2,versionA_stim.csv,RLVersionB.csv,"Relational Version B","Relational, read only version B",NAME,HATE,Study2,U,167,156,Study,User,-,,Study/JOL,"Study Phase",465,,,-1,-1,,,,1
5e650e7afc8a902839459455,wk67mioorl,"Deep vs Shallow",1,70,2020-07-08T14:25:32-07:00,2.0742158889771,2,versionA_stim.csv,RLVersionB.csv,"Relational Version B","Relational, read only version B",DRIVER,CAR,Study2,F,106,141,Study,User,-,,Study/JOL,"Study Phase",1092,,,-1,-1,,,,1
5e650e7afc8a902839459455,wk67mioorl,"Deep vs Shallow",1,71,2020-07-08T14:25:36-07:00,3.8966851234436,2,versionA_stim.csv,RLVersionB.csv,"Relational Version B","Relational, read only version B",BASEBALL,LEAGUE,Study2,B,131,123,Study,User,-,,Study/JOL,"Study Phase",2831,,,-1,-1,,,,1
5e650e7afc8a902839459455,wk67mioorl,"Deep vs Shallow",1,72,2020-07-08T14:25:37-07:00,1.8126587867737,2,versionA_stim.csv,RLVersionB.csv,"Relational Version B","Relational, read only version B",LOAN,SIGN,Study2,U,171,125,Study,User,-,,Study/JOL,"Study Phase",1262,,,-1,-1,,,,1
5e650e7afc8a902839459455,wk67mioorl,"Deep vs Shallow",1,73,2020-07-08T14:25:39-07:00,1.9266362190247,2,versionA_stim.csv,RLVersionB.csv,"Relational Version B","Relational, read only version B",CAKE,CLOTHES,Study2,U,166,168,Study,User,-,,Study/JOL,"Study Phase",1413,,,-1,-1,,,,1
5e650e7afc8a902839459455,wk67mioorl,"Deep vs Shallow",1,74,2020-07-08T14:25:40-07:00,0.93046879768372,2,versionA_stim.csv,RLVersionB.csv,"Relational Version B","Relational, read only version B",TURN,FLIP,Study2,B,116,119,Study,User,-,,Study/JOL,"Study Phase",485,,,-1,-1,,,,1
5e650e7afc8a902839459455,wk67mioorl,"Deep vs Shallow",1,75,2020-07-08T14:25:41-07:00,0.75898599624634,2,versionA_stim.csv,RLVersionB.csv,"Relational Version B","Relational, read only version B",JUSTICE,MAROON,Study2,U,156,127,Study,User,-,,Study/JOL,"Study Phase",338,,,-1,-1,,,,1
5e650e7afc8a902839459455,wk67mioorl,"Deep vs Shallow",1,76,2020-07-08T14:25:42-07:00,1.1161530017853,2,versionA_stim.csv,RLVersionB.csv,"Relational Version B","Relational, read only version B",ELEMENT,CARBON,Study2,S,141,163,Study,User,-,,Study/JOL,"Study Phase",714,,,-1,-1,,,,1
5e650e7afc8a902839459455,wk67mioorl,"Deep vs Shallow",1,77,2020-07-08T14:25:43-07:00,1.0525281429291,2,versionA_stim.csv,RLVersionB.csv,"Relational Version B","Relational, read only version B",CAT,PANTHER,Study2,B,126,121,Study,User,-,,Study/JOL,"Study Phase",667,,,-1,-1,,,,1
5e650e7afc8a902839459455,wk67mioorl,"Deep vs Shallow",1,78,2020-07-08T14:25:44-07:00,1.1007449626923,2,versionA_stim.csv,RLVersionB.csv,"Relational Version B","Relational, read only version B",CAR,WINDSHIELD,Study2,B,117,113,Study,User,-,,Study/JOL,"Study Phase",739,,,-1,-1,,,,1
5e650e7afc8a902839459455,wk67mioorl,"Deep vs Shallow",1,79,2020-07-08T14:25:45-07:00,0.88210296630859,2,versionA_stim.csv,RLVersionB.csv,"Relational Version B","Relational, read only version B",CHILL,COLD,Study2,F,114,152,Study,User,-,,Study/JOL,"Study Phase",529,,,-1,-1,,,,1
5e650e7afc8a902839459455,wk67mioorl,"Deep vs Shallow",1,80,2020-07-08T14:25:48-07:00,2.6764230728149,2,versionA_stim.csv,RLVersionB.csv,"Relational Version B","Relational, read only version B",WRIST,BRACELET,Study2,S,140,155,Study,User,-,,Study/JOL,"Study Phase",2242,,,-1,-1,,,,1
5e650e7afc8a902839459455,wk67mioorl,"Deep vs Shallow",1,81,2020-07-08T14:25:49-07:00,0.92759585380554,2,versionA_stim.csv,RLVersionB.csv,"Relational Version B","Relational, read only version B",CANDLE,WAX,Study2,S,139,167,Study,User,-,,Study/JOL,"Study Phase",550,,,-1,-1,,,,1
5e650e7afc8a902839459455,wk67mioorl,"Deep vs Shallow",1,82,2020-07-08T14:25:50-07:00,0.96027612686157,2,versionA_stim.csv,RLVersionB.csv,"Relational Version B","Relational, read only version B",EXTENSION,LONG,Study2,F,96,101,Study,User,-,,Study/JOL,"Study Phase",596,,,-1,-1,,,,1
5e650e7afc8a902839459455,wk67mioorl,"Deep vs Shallow",1,83,2020-07-08T14:25:51-07:00,0.87176990509033,2,versionA_stim.csv,RLVersionB.csv,"Relational Version B","Relational, read only version B",BIRD,PENGUIN,Study2,B,119,109,Study,User,-,,Study/JOL,"Study Phase",522,,,-1,-1,,,,1
5e650e7afc8a902839459455,wk67mioorl,"Deep vs Shallow",1,84,2020-07-08T14:25:52-07:00,1.2999250888824,2,versionA_stim.csv,RLVersionB.csv,"Relational Version B","Relational, read only version B",STAR,ACTRESS,Study2,B,120,105,Study,User,-,,Study/JOL,"Study Phase",560,,,-1,-1,,,,1
5e650e7afc8a902839459455,wk67mioorl,"Deep vs Shallow",1,85,2020-07-08T14:25:53-07:00,0.97853302955627,2,versionA_stim.csv,RLVersionB.csv,"Relational Version B","Relational, read only version B",CACTUS,PLANT,Study2,F,98,108,Study,User,-,,Study/JOL,"Study Phase",550,,,-1,-1,,,,1
5e650e7afc8a902839459455,wk67mioorl,"Deep vs Shallow",1,86,2020-07-08T14:25:54-07:00,0.89212989807129,2,versionA_stim.csv,RLVersionB.csv,"Relational Version B","Relational, read only version B",TRUTH,LIE,Study2,S,148,153,Study,User,-,,Study/JOL,"Study Phase",336,,,-1,-1,,,,1
5e650e7afc8a902839459455,wk67mioorl,"Deep vs Shallow",1,87,2020-07-08T14:25:55-07:00,1.2233250141144,2,versionA_stim.csv,RLVersionB.csv,"Relational Version B","Relational, read only version B",AFFECTION,LOVE,Study2,F,115,147,Study,User,-,,Study/JOL,"Study Phase",417,,,-1,-1,,,,1
5e650e7afc8a902839459455,wk67mioorl,"Deep vs Shallow",1,88,2020-07-08T14:25:57-07:00,2.0128560066223,2,versionA_stim.csv,RLVersionB.csv,"Relational Version B","Relational, read only version B",GIVE,STEAK,Study2,U,158,137,Study,User,-,,Study/JOL,"Study Phase",1408,,,-1,-1,,,,1
5e650e7afc8a902839459455,wk67mioorl,"Deep vs Shallow",1,89,2020-07-08T14:25:59-07:00,1.777890920639,2,versionA_stim.csv,RLVersionB.csv,"Relational Version B","Relational, read only version B",ADJOURN,END,Study2,F,101,134,Study,User,-,,Study/JOL,"Study Phase",1394,,,-1,-1,,,,1
5e650e7afc8a902839459455,wk67mioorl,"Deep vs Shallow",1,90,2020-07-08T14:26:01-07:00,2.2599711418152,2,versionA_stim.csv,RLVersionB.csv,"Relational Version B","Relational, read only version B",LISTEN,FICTION,Study2,U,164,170,Study,User,-,,Study/JOL,"Study Phase",1824,,,-1,-1,,,,1
5e650e7afc8a902839459455,wk67mioorl,"Deep vs Shallow",1,91,2020-07-08T14:26:02-07:00,1.1785280704498,2,versionA_stim.csv,RLVersionB.csv,"Relational Version B","Relational, read only version B",SPRING,MARCH,BUFFER4,Buffer,179,179,Study,User,-,,Study/JOL,BUFFER2,807,,,-1,-1,,,,1
5e650e7afc8a902839459455,wk67mioorl,"Deep vs Shallow",1,92,2020-07-08T14:26:03-07:00,1.2064909934998,2,versionA_stim.csv,RLVersionB.csv,"Relational Version B","Relational, read only version B",TOOL,SHED,BUFFER4,Buffer,178,180,Study,User,-,,Study/JOL,BUFFER2,843,,,-1,-1,,,,1
5e650e7afc8a902839459455,wk67mioorl,"Deep vs Shallow",1,93,2020-07-08T14:26:05-07:00,2.0795729160309,2,versionA_stim.csv,RLVersionB.csv,"Relational Version B","Relational, read only version B",MONTH,YEAR,BUFFER4,Buffer,177,177,Study,User,-,,Study/JOL,BUFFER2,1729,,,-1,-1,,,,1
5e650e7afc8a902839459455,wk67mioorl,"Deep vs Shallow",1,94,2020-07-08T14:26:07-07:00,1.2533268928528,2,versionA_stim.csv,RLVersionB.csv,"Relational Version B","Relational, read only version B",OCTOBER,SPOOKY,BUFFER4,Buffer,180,178,Study,User,-,,Study/JOL,BUFFER2,886,,,-1,-1,,,,1
5e650e7afc8a902839459455,wk67mioorl,"Deep vs Shallow",1,95,2020-07-08T14:26:10-07:00,2.8841290473938,2,versionA_stim.csv,RLVersionB.csv,"Relational Version B","Relational, read only version B",DAYS,WEAKS,BUFFER4,Buffer,176,181,Study,User,-,,Study/JOL,BUFFER2,2535,,,-1,-1,,,,1
5e650e7afc8a902839459455,wk67mioorl,"Deep vs Shallow",1,96,2020-07-08T14:26:11-07:00,1.7174689769745,2,versionA_stim.csv,RLVersionB.csv,"Relational Version B","Relational, read only version B",,,,,,0,Instruct,User,-,"You have completed this section. Please press Enter.",Filler_Instruction,Instruct2,1287,,,-1,-1,,,,1
5e650e7afc8a902839459455,wk67mioorl,"Deep vs Shallow",1,97,2020-07-08T14:26:17-07:00,5.3695411682129,2,versionA_stim.csv,RLVersionB.csv,"Relational Version B","Relational, read only version B",,,,,,0,Instruct,User,-,"You have completed this section. Please press Enter.",Filler_Instruction,Instruct5,4920,,,-1,-1,,,,1
5e650e7afc8a902839459455,wk67mioorl,"Deep vs Shallow",1,98,2020-07-08T14:26:32-07:00,15.452344894409,2,versionA_stim.csv,RLVersionB.csv,"Relational Version B","Relational, read only version B",,,,,,0,FreeRecall,-,10,"What were you supposed to focus on while you studied each pair? (Hint: Think back to the instructions). Type your answer in the space below.",,CHECK3,14962,"The link between the two words given.",0,3053,12917,0,0,,1
5e650e7afc8a902839459455,wk67mioorl,"Deep vs Shallow",1,99,2020-07-08T14:28:33-07:00,120.87217092514,2,versionA_stim.csv,RLVersionB.csv,"Relational Version B","Relational, read only version B",,,,,,0,FreeRecall,120,120,"Please list the 50 US states in alphabetical order. The task will automatically advance to the next screen after two minutes.",,Filler1,120372,"I do not know the US states, so I had to search them: Alabama. Alaska. Arizona. Arkansas. California. Colorado. Connecticut. Delaware Florida Georgia Hawaii Idaho Illinois Indiana Iowa Kansas Kentucky Louisiana Maine Maryland Massachusetts Michigan Minnesota Mississippi Missouri Montana Nebraska Nevada New Hampshire New Jersey New Mexico New York North Carolina North Dakota Ohio Oklahoma Oregon Pennsylvania Rhode Island South Carolina South Dakota Tennessee Texas Utah Vermont Virginia Washington West Virginia Wisconsin Wyoming",0,11428,112419,0,0,,0.864
5e650e7afc8a902839459455,wk67mioorl,"Deep vs Shallow",1,100,2020-07-08T14:31:01-07:00,147.84156799316,2,versionA_stim.csv,RLVersionB.csv,"Relational Version B","Relational, read only version B",,,,,,0,Instruct,-,10,"You will now be presented with the first word from each of the previously studied item pairs. Please type the missing word. If you do not know the word, you may guess or press Enter to skip forward to the next pair.",,Instruct3,147384,,,-1,-1,,,,0.217
5e650e7afc8a902839459455,wk67mioorl,"Deep vs Shallow",1,101,2020-07-08T14:31:05-07:00,4.6380360126495,2,versionA_stim.csv,RLVersionB.csv,"Relational Version B","Relational, read only version B",DEAD,COFFIN,Study2,B,128,161,Test,User,-,,Recall,Recall1,4222,Alive,18.181818181818,2192,2966,0,0,,1
5e650e7afc8a902839459455,wk67mioorl,"Deep vs Shallow",1,102,2020-07-08T14:31:10-07:00,4.9899799823761,2,versionA_stim.csv,RLVersionB.csv,"Relational Version B","Relational, read only version B",CAKE,CLOTHES,Study2,U,166,168,Test,User,-,,Recall,Recall1,4578,ICING,16.666666666667,2285,3951,0,0,,1
5e650e7afc8a902839459455,wk67mioorl,"Deep vs Shallow",1,103,2020-07-08T14:31:14-07:00,3.4874889850616,2,versionA_stim.csv,RLVersionB.csv,"Relational Version B","Relational, read only version B",FIGHT,BRAWL,Study2,B,135,166,Test,User,-,,Recall,Recall1,3056,FIST,0,1411,2666,0,0,,1
5e650e7afc8a902839459455,wk67mioorl,"Deep vs Shallow",1,104,2020-07-08T14:31:18-07:00,4.3454751968384,2,versionA_stim.csv,RLVersionB.csv,"Relational Version B","Relational, read only version B",RIGHTS,EQUAL,Study2,S,137,160,Test,User,-,,Recall,Recall1,3960,EQUAL,100,1380,3348,1,1,,1
5e650e7afc8a902839459455,wk67mioorl,"Deep vs Shallow",1,105,2020-07-08T14:31:24-07:00,6.0217130184174,2,versionA_stim.csv,RLVersionB.csv,"Relational Version B","Relational, read only version B",LOAN,SIGN,Study2,U,171,125,Test,User,-,,Recall,Recall1,5631,BANK,25,3863,5137,0,0,,1
5e650e7afc8a902839459455,wk67mioorl,"Deep vs Shallow",1,106,2020-07-08T14:31:29-07:00,4.5017478466034,2,versionA_stim.csv,RLVersionB.csv,"Relational Version B","Relational, read only version B",CHERRY,RED,Study2,F,104,114,Test,User,-,,Recall,Recall1,4117,,0,1619,1619,0,0,,1
5e650e7afc8a902839459455,wk67mioorl,"Deep vs Shallow",1,107,2020-07-08T14:31:34-07:00,5.1920809745789,2,versionA_stim.csv,RLVersionB.csv,"Relational Version B","Relational, read only version B",MEAT,OBTAIN,Study2,U,161,102,Test,User,-,,Recall,Recall1,4740,STEAK,36.363636363636,2957,4231,0,0,,1
5e650e7afc8a902839459455,wk67mioorl,"Deep vs Shallow",1,108,2020-07-08T14:31:38-07:00,3.8435590267181,2,versionA_stim.csv,RLVersionB.csv,"Relational Version B","Relational, read only version B",WATER,DRINK,Study2,S,143,118,Test,User,-,,Recall,Recall1,3448,FIRE,22.222222222222,1708,2882,0,0,,1
5e650e7afc8a902839459455,wk67mioorl,"Deep vs Shallow",1,109,2020-07-08T14:31:42-07:00,4.6037471294403,2,versionA_stim.csv,RLVersionB.csv,"Relational Version B","Relational, read only version B",CHILL,COLD,Study2,F,114,152,Test,User,-,,Recall,Recall1,4220,ICE,28.571428571429,1770,2573,0,0,,1
5e650e7afc8a902839459455,wk67mioorl,"Deep vs Shallow",1,110,2020-07-08T14:31:50-07:00,7.3189170360565,2,versionA_stim.csv,RLVersionB.csv,"Relational Version B","Relational, read only version B",RAZOR,SHAVE,Study2,S,136,150,Test,User,-,,Recall,Recall1,6914,SHARP,60,4113,5659,0,0,,1
5e650e7afc8a902839459455,wk67mioorl,"Deep vs Shallow",1,111,2020-07-08T14:31:56-07:00,5.9501078128815,2,versionA_stim.csv,RLVersionB.csv,"Relational Version B","Relational, read only version B",PHONE,COMMUNICATION,Study2,S,149,110,Test,User,-,,Recall,Recall1,5561,CALL,23.529411764706,4111,5195,0,0,,1
5e650e7afc8a902839459455,wk67mioorl,"Deep vs Shallow",1,112,2020-07-08T14:32:00-07:00,3.8347551822662,2,versionA_stim.csv,RLVersionB.csv,"Relational Version B","Relational, read only version B",EVEN,REVENGE,Study2,B,122,103,Test,User,-,,Recall,Recall1,3444,ODD,0,2350,3163,0,0,,1
5e650e7afc8a902839459455,wk67mioorl,"Deep vs Shallow",1,113,2020-07-08T14:32:03-07:00,3.2679979801178,2,versionA_stim.csv,RLVersionB.csv,"Relational Version B","Relational, read only version B",MASON,JAR,Study2,S,138,171,Test,User,-,,Recall,Recall1,2875,JAR,100,1373,2386,1,1,,1
5e650e7afc8a902839459455,wk67mioorl,"Deep vs Shallow",1,114,2020-07-08T14:32:07-07:00,4.3935840129852,2,versionA_stim.csv,RLVersionB.csv,"Relational Version B","Relational, read only version B",SHOELACE,TIE,Study2,F,99,124,Test,User,-,,Recall,Recall1,3974,TIE,100,2679,3392,1,1,,1
5e650e7afc8a902839459455,wk67mioorl,"Deep vs Shallow",1,115,2020-07-08T14:32:10-07:00,3.1858718395233,2,versionA_stim.csv,RLVersionB.csv,"Relational Version B","Relational, read only version B",CHOP,CUT,Study2,F,107,157,Test,User,-,,Recall,Recall1,2802,WOOD,0,1434,2579,0,0,,1
5e650e7afc8a902839459455,wk67mioorl,"Deep vs Shallow",1,116,2020-07-08T14:32:17-07:00,6.527074098587,2,versionA_stim.csv,RLVersionB.csv,"Relational Version B","Relational, read only version B",LISTEN,FICTION,Study2,U,164,170,Test,User,-,,Recall,Recall1,6023,SPEAK,0,3725,5661,0,0,,1
5e650e7afc8a902839459455,wk67mioorl,"Deep vs Shallow",1,117,2020-07-08T14:32:52-07:00,35.403055906296,2,versionA_stim.csv,RLVersionB.csv,"Relational Version B","Relational, read only version B",FISH,SARDINE,Study2,B,130,145,Test,User,-,,Recall,Recall1,34899,OCEAN,16.666666666667,32410,34146,0,0,,0.16
5e650e7afc8a902839459455,wk67mioorl,"Deep vs Shallow",1,118,2020-07-08T14:33:00-07:00,7.4196481704712,2,versionA_stim.csv,RLVersionB.csv,"Relational Version B","Relational, read only version B",POP,BALLOON,Study2,B,123,122,Test,User,-,,Recall,Recall1,6998,CORN,36.363636363636,4421,6165,0,0,,1
5e650e7afc8a902839459455,wk67mioorl,"Deep vs Shallow",1,119,2020-07-08T14:33:19-07:00,19.046635866165,2,versionA_stim.csv,RLVersionB.csv,"Relational Version B","Relational, read only version B",SLEEP,NAP,Study2,B,134,100,Test,User,-,,Recall,Recall1,18569,BED,0,17649,18201,0,0,,1
5e650e7afc8a902839459455,wk67mioorl,"Deep vs Shallow",1,120,2020-07-08T14:33:24-07:00,5.332062959671,2,versionA_stim.csv,RLVersionB.csv,"Relational Version B","Relational, read only version B",DETECTIVE,MYSTERY,Study2,F,100,158,Test,User,-,,Recall,Recall1,4928,CASE,36.363636363636,3444,4366,0,0,,1
5e650e7afc8a902839459455,wk67mioorl,"Deep vs Shallow",1,121,2020-07-08T14:33:32-07:00,7.9251890182495,2,versionA_stim.csv,RLVersionB.csv,"Relational Version B","Relational, read only version B",STRETCH,CLOTH,Study2,U,157,175,Test,User,-,,Recall,Recall1,7537,,0,-1,-1,0,0,,1
5e650e7afc8a902839459455,wk67mioorl,"Deep vs Shallow",1,122,2020-07-08T14:33:42-07:00,9.6085779666901,2,versionA_stim.csv,RLVersionB.csv,"Relational Version B","Relational, read only version B",LEASE,TOIL,Study2,U,170,151,Test,User,-,,Recall,Recall1,9216,HOUSE,22.222222222222,7420,8794,0,0,,1
5e650e7afc8a902839459455,wk67mioorl,"Deep vs Shallow",1,123,2020-07-08T14:33:46-07:00,4.2224740982056,2,versionA_stim.csv,RLVersionB.csv,"Relational Version B","Relational, read only version B",SHEARS,SCISSORS,Study2,F,112,146,Test,User,-,,Recall,Recall1,3825,BUSH,16.666666666667,2165,3288,0,0,,1
5e650e7afc8a902839459455,wk67mioorl,"Deep vs Shallow",1,124,2020-07-08T14:33:50-07:00,4.1640138626099,2,versionA_stim.csv,RLVersionB.csv,"Relational Version B","Relational, read only version B",CAR,WINDSHIELD,Study2,B,117,113,Test,User,-,,Recall,Recall1,3772,DRIVE,40,2241,3426,0,0,,1
5e650e7afc8a902839459455,wk67mioorl,"Deep vs Shallow",1,125,2020-07-08T14:33:53-07:00,2.9670441150665,2,versionA_stim.csv,RLVersionB.csv,"Relational Version B","Relational, read only version B",FEUD,FIGHT,Study2,F,113,135,Test,User,-,,Recall,Recall1,2587,FIGHT,100,1242,2415,1,1,,1
5e650e7afc8a902839459455,wk67mioorl,"Deep vs Shallow",1,126,2020-07-08T14:33:56-07:00,2.7517669200897,2,versionA_stim.csv,RLVersionB.csv,"Relational Version B","Relational, read only version B",BASEBALL,LEAGUE,Study2,B,131,123,Test,User,-,,Recall,Recall1,2361,BAT,22.222222222222,1370,2011,0,0,,1
5e650e7afc8a902839459455,wk67mioorl,"Deep vs Shallow",1,127,2020-07-08T14:33:59-07:00,2.8234910964966,2,versionA_stim.csv,RLVersionB.csv,"Relational Version B","Relational, read only version B",SAFETY,SEATBELT,Study2,S,147,126,Test,User,-,,Recall,Recall1,1444,,0,-1,-1,0,0,,1
5e650e7afc8a902839459455,wk67mioorl,"Deep vs Shallow",1,128,2020-07-08T14:34:02-07:00,3.0535309314728,2,versionA_stim.csv,RLVersionB.csv,"Relational Version B","Relational, read only version B",NAME,HATE,Study2,U,167,156,Test,User,-,,Recall,Recall1,2621,TAG,28.571428571429,1584,2095,0,0,,1
5e650e7afc8a902839459455,wk67mioorl,"Deep vs Shallow",1,129,2020-07-08T14:34:36-07:00,34.20928311348,2,versionA_stim.csv,RLVersionB.csv,"Relational Version B","Relational, read only version B",DRY,WET,Study2,S,146,142,Test,User,-,,Recall,Recall1,33714,wet,100,32983,33435,1,1,,0.112
5e650e7afc8a902839459455,wk67mioorl,"Deep vs Shallow",1,130,2020-07-08T14:34:40-07:00,4.1233019828796,2,versionA_stim.csv,RLVersionB.csv,"Relational Version B","Relational, read only version B",CANDLE,WAX,Study2,S,139,167,Test,User,-,,Recall,Recall1,3722,FIRE,0,2093,3186,0,0,,1
5e650e7afc8a902839459455,wk67mioorl,"Deep vs Shallow",1,131,2020-07-08T14:34:46-07:00,5.9937229156494,2,versionA_stim.csv,RLVersionB.csv,"Relational Version B","Relational, read only version B",GONE,AWAY,Study2,S,142,169,Test,User,-,,Recall,Recall1,5605,,0,-1,-1,0,0,,1
5e650e7afc8a902839459455,wk67mioorl,"Deep vs Shallow",1,132,2020-07-08T14:34:48-07:00,1.9070010185242,2,versionA_stim.csv,RLVersionB.csv,"Relational Version B","Relational, read only version B",MAIN,SCAR,Study2,U,175,149,Test,User,-,,Recall,Recall1,1489,,0,-1,-1,0,0,,1
5e650e7afc8a902839459455,wk67mioorl,"Deep vs Shallow",1,133,2020-07-08T14:34:53-07:00,4.8260481357574,2,versionA_stim.csv,RLVersionB.csv,"Relational Version B","Relational, read only version B",KEYS,JOKE,Study2,U,165,136,Test,User,-,,Recall,Recall1,4437,DOOR,25,2500,3763,0,0,,1
5e650e7afc8a902839459455,wk67mioorl,"Deep vs Shallow",1,134,2020-07-08T14:35:19-07:00,26.229925870895,2,versionA_stim.csv,RLVersionB.csv,"Relational Version B","Relational, read only version B",DRIVER,CAR,Study2,F,106,141,Test,User,-,,Recall,Recall1,25750,CAR,100,22585,23598,1,1,,0.574
5e650e7afc8a902839459455,wk67mioorl,"Deep vs Shallow",1,135,2020-07-08T14:35:24-07:00,4.7199859619141,2,versionA_stim.csv,RLVersionB.csv,"Relational Version B","Relational, read only version B",GLASS,BREAKABLE,Study2,B,127,104,Test,User,-,,Recall,Recall1,4313,WINDOW,0,1847,3874,0,0,,1
5e650e7afc8a902839459455,wk67mioorl,"Deep vs Shallow",1,136,2020-07-08T14:35:29-07:00,5.6903450489044,2,versionA_stim.csv,RLVersionB.csv,"Relational Version B","Relational, read only version B",AFFECTION,LOVE,Study2,F,115,147,Test,User,-,,Recall,Recall1,5290,LOVE,100,4110,5063,1,1,,1
5e650e7afc8a902839459455,wk67mioorl,"Deep vs Shallow",1,137,2020-07-08T14:35:32-07:00,3.0989050865173,2,versionA_stim.csv,RLVersionB.csv,"Relational Version B","Relational, read only version B",MULE,DONKEY,Study2,F,108,154,Test,User,-,,Recall,Recall1,2688,HORSE,36.363636363636,1169,2492,0,0,,1
5e650e7afc8a902839459455,wk67mioorl,"Deep vs Shallow",1,138,2020-07-08T14:35:35-07:00,2.465607881546,2,versionA_stim.csv,RLVersionB.csv,"Relational Version B","Relational, read only version B",GIVE,STEAK,Study2,U,158,137,Test,User,-,,Recall,Recall1,2088,,0,-1,-1,0,0,,1
5e650e7afc8a902839459455,wk67mioorl,"Deep vs Shallow",1,139,2020-07-08T14:35:46-07:00,11.259349107742,2,versionA_stim.csv,RLVersionB.csv,"Relational Version B","Relational, read only version B",BOTH,OUNCE,Study2,U,172,162,Test,User,-,,Recall,Recall1,10713,NONE,44.444444444444,8990,10084,0,0,,1
5e650e7afc8a902839459455,wk67mioorl,"Deep vs Shallow",1,140,2020-07-08T14:36:37-07:00,50.844971895218,2,versionA_stim.csv,RLVersionB.csv,"Relational Version B","Relational, read only version B",OWN,HAVE,Study2,S,153,143,Test,User,-,,Recall,Recall1,50245,,0,-1,-1,0,0,,0.318
5e650e7afc8a902839459455,wk67mioorl,"Deep vs Shallow",1,141,2020-07-08T14:36:43-07:00,5.7550189495087,2,versionA_stim.csv,RLVersionB.csv,"Relational Version B","Relational, read only version B",BEST,FAVORITE,Study2,B,125,99,Test,User,-,,Recall,Recall1,5366,WORST,46.153846153846,3191,4736,0,0,,1
5e650e7afc8a902839459455,wk67mioorl,"Deep vs Shallow",1,142,2020-07-08T14:36:51-07:00,8.3312959671021,2,versionA_stim.csv,RLVersionB.csv,"Relational Version B","Relational, read only version B",SCALP,HEAD,Study2,F,105,130,Test,User,-,,Recall,Recall1,7953,HAIR,50,5890,7225,0,0,,1
5e650e7afc8a902839459455,wk67mioorl,"Deep vs Shallow",1,143,2020-07-08T14:36:57-07:00,5.4858310222626,2,versionA_stim.csv,RLVersionB.csv,"Relational Version B","Relational, read only version B",MAZE,ELECTION,Study2,U,159,148,Test,User,-,,Recall,Recall1,4095,LOST,33.333333333333,2491,3534,0,0,,1
5e650e7afc8a902839459455,wk67mioorl,"Deep vs Shallow",1,144,2020-07-08T14:37:20-07:00,22.908920049667,2,versionA_stim.csv,RLVersionB.csv,"Relational Version B","Relational, read only version B",SUN,TAN,Study2,S,155,138,Test,User,-,,Recall,Recall1,22434,HOT,33.333333333333,20959,21751,0,0,,0.97
5e650e7afc8a902839459455,wk67mioorl,"Deep vs Shallow",1,145,2020-07-08T14:37:22-07:00,2.8127131462097,2,versionA_stim.csv,RLVersionB.csv,"Relational Version B","Relational, read only version B",PLANE,AIRCRAFT,Study2,B,129,159,Test,User,-,,Recall,Recall1,2403,FLY,18.181818181818,1244,2147,0,0,,1
5e650e7afc8a902839459455,wk67mioorl,"Deep vs Shallow",1,146,2020-07-08T14:37:25-07:00,2.4775807857513,2,versionA_stim.csv,RLVersionB.csv,"Relational Version B","Relational, read only version B",JUSTICE,MAROON,Study2,U,156,127,Test,User,-,,Recall,Recall1,1085,,0,-1,-1,0,0,,1
5e650e7afc8a902839459455,wk67mioorl,"Deep vs Shallow",1,147,2020-07-08T14:37:28-07:00,2.7531471252441,2,versionA_stim.csv,RLVersionB.csv,"Relational Version B","Relational, read only version B",ELEMENT,CARBON,Study2,S,141,163,Test,User,-,,Recall,Recall1,2361,FIRE,20,1230,2152,0,0,,1
5e650e7afc8a902839459455,wk67mioorl,"Deep vs Shallow",1,148,2020-07-08T14:37:30-07:00,2.8284149169922,2,versionA_stim.csv,RLVersionB.csv,"Relational Version B","Relational, read only version B",TURN,FLIP,Study2,B,116,119,Test,User,-,,Recall,Recall1,2438,,0,-1,-1,0,0,,1
5e650e7afc8a902839459455,wk67mioorl,"Deep vs Shallow",1,149,2020-07-08T14:37:34-07:00,3.2682559490204,2,versionA_stim.csv,RLVersionB.csv,"Relational Version B","Relational, read only version B",FURRY,DOG,Study2,F,102,172,Test,User,-,,Recall,Recall1,2863,DOG,100,1296,2308,1,1,,1
5e650e7afc8a902839459455,wk67mioorl,"Deep vs Shallow",1,150,2020-07-08T14:37:39-07:00,5.3780620098114,2,versionA_stim.csv,RLVersionB.csv,"Relational Version B","Relational, read only version B",MOAT,CLEAR,Study2,U,169,174,Test,User,-,,Recall,Recall1,4965,CASTLE,54.545454545455,2351,4499,0,0,,1
5e650e7afc8a902839459455,wk67mioorl,"Deep vs Shallow",1,151,2020-07-08T14:37:43-07:00,3.7615401744843,2,versionA_stim.csv,RLVersionB.csv,"Relational Version B","Relational, read only version B",VEHICLE,CHARM,Study2,U,160,97,Test,User,-,,Recall,Recall1,3361,CAR,75,2226,2958,0,1,,1
5e650e7afc8a902839459455,wk67mioorl,"Deep vs Shallow",1,152,2020-07-08T14:37:45-07:00,1.9129469394684,2,versionA_stim.csv,RLVersionB.csv,"Relational Version B","Relational, read only version B",FLEA,TICK,Study2,S,151,173,Test,User,-,,Recall,Recall1,1497,,0,-1,-1,0,0,,1
5e650e7afc8a902839459455,wk67mioorl,"Deep vs Shallow",1,153,2020-07-08T14:37:48-07:00,2.9370400905609,2,versionA_stim.csv,RLVersionB.csv,"Relational Version B","Relational, read only version B",TEMPERATURE,Morning,Study2,U,173,120,Test,User,-,,Recall,Recall1,2543,HOT,20,1077,1840,0,0,,1
5e650e7afc8a902839459455,wk67mioorl,"Deep vs Shallow",1,154,2020-07-08T14:37:58-07:00,10.788161993027,2,versionA_stim.csv,RLVersionB.csv,"Relational Version B","Relational, read only version B",INCENSE,SMELL,Study2,F,110,112,Test,User,-,,Recall,Recall1,10297,SCENT,40,7179,9940,0,0,,1
5e650e7afc8a902839459455,wk67mioorl,"Deep vs Shallow",1,155,2020-07-08T14:38:02-07:00,3.4584248065948,2,versionA_stim.csv,RLVersionB.csv,"Relational Version B","Relational, read only version B",HONEST,TRUTHFUL,Study2,B,133,116,Test,User,-,,Recall,Recall1,3061,TRUTH,76.923076923077,1854,2847,0,1,,1
5e650e7afc8a902839459455,wk67mioorl,"Deep vs Shallow",1,156,2020-07-08T14:38:08-07:00,6.0969891548157,2,versionA_stim.csv,RLVersionB.csv,"Relational Version B","Relational, read only version B",ALONE,LONELY,Study2,S,145,128,Test,User,-,,Recall,Recall1,5702,,0,-1,-1,0,0,,1
5e650e7afc8a902839459455,wk67mioorl,"Deep vs Shallow",1,157,2020-07-08T14:38:09-07:00,1.3466360569,2,versionA_stim.csv,RLVersionB.csv,"Relational Version B","Relational, read only version B",CRACKLE,ABLE,Study2,U,162,107,Test,User,-,,Recall,Recall1,930,,0,-1,-1,0,0,,1
5e650e7afc8a902839459455,wk67mioorl,"Deep vs Shallow",1,158,2020-07-08T14:38:14-07:00,4.8059380054474,2,versionA_stim.csv,RLVersionB.csv,"Relational Version B","Relational, read only version B",CLUE,GAME,Study2,F,97,98,Test,User,-,,Recall,Recall1,4412,MYSTERY,36.363636363636,2428,4155,0,0,,1
5e650e7afc8a902839459455,wk67mioorl,"Deep vs Shallow",1,159,2020-07-08T14:38:18-07:00,4.0056657791138,2,versionA_stim.csv,RLVersionB.csv,"Relational Version B","Relational, read only version B",MONEY,BANKER,Study2,B,132,140,Test,User,-,,Recall,Recall1,3602,BANKER,100,1278,3274,1,1,,1
5e650e7afc8a902839459455,wk67mioorl,"Deep vs Shallow",1,160,2020-07-08T14:38:22-07:00,3.352902173996,2,versionA_stim.csv,RLVersionB.csv,"Relational Version B","Relational, read only version B",CAT,PANTHER,Study2,B,126,121,Test,User,-,,Recall,Recall1,2944,DOG,0,1332,2446,0,0,,1
5e650e7afc8a902839459455,wk67mioorl,"Deep vs Shallow",1,161,2020-07-08T14:38:23-07:00,1.341136932373,2,versionA_stim.csv,RLVersionB.csv,"Relational Version B","Relational, read only version B",ADJOURN,END,Study2,F,101,134,Test,User,-,,Recall,Recall1,951,,0,-1,-1,0,0,,1
5e650e7afc8a902839459455,wk67mioorl,"Deep vs Shallow",1,162,2020-07-08T14:38:25-07:00,2.5019299983978,2,versionA_stim.csv,RLVersionB.csv,"Relational Version B","Relational, read only version B",BIRD,PENGUIN,Study2,B,119,109,Test,User,-,,Recall,Recall1,2127,FLY,0,1151,1894,0,0,,1
5e650e7afc8a902839459455,wk67mioorl,"Deep vs Shallow",1,163,2020-07-08T14:38:27-07:00,1.8609459400177,2,versionA_stim.csv,RLVersionB.csv,"Relational Version B","Relational, read only version B",BAD,VILLAIN,Study2,B,118,165,Test,User,-,,Recall,Recall1,1467,,0,-1,-1,0,0,,1
5e650e7afc8a902839459455,wk67mioorl,"Deep vs Shallow",1,164,2020-07-08T14:38:28-07:00,1.2208831310272,2,versionA_stim.csv,RLVersionB.csv,"Relational Version B","Relational, read only version B",DINE,EAT,Study2,F,111,139,Test,User,-,,Recall,Recall1,820,,0,-1,-1,0,0,,1
5e650e7afc8a902839459455,wk67mioorl,"Deep vs Shallow",1,165,2020-07-08T14:38:32-07:00,3.4838008880615,2,versionA_stim.csv,RLVersionB.csv,"Relational Version B","Relational, read only version B",WRIST,BRACELET,Study2,S,140,155,Test,User,-,,Recall,Recall1,3105,WATCH,30.769230769231,1493,2859,0,0,,1
5e650e7afc8a902839459455,wk67mioorl,"Deep vs Shallow",1,166,2020-07-08T14:39:03-07:00,31.4510679245,2,versionA_stim.csv,RLVersionB.csv,"Relational Version B","Relational, read only version B",CACTUS,PLANT,Study2,F,98,108,Test,User,-,,Recall,Recall1,29936,PRICK,20,23991,28859,0,0,,0.493
5e650e7afc8a902839459455,wk67mioorl,"Deep vs Shallow",1,167,2020-07-08T14:39:13-07:00,9.8802201747894,2,versionA_stim.csv,RLVersionB.csv,"Relational Version B","Relational, read only version B",LITTER,TRASH,Study2,F,103,144,Test,User,-,,Recall,Recall1,9469,CAT,25,6948,8755,0,0,,0.771
5e650e7afc8a902839459455,wk67mioorl,"Deep vs Shallow",1,168,2020-07-08T14:39:26-07:00,12.899353027344,2,versionA_stim.csv,RLVersionB.csv,"Relational Version B","Relational, read only version B",THREAD,THIMBLE,Study2,B,121,129,Test,User,-,,Recall,Recall1,12390,STRING,30.769230769231,9463,11216,0,0,,0.919
5e650e7afc8a902839459455,wk67mioorl,"Deep vs Shallow",1,169,2020-07-08T14:39:31-07:00,4.903223991394,2,versionA_stim.csv,RLVersionB.csv,"Relational Version B","Relational, read only version B",ROD,REEL,Study2,S,150,164,Test,User,-,,Recall,Recall1,4319,,0,-1,-1,0,0,,1
5e650e7afc8a902839459455,wk67mioorl,"Deep vs Shallow",1,170,2020-07-08T14:39:37-07:00,6.3290359973907,2,versionA_stim.csv,RLVersionB.csv,"Relational Version B","Relational, read only version B",MIRROR,CHILDREN,Study2,U,174,132,Test,User,-,,Recall,Recall1,5859,REFLECTION,33.333333333333,2627,5187,0,0,,1
5e650e7afc8a902839459455,wk67mioorl,"Deep vs Shallow",1,171,2020-07-08T14:39:42-07:00,4.6584188938141,2,versionA_stim.csv,RLVersionB.csv,"Relational Version B","Relational, read only version B",STAR,ACTRESS,Study2,B,120,105,Test,User,-,,Recall,Recall1,4190,,0,-1,-1,0,0,,1
5e650e7afc8a902839459455,wk67mioorl,"Deep vs Shallow",1,172,2020-07-08T14:39:53-07:00,10.91644692421,2,versionA_stim.csv,RLVersionB.csv,"Relational Version B","Relational, read only version B",TANTRUM,TEMPER,Study2,S,154,106,Test,User,-,,Recall,Recall1,10380,ANGRY,18.181818181818,7053,9903,0,0,,1
5e650e7afc8a902839459455,wk67mioorl,"Deep vs Shallow",1,173,2020-07-08T14:40:21-07:00,27.772786140442,2,versionA_stim.csv,RLVersionB.csv,"Relational Version B","Relational, read only version B",FUZZY,BANG,Study2,U,168,176,Test,User,-,,Recall,Recall1,27261,FUR,0,25426,26409,0,0,,0.596
5e650e7afc8a902839459455,wk67mioorl,"Deep vs Shallow",1,174,2020-07-08T14:40:57-07:00,36.17567896843,2,versionA_stim.csv,RLVersionB.csv,"Relational Version B","Relational, read only version B",TRUTH,LIE,Study2,S,148,153,Test,User,-,,Recall,Recall1,35684,LIE,100,34397,35050,1,1,,0.679
5e650e7afc8a902839459455,wk67mioorl,"Deep vs Shallow",1,175,2020-07-08T14:40:58-07:00,1.0557250976562,2,versionA_stim.csv,RLVersionB.csv,"Relational Version B","Relational, read only version B",EARTH,GROUND,Study2,S,144,131,Test,User,-,,Recall,Recall1,667,,0,-1,-1,0,0,,1
5e650e7afc8a902839459455,wk67mioorl,"Deep vs Shallow",1,176,2020-07-08T14:41:01-07:00,2.8517119884491,2,versionA_stim.csv,RLVersionB.csv,"Relational Version B","Relational, read only version B",Shell,SHAKE,Study2,U,163,117,Test,User,-,,Recall,Recall1,2480,SEA,50,1582,1993,0,0,,1
5e650e7afc8a902839459455,wk67mioorl,"Deep vs Shallow",1,177,2020-07-08T14:41:06-07:00,4.9422249794006,2,versionA_stim.csv,RLVersionB.csv,"Relational Version B","Relational, read only version B",LOUD,NOISE,Study2,S,152,115,Test,User,-,,Recall,Recall1,4565,QUIET,40,2375,4262,0,0,,1
5e650e7afc8a902839459455,wk67mioorl,"Deep vs Shallow",1,178,2020-07-08T14:41:07-07:00,1.1360158920288,2,versionA_stim.csv,RLVersionB.csv,"Relational Version B","Relational, read only version B",DOCUMENT,PAPER,Study2,F,109,111,Test,User,-,,Recall,Recall1,718,,0,-1,-1,0,0,,1
5e650e7afc8a902839459455,wk67mioorl,"Deep vs Shallow",1,179,2020-07-08T14:41:08-07:00,0.71249413490295,2,versionA_stim.csv,RLVersionB.csv,"Relational Version B","Relational, read only version B",FRUIT,STRAWBERRY,Study2,B,124,133,Test,User,-,,Recall,Recall1,351,,0,-1,-1,0,0,,1
5e650e7afc8a902839459455,wk67mioorl,"Deep vs Shallow",1,180,2020-07-08T14:41:08-07:00,0.65430498123169,2,versionA_stim.csv,RLVersionB.csv,"Relational Version B","Relational, read only version B",EXTENSION,LONG,Study2,F,96,101,Test,User,-,,Recall,Recall1,281,,0,-1,-1,0,0,,1
5e650e7afc8a902839459455,wk67mioorl,"Deep vs Shallow",1,181,2020-07-08T14:42:33-07:00,84.287650823593,2,versionA_stim.csv,RLVersionB.csv,"Relational Version B","Relational, read only version B",,,,,,0,Instruct,,10,"You will now be presented with a new set of word pairs. Please study each pair. Remember that your memory will be tested! When finished, press Enter to move to the next pair.",,Instruct10,83835,,,-1,-1,,,,0.216
5e650e7afc8a902839459455,wk67mioorl,"Deep vs Shallow",1,182,2020-07-08T14:43:08-07:00,35.550612211227,2,versionA_stim.csv,RLVersionB.csv,"Relational Version B","Relational, read only version B",,,,,,0,Instruct,-,15,"As you study, please think about how the two concepts are RELATED to each other. For example, if you see the pair TURTLE-CAT, think about how both are alive, they are both animals, and both can be kept as pets.",,Instruct20,35062,,,-1,-1,,,,0.406
5e650e7afc8a902839459455,wk67mioorl,"Deep vs Shallow",1,183,2020-07-08T14:43:21-07:00,13.334095001221,2,versionA_stim.csv,RLVersionB.csv,"Relational Version B","Relational, read only version B",,,,,,0,FreeRecall,-,10,"What you should think about as you study each item pair? Type your response in the box below.",,CHECK4,11835,"The association between the two words",0,3091,9887,0,0,,1
5e650e7afc8a902839459455,wk67mioorl,"Deep vs Shallow",1,184,2020-07-08T14:43:23-07:00,1.6359469890594,2,versionA_stim.csv,RLVersionB.csv,"Relational Version B","Relational, read only version B",,,,,,0,Instruct,User,-,"Press Enter when you are readty to begin",,Instruct11,1230,,,-1,-1,,,,1
5e650e7afc8a902839459455,wk67mioorl,"Deep vs Shallow",1,185,2020-07-08T14:43:25-07:00,2.3224999904633,2,versionA_stim.csv,RLVersionB.csv,"Relational Version B","Relational, read only version B",TREES,GREEN,BUFFER1,Buffer,1,2,Study,User,-,,Study/JOL,BUFFER3,1931,,,-1,-1,,,,1
5e650e7afc8a902839459455,wk67mioorl,"Deep vs Shallow",1,186,2020-07-08T14:43:27-07:00,1.9050469398499,2,versionA_stim.csv,RLVersionB.csv,"Relational Version B","Relational, read only version B",SCARE,HIDE,BUFFER1,Buffer,4,6,Study,User,-,,Study/JOL,BUFFER3,1501,,,-1,-1,,,,1
5e650e7afc8a902839459455,wk67mioorl,"Deep vs Shallow",1,187,2020-07-08T14:43:29-07:00,2.0533139705658,2,versionA_stim.csv,RLVersionB.csv,"Relational Version B","Relational, read only version B",PEANUT,BUTTER,BUFFER1,Buffer,3,4,Study,User,-,,Study/JOL,BUFFER3,1638,,,-1,-1,,,,1
5e650e7afc8a902839459455,wk67mioorl,"Deep vs Shallow",1,188,2020-07-08T14:43:31-07:00,1.3360850811005,2,versionA_stim.csv,RLVersionB.csv,"Relational Version B","Relational, read only version B",SPACE,JAM,BUFFER1,Buffer,5,3,Study,User,-,,Study/JOL,BUFFER3,935,,,-1,-1,,,,1
5e650e7afc8a902839459455,wk67mioorl,"Deep vs Shallow",1,189,2020-07-08T14:43:31-07:00,0.75858688354492,2,versionA_stim.csv,RLVersionB.csv,"Relational Version B","Relational, read only version B",BASEBALL,CATCHER,BUFFER1,Buffer,2,5,Study,User,-,,Study/JOL,BUFFER3,372,,,-1,-1,,,,1
5e650e7afc8a902839459455,wk67mioorl,"Deep vs Shallow",1,190,2020-07-08T14:43:32-07:00,0.59795093536377,2,versionA_stim.csv,RLVersionB.csv,"Relational Version B","Relational, read only version B",FULL,ENOUGH,Study1,B,26,72,Study,User,-,,Study/JOL,"Study Phase2",204,,,-1,-1,,,,1
5e650e7afc8a902839459455,wk67mioorl,"Deep vs Shallow",1,191,2020-07-08T14:43:33-07:00,1.0202331542969,2,versionA_stim.csv,RLVersionB.csv,"Relational Version B","Relational, read only version B",DISCOVER,FLOOR,Study1,U,71,46,Study,User,-,,Study/JOL,"Study Phase2",635,,,-1,-1,,,,1
5e650e7afc8a902839459455,wk67mioorl,"Deep vs Shallow",1,192,2020-07-08T14:43:35-07:00,2.2088229656219,2,versionA_stim.csv,RLVersionB.csv,"Relational Version B","Relational, read only version B",KEY,LATCH,Study1,B,36,59,Study,User,-,,Study/JOL,"Study Phase2",833,,,-1,-1,,,,1
5e650e7afc8a902839459455,wk67mioorl,"Deep vs Shallow",1,193,2020-07-08T14:43:37-07:00,2.0148589611053,2,versionA_stim.csv,RLVersionB.csv,"Relational Version B","Relational, read only version B",WORK,CHORE,Study1,B,39,69,Study,User,-,,Study/JOL,"Study Phase2",619,,,-1,-1,,,,1
5e650e7afc8a902839459455,wk67mioorl,"Deep vs Shallow",1,194,2020-07-08T14:43:38-07:00,0.77151107788086,2,versionA_stim.csv,RLVersionB.csv,"Relational Version B","Relational, read only version B",DUE,ASSIGNMENT,Study1,S,46,14,Study,User,-,,Study/JOL,"Study Phase2",381,,,-1,-1,,,,1
5e650e7afc8a902839459455,wk67mioorl,"Deep vs Shallow",1,195,2020-07-08T14:43:39-07:00,0.71367692947388,2,versionA_stim.csv,RLVersionB.csv,"Relational Version B","Relational, read only version B",REVOLUTION,WAR,Study1,F,20,7,Study,User,-,,Study/JOL,"Study Phase2",327,,,-1,-1,,,,1
5e650e7afc8a902839459455,wk67mioorl,"Deep vs Shallow",1,196,2020-07-08T14:43:39-07:00,0.68619394302368,2,versionA_stim.csv,RLVersionB.csv,"Relational Version B","Relational, read only version B",WAY,OUT,Study1,F,16,28,Study,User,-,,Study/JOL,"Study Phase2",292,,,-1,-1,,,,1
5e650e7afc8a902839459455,wk67mioorl,"Deep vs Shallow",1,197,2020-07-08T14:43:40-07:00,0.69575500488281,2,versionA_stim.csv,RLVersionB.csv,"Relational Version B","Relational, read only version B",TUNA,FISH,Study1,F,25,60,Study,User,-,,Study/JOL,"Study Phase2",303,,,-1,-1,,,,1
5e650e7afc8a902839459455,wk67mioorl,"Deep vs Shallow",1,198,2020-07-08T14:43:41-07:00,1.0001120567322,2,versionA_stim.csv,RLVersionB.csv,"Relational Version B","Relational, read only version B",FIX,HAND,Study1,U,75,41,Study,User,-,,Study/JOL,"Study Phase2",620,,,-1,-1,,,,1
5e650e7afc8a902839459455,wk67mioorl,"Deep vs Shallow",1,199,2020-07-08T14:43:42-07:00,1.3245220184326,2,versionA_stim.csv,RLVersionB.csv,"Relational Version B","Relational, read only version B",ORCHID,FLOWER,Study1,F,24,35,Study,User,-,,Study/JOL,"Study Phase2",954,,,-1,-1,,,,1
5e650e7afc8a902839459455,wk67mioorl,"Deep vs Shallow",1,200,2020-07-08T14:43:43-07:00,0.76955008506775,2,versionA_stim.csv,RLVersionB.csv,"Relational Version B","Relational, read only version B",FIRE,BLAZE,Study1,B,45,32,Study,User,-,,Study/JOL,"Study Phase2",396,,,-1,-1,,,,1
5e650e7afc8a902839459455,wk67mioorl,"Deep vs Shallow",1,201,2020-07-08T14:43:47-07:00,3.3492078781128,2,versionA_stim.csv,RLVersionB.csv,"Relational Version B","Relational, read only version B",SMELL,STENCH,Study1,B,42,53,Study,User,-,,Study/JOL,"Study Phase2",2973,,,-1,-1,,,,1
5e650e7afc8a902839459455,wk67mioorl,"Deep vs Shallow",1,202,2020-07-08T14:43:48-07:00,1.0185580253601,2,versionA_stim.csv,RLVersionB.csv,"Relational Version B","Relational, read only version B",GEOLOGY,ROCK,Study1,F,19,13,Study,User,-,,Study/JOL,"Study Phase2",576,,,-1,-1,,,,1
5e650e7afc8a902839459455,wk67mioorl,"Deep vs Shallow",1,203,2020-07-08T14:43:49-07:00,1.1123549938202,2,versionA_stim.csv,RLVersionB.csv,"Relational Version B","Relational, read only version B",KING,VASE,Study1,U,85,15,Study,User,-,,Study/JOL,"Study Phase2",728,,,-1,-1,,,,1
5e650e7afc8a902839459455,wk67mioorl,"Deep vs Shallow",1,204,2020-07-08T14:43:50-07:00,0.94092202186584,2,versionA_stim.csv,RLVersionB.csv,"Relational Version B","Relational, read only version B",BEGIN,END,Study1,S,54,68,Study,User,-,,Study/JOL,"Study Phase2",570,,,-1,-1,,,,1
5e650e7afc8a902839459455,wk67mioorl,"Deep vs Shallow",1,205,2020-07-08T14:43:51-07:00,0.96807408332825,2,versionA_stim.csv,RLVersionB.csv,"Relational Version B","Relational, read only version B",PUSHER,CLUTTER,Study1,U,66,19,Study,User,-,,Study/JOL,"Study Phase2",594,,,-1,-1,,,,1
5e650e7afc8a902839459455,wk67mioorl,"Deep vs Shallow",1,206,2020-07-08T14:43:54-07:00,3.7074480056763,2,versionA_stim.csv,RLVersionB.csv,"Relational Version B","Relational, read only version B",LAW,ATTORNEY,Study1,B,34,11,Study,User,-,,Study/JOL,"Study Phase2",3309,,,-1,-1,,,,0.778
5e650e7afc8a902839459455,wk67mioorl,"Deep vs Shallow",1,207,2020-07-08T14:43:58-07:00,3.5528860092163,2,versionA_stim.csv,RLVersionB.csv,"Relational Version B","Relational, read only version B",LIFT,WOMAN,Study1,U,69,57,Study,User,-,,Study/JOL,"Study Phase2",3186,,,-1,-1,,,,1
5e650e7afc8a902839459455,wk67mioorl,"Deep vs Shallow",1,208,2020-07-08T14:44:00-07:00,1.6628029346466,2,versionA_stim.csv,RLVersionB.csv,"Relational Version B","Relational, read only version B",DARK,CAVE,Study1,B,28,74,Study,User,-,,Study/JOL,"Study Phase2",1256,,,-1,-1,,,,1
5e650e7afc8a902839459455,wk67mioorl,"Deep vs Shallow",1,209,2020-07-08T14:44:02-07:00,2.3364579677582,2,versionA_stim.csv,RLVersionB.csv,"Relational Version B","Relational, read only version B",BLOW,WIND,Study1,S,55,44,Study,User,-,,Study/JOL,"Study Phase2",1942,,,-1,-1,,,,1
5e650e7afc8a902839459455,wk67mioorl,"Deep vs Shallow",1,210,2020-07-08T14:44:04-07:00,2.3166160583496,2,versionA_stim.csv,RLVersionB.csv,"Relational Version B","Relational, read only version B",DEATH,BUSINESS,Study1,U,72,48,Study,User,-,,Study/JOL,"Study Phase2",1922,,,-1,-1,,,,1
5e650e7afc8a902839459455,wk67mioorl,"Deep vs Shallow",1,211,2020-07-08T14:44:31-07:00,26.911620855331,2,versionA_stim.csv,RLVersionB.csv,"Relational Version B","Relational, read only version B",GREAT,FANTASTIC,Study1,B,35,8,Study,User,-,,Study/JOL,"Study Phase2",26433,,,-1,-1,,,,0.661
5e650e7afc8a902839459455,wk67mioorl,"Deep vs Shallow",1,212,2020-07-08T14:44:32-07:00,0.78148412704468,2,versionA_stim.csv,RLVersionB.csv,"Relational Version B","Relational, read only version B",ALLOW,TUCK,Study1,U,78,22,Study,User,-,,Study/JOL,"Study Phase2",376,,,-1,-1,,,,1
5e650e7afc8a902839459455,wk67mioorl,"Deep vs Shallow",1,213,2020-07-08T14:44:33-07:00,0.87064003944397,2,versionA_stim.csv,RLVersionB.csv,"Relational Version B","Relational, read only version B",MATH,DIVISION,Study1,B,33,37,Study,User,-,,Study/JOL,"Study Phase2",512,,,-1,-1,,,,1
5e650e7afc8a902839459455,wk67mioorl,"Deep vs Shallow",1,214,2020-07-08T14:44:35-07:00,2.4702668190002,2,versionA_stim.csv,RLVersionB.csv,"Relational Version B","Relational, read only version B",NUMBER,AMOUNT,Study1,S,47,50,Study,User,-,,Study/JOL,"Study Phase2",1097,,,-1,-1,,,,1
5e650e7afc8a902839459455,wk67mioorl,"Deep vs Shallow",1,215,2020-07-08T14:44:45-07:00,9.9072041511536,2,versionA_stim.csv,RLVersionB.csv,"Relational Version B","Relational, read only version B",DIGESTION,STOMACH,Study1,F,7,80,Study,User,-,,Study/JOL,"Study Phase2",8398,,,-1,-1,,,,1
5e650e7afc8a902839459455,wk67mioorl,"Deep vs Shallow",1,216,2020-07-08T14:44:47-07:00,1.8685028553009,2,versionA_stim.csv,RLVersionB.csv,"Relational Version B","Relational, read only version B",ARCHITECTURE,DESIGN,Study1,S,51,49,Study,User,-,,Study/JOL,"Study Phase2",1448,,,-1,-1,,,,1
5e650e7afc8a902839459455,wk67mioorl,"Deep vs Shallow",1,217,2020-07-08T14:44:49-07:00,1.8351581096649,2,versionA_stim.csv,RLVersionB.csv,"Relational Version B","Relational, read only version B",DEBATE,SIGHT,Study1,U,73,31,Study,User,-,,Study/JOL,"Study Phase2",1423,,,-1,-1,,,,1
5e650e7afc8a902839459455,wk67mioorl,"Deep vs Shallow",1,218,2020-07-08T14:44:51-07:00,1.8574640750885,2,versionA_stim.csv,RLVersionB.csv,"Relational Version B","Relational, read only version B",WINE,CHEESE,Study1,S,57,25,Study,User,-,,Study/JOL,"Study Phase2",1461,,,-1,-1,,,,1
5e650e7afc8a902839459455,wk67mioorl,"Deep vs Shallow",1,219,2020-07-08T14:44:57-07:00,6.4288458824158,2,versionA_stim.csv,RLVersionB.csv,"Relational Version B","Relational, read only version B",ART,LION,Study1,U,79,77,Study,User,-,,Study/JOL,"Study Phase2",5911,,,-1,-1,,,,1
5e650e7afc8a902839459455,wk67mioorl,"Deep vs Shallow",1,220,2020-07-08T14:44:58-07:00,1.2585110664368,2,versionA_stim.csv,RLVersionB.csv,"Relational Version B","Relational, read only version B",BRIDGE,WATER,Study1,F,18,81,Study,User,-,,Study/JOL,"Study Phase2",859,,,-1,-1,,,,1
5e650e7afc8a902839459455,wk67mioorl,"Deep vs Shallow",1,221,2020-07-08T14:45:11-07:00,12.831451892853,2,versionA_stim.csv,RLVersionB.csv,"Relational Version B","Relational, read only version B",BATHROOM,TOILET,Study1,S,58,64,Study,User,-,,Study/JOL,"Study Phase2",12321,,,-1,-1,,,,0.145
5e650e7afc8a902839459455,wk67mioorl,"Deep vs Shallow",1,222,2020-07-08T14:45:12-07:00,0.54339814186096,2,versionA_stim.csv,RLVersionB.csv,"Relational Version B","Relational, read only version B",SHOE,FOOT,Study1,S,60,62,Study,User,-,,Study/JOL,"Study Phase2",167,,,-1,-1,,,,1
5e650e7afc8a902839459455,wk67mioorl,"Deep vs Shallow",1,223,2020-07-08T14:45:12-07:00,0.72557497024536,2,versionA_stim.csv,RLVersionB.csv,"Relational Version B","Relational, read only version B",PAW,DOG,Study1,F,15,82,Study,User,-,,Study/JOL,"Study Phase2",375,,,-1,-1,,,,1
5e650e7afc8a902839459455,wk67mioorl,"Deep vs Shallow",1,224,2020-07-08T14:45:42-07:00,29.938514947891,2,versionA_stim.csv,RLVersionB.csv,"Relational Version B","Relational, read only version B",,,,,,0,Instruct,-,3,"Remember to focus on how the two items are similiar while you study!",,CHECK5,29490,,,-1,-1,,,,0.25
5e650e7afc8a902839459455,wk67mioorl,"Deep vs Shallow",1,225,2020-07-08T14:45:44-07:00,1.5259709358215,2,versionA_stim.csv,RLVersionB.csv,"Relational Version B","Relational, read only version B",DISCUSSION,TALK,Study1,F,21,39,Study,User,-,,Study/JOL,"Study Phase2",1114,,,-1,-1,,,,1
5e650e7afc8a902839459455,wk67mioorl,"Deep vs Shallow",1,226,2020-07-08T14:45:45-07:00,0.7397940158844,2,versionA_stim.csv,RLVersionB.csv,"Relational Version B","Relational, read only version B",MEANING,DEFINITION,Study1,S,62,70,Study,User,-,,Study/JOL,"Study Phase2",374,,,-1,-1,,,,1
5e650e7afc8a902839459455,wk67mioorl,"Deep vs Shallow",1,227,2020-07-08T14:45:46-07:00,0.81403112411499,2,versionA_stim.csv,RLVersionB.csv,"Relational Version B","Relational, read only version B",DUMP,WASTE,Study1,S,49,9,Study,User,-,,Study/JOL,"Study Phase2",445,,,-1,-1,,,,1
5e650e7afc8a902839459455,wk67mioorl,"Deep vs Shallow",1,228,2020-07-08T14:45:46-07:00,0.59308195114136,2,versionA_stim.csv,RLVersionB.csv,"Relational Version B","Relational, read only version B",SLEEP,DROWSY,Study1,B,41,30,Study,User,-,,Study/JOL,"Study Phase2",236,,,-1,-1,,,,1
5e650e7afc8a902839459455,wk67mioorl,"Deep vs Shallow",1,229,2020-07-08T14:45:47-07:00,0.58805704116821,2,versionA_stim.csv,RLVersionB.csv,"Relational Version B","Relational, read only version B",HORNET,STING,Study1,F,11,83,Study,User,-,,Study/JOL,"Study Phase2",232,,,-1,-1,,,,1
5e650e7afc8a902839459455,wk67mioorl,"Deep vs Shallow",1,230,2020-07-08T14:45:47-07:00,0.61081790924072,2,versionA_stim.csv,RLVersionB.csv,"Relational Version B","Relational, read only version B",DIETARY,SACKING,Study1,U,67,79,Study,User,-,,Study/JOL,"Study Phase2",255,,,-1,-1,,,,1
5e650e7afc8a902839459455,wk67mioorl,"Deep vs Shallow",1,231,2020-07-08T14:45:48-07:00,0.79718899726868,2,versionA_stim.csv,RLVersionB.csv,"Relational Version B","Relational, read only version B",SENTENCE,WORD,Study1,B,31,12,Study,User,-,,Study/JOL,"Study Phase2",419,,,-1,-1,,,,1
5e650e7afc8a902839459455,wk67mioorl,"Deep vs Shallow",1,232,2020-07-08T14:45:49-07:00,0.59314608573914,2,versionA_stim.csv,RLVersionB.csv,"Relational Version B","Relational, read only version B",PLANE,PILOT,Study1,B,44,86,Study,User,-,,Study/JOL,"Study Phase2",233,,,-1,-1,,,,1
5e650e7afc8a902839459455,wk67mioorl,"Deep vs Shallow",1,233,2020-07-08T14:45:50-07:00,1.038204908371,2,versionA_stim.csv,RLVersionB.csv,"Relational Version B","Relational, read only version B",GRILL,BAR,Study1,S,52,10,Study,User,-,,Study/JOL,"Study Phase2",634,,,-1,-1,,,,1
5e650e7afc8a902839459455,wk67mioorl,"Deep vs Shallow",1,234,2020-07-08T14:45:50-07:00,0.74371695518494,2,versionA_stim.csv,RLVersionB.csv,"Relational Version B","Relational, read only version B",HEIGHT,GROWTH,Study1,B,30,61,Study,User,-,,Study/JOL,"Study Phase2",352,,,-1,-1,,,,1
5e650e7afc8a902839459455,wk67mioorl,"Deep vs Shallow",1,235,2020-07-08T14:45:51-07:00,0.65228796005249,2,versionA_stim.csv,RLVersionB.csv,"Relational Version B","Relational, read only version B",TAKE,SEIZE,Study1,B,29,21,Study,User,-,,Study/JOL,"Study Phase2",284,,,-1,-1,,,,1
5e650e7afc8a902839459455,wk67mioorl,"Deep vs Shallow",1,236,2020-07-08T14:45:55-07:00,4.2583160400391,2,versionA_stim.csv,RLVersionB.csv,"Relational Version B","Relational, read only version B",BUG,WASP,Study1,B,32,34,Study,User,-,,Study/JOL,"Study Phase2",3750,,,-1,-1,,,,0.7
5e650e7afc8a902839459455,wk67mioorl,"Deep vs Shallow",1,237,2020-07-08T14:45:56-07:00,0.5630669593811,2,versionA_stim.csv,RLVersionB.csv,"Relational Version B","Relational, read only version B",KIDNEY,LIVER,Study1,S,53,58,Study,User,-,,Study/JOL,"Study Phase2",192,,,-1,-1,,,,1
5e650e7afc8a902839459455,wk67mioorl,"Deep vs Shallow",1,238,2020-07-08T14:45:57-07:00,0.66985821723938,2,versionA_stim.csv,RLVersionB.csv,"Relational Version B","Relational, read only version B",CREDIT,CARD,Study1,F,23,27,Study,User,-,,Study/JOL,"Study Phase2",303,,,-1,-1,,,,1
5e650e7afc8a902839459455,wk67mioorl,"Deep vs Shallow",1,239,2020-07-08T14:45:57-07:00,0.69665384292603,2,versionA_stim.csv,RLVersionB.csv,"Relational Version B","Relational, read only version B",HAPPY,CAR,Study1,U,77,71,Study,User,-,,Study/JOL,"Study Phase2",317,,,-1,-1,,,,1
5e650e7afc8a902839459455,wk67mioorl,"Deep vs Shallow",1,240,2020-07-08T14:45:58-07:00,0.9595320224762,2,versionA_stim.csv,RLVersionB.csv,"Relational Version B","Relational, read only version B",CASH,WOULD,Study1,U,83,73,Study,User,-,,Study/JOL,"Study Phase2",573,,,-1,-1,,,,1
5e650e7afc8a902839459455,wk67mioorl,"Deep vs Shallow",1,241,2020-07-08T14:45:59-07:00,0.7940981388092,2,versionA_stim.csv,RLVersionB.csv,"Relational Version B","Relational, read only version B",MACHINE,POSITION,Study1,U,76,17,Study,User,-,,Study/JOL,"Study Phase2",393,,,-1,-1,,,,1
5e650e7afc8a902839459455,wk67mioorl,"Deep vs Shallow",1,242,2020-07-08T14:46:00-07:00,0.53935694694519,2,versionA_stim.csv,RLVersionB.csv,"Relational Version B","Relational, read only version B",SOON,BELT,Study1,U,70,51,Study,User,-,,Study/JOL,"Study Phase2",151,,,-1,-1,,,,1
5e650e7afc8a902839459455,wk67mioorl,"Deep vs Shallow",1,243,2020-07-08T14:46:01-07:00,0.95444989204407,2,versionA_stim.csv,RLVersionB.csv,"Relational Version B","Relational, read only version B",HIDE,SICK,Study1,U,84,56,Study,User,-,,Study/JOL,"Study Phase2",345,,,-1,-1,,,,1
5e650e7afc8a902839459455,wk67mioorl,"Deep vs Shallow",1,244,2020-07-08T14:46:02-07:00,1.0524060726166,2,versionA_stim.csv,RLVersionB.csv,"Relational Version B","Relational, read only version B",SUGAR,RIDDLE,Study1,U,81,23,Study,User,-,,Study/JOL,"Study Phase2",333,,,-1,-1,,,,1
5e650e7afc8a902839459455,wk67mioorl,"Deep vs Shallow",1,245,2020-07-08T14:46:03-07:00,1.2240500450134,2,versionA_stim.csv,RLVersionB.csv,"Relational Version B","Relational, read only version B",ARTERY,BRONZE,Study1,U,74,38,Study,User,-,,Study/JOL,"Study Phase2",442,,,-1,-1,,,,1
5e650e7afc8a902839459455,wk67mioorl,"Deep vs Shallow",1,246,2020-07-08T14:46:04-07:00,1.255560874939,2,versionA_stim.csv,RLVersionB.csv,"Relational Version B","Relational, read only version B",POP,SODA,Study1,S,56,84,Study,User,-,,Study/JOL,"Study Phase2",372,,,-1,-1,,,,1
5e650e7afc8a902839459455,wk67mioorl,"Deep vs Shallow",1,247,2020-07-08T14:46:06-07:00,1.9098420143127,2,versionA_stim.csv,RLVersionB.csv,"Relational Version B","Relational, read only version B",ROOT,PLANT,Study1,F,13,47,Study,User,-,,Study/JOL,"Study Phase2",1310,,,-1,-1,,,,1
5e650e7afc8a902839459455,wk67mioorl,"Deep vs Shallow",1,248,2020-07-08T14:46:07-07:00,0.72676205635071,2,versionA_stim.csv,RLVersionB.csv,"Relational Version B","Relational, read only version B",STRONG,ACCIDENT,Study1,U,80,33,Study,User,-,,Study/JOL,"Study Phase2",334,,,-1,-1,,,,1
5e650e7afc8a902839459455,wk67mioorl,"Deep vs Shallow",1,249,2020-07-08T14:46:07-07:00,0.70453691482544,2,versionA_stim.csv,RLVersionB.csv,"Relational Version B","Relational, read only version B",EDITOR,NEWS,Study1,F,10,67,Study,User,-,,Study/JOL,"Study Phase2",332,,,-1,-1,,,,1
5e650e7afc8a902839459455,wk67mioorl,"Deep vs Shallow",1,250,2020-07-08T14:46:08-07:00,0.65047717094421,2,versionA_stim.csv,RLVersionB.csv,"Relational Version B","Relational, read only version B",LETTUCE,SALAD,Study1,S,59,55,Study,User,-,,Study/JOL,"Study Phase2",284,,,-1,-1,,,,1
5e650e7afc8a902839459455,wk67mioorl,"Deep vs Shallow",1,251,2020-07-08T14:46:09-07:00,0.59063601493835,2,versionA_stim.csv,RLVersionB.csv,"Relational Version B","Relational, read only version B",BITTER,COLD,Study1,F,12,85,Study,User,-,,Study/JOL,"Study Phase2",219,,,-1,-1,,,,1
5e650e7afc8a902839459455,wk67mioorl,"Deep vs Shallow",1,252,2020-07-08T14:46:09-07:00,0.5575578212738,2,versionA_stim.csv,RLVersionB.csv,"Relational Version B","Relational, read only version B",HOT,CHILI,Study1,B,37,43,Study,User,-,,Study/JOL,"Study Phase2",201,,,-1,-1,,,,1
5e650e7afc8a902839459455,wk67mioorl,"Deep vs Shallow",1,253,2020-07-08T14:46:10-07:00,0.60792398452759,2,versionA_stim.csv,RLVersionB.csv,"Relational Version B","Relational, read only version B",SWAN,BIRD,Study1,F,14,63,Study,User,-,,Study/JOL,"Study Phase2",237,,,-1,-1,,,,1
5e650e7afc8a902839459455,wk67mioorl,"Deep vs Shallow",1,254,2020-07-08T14:46:10-07:00,0.62914204597473,2,versionA_stim.csv,RLVersionB.csv,"Relational Version B","Relational, read only version B",VALLEY,ADD,Study1,U,82,16,Study,User,-,,Study/JOL,"Study Phase2",247,,,-1,-1,,,,1
5e650e7afc8a902839459455,wk67mioorl,"Deep vs Shallow",1,255,2020-07-08T14:46:11-07:00,0.54407095909119,2,versionA_stim.csv,RLVersionB.csv,"Relational Version B","Relational, read only version B",CLOTHES,ATTIRE,Study1,B,43,66,Study,User,-,,Study/JOL,"Study Phase2",178,,,-1,-1,,,,1
5e650e7afc8a902839459455,wk67mioorl,"Deep vs Shallow",1,256,2020-07-08T14:46:12-07:00,0.59394598007202,2,versionA_stim.csv,RLVersionB.csv,"Relational Version B","Relational, read only version B",CIRCLE,ROUND,Study1,S,65,26,Study,User,-,,Study/JOL,"Study Phase2",224,,,-1,-1,,,,1
5e650e7afc8a902839459455,wk67mioorl,"Deep vs Shallow",1,257,2020-07-08T14:46:12-07:00,0.57513809204102,2,versionA_stim.csv,RLVersionB.csv,"Relational Version B","Relational, read only version B",BALL,RACKET,Study1,B,38,45,Study,User,-,,Study/JOL,"Study Phase2",204,,,-1,-1,,,,1
5e650e7afc8a902839459455,wk67mioorl,"Deep vs Shallow",1,258,2020-07-08T14:46:13-07:00,0.63682198524475,2,versionA_stim.csv,RLVersionB.csv,"Relational Version B","Relational, read only version B",PARK,HUNGRY,Study1,U,68,29,Study,User,-,,Study/JOL,"Study Phase2",271,,,-1,-1,,,,1
5e650e7afc8a902839459455,wk67mioorl,"Deep vs Shallow",1,259,2020-07-08T14:46:13-07:00,0.55388212203979,2,versionA_stim.csv,RLVersionB.csv,"Relational Version B","Relational, read only version B",BABY,CHILD,Study1,S,64,40,Study,User,-,,Study/JOL,"Study Phase2",185,,,-1,-1,,,,1
5e650e7afc8a902839459455,wk67mioorl,"Deep vs Shallow",1,260,2020-07-08T14:46:15-07:00,1.7270088195801,2,versionA_stim.csv,RLVersionB.csv,"Relational Version B","Relational, read only version B",HERD,COW,Study1,F,22,78,Study,User,-,,Study/JOL,"Study Phase2",828,,,-1,-1,,,,1
5e650e7afc8a902839459455,wk67mioorl,"Deep vs Shallow",1,261,2020-07-08T14:46:19-07:00,3.8116891384125,2,versionA_stim.csv,RLVersionB.csv,"Relational Version B","Relational, read only version B",HYGIENE,CLEAN,Study1,F,17,54,Study,User,-,,Study/JOL,"Study Phase2",2391,,,-1,-1,,,,1
5e650e7afc8a902839459455,wk67mioorl,"Deep vs Shallow",1,262,2020-07-08T14:46:20-07:00,1.2552828788757,2,versionA_stim.csv,RLVersionB.csv,"Relational Version B","Relational, read only version B",HUNGER,FAMINE,Study1,B,40,36,Study,User,-,,Study/JOL,"Study Phase2",632,,,-1,-1,,,,1
5e650e7afc8a902839459455,wk67mioorl,"Deep vs Shallow",1,263,2020-07-08T14:46:21-07:00,1.0349409580231,2,versionA_stim.csv,RLVersionB.csv,"Relational Version B","Relational, read only version B",TRIAL,JURY,Study1,S,50,76,Study,User,-,,Study/JOL,"Study Phase2",503,,,-1,-1,,,,1
5e650e7afc8a902839459455,wk67mioorl,"Deep vs Shallow",1,264,2020-07-08T14:46:22-07:00,1.1692860126495,2,versionA_stim.csv,RLVersionB.csv,"Relational Version B","Relational, read only version B",LOCATION,SITE,Study1,S,48,42,Study,User,-,,Study/JOL,"Study Phase2",712,,,-1,-1,,,,1
5e650e7afc8a902839459455,wk67mioorl,"Deep vs Shallow",1,265,2020-07-08T14:46:26-07:00,3.9783771038055,2,versionA_stim.csv,RLVersionB.csv,"Relational Version B","Relational, read only version B",CHISEL,HAMMER,Study1,F,9,65,Study,User,-,,Study/JOL,"Study Phase2",3509,,,-1,-1,,,,0.846
5e650e7afc8a902839459455,wk67mioorl,"Deep vs Shallow",1,266,2020-07-08T14:46:28-07:00,1.2674510478973,2,versionA_stim.csv,RLVersionB.csv,"Relational Version B","Relational, read only version B",DELINQUENT,BAD,Study1,F,6,75,Study,User,-,,Study/JOL,"Study Phase2",852,,,-1,-1,,,,1
5e650e7afc8a902839459455,wk67mioorl,"Deep vs Shallow",1,267,2020-07-08T14:46:29-07:00,1.3050448894501,2,versionA_stim.csv,RLVersionB.csv,"Relational Version B","Relational, read only version B",DRINK,SIP,Study1,B,27,52,Study,User,-,,Study/JOL,"Study Phase2",932,,,-1,-1,,,,1
5e650e7afc8a902839459455,wk67mioorl,"Deep vs Shallow",1,268,2020-07-08T14:46:32-07:00,2.6626460552216,2,versionA_stim.csv,RLVersionB.csv,"Relational Version B","Relational, read only version B",HONEY,BEE,Study1,S,63,20,Study,User,-,,Study/JOL,"Study Phase2",2267,,,-1,-1,,,,1
5e650e7afc8a902839459455,wk67mioorl,"Deep vs Shallow",1,269,2020-07-08T14:46:35-07:00,3.1640219688416,2,versionA_stim.csv,RLVersionB.csv,"Relational Version B","Relational, read only version B",PAST,FUTURE,Study1,S,61,24,Study,User,-,,Study/JOL,"Study Phase2",2767,,,-1,-1,,,,1
5e650e7afc8a902839459455,wk67mioorl,"Deep vs Shallow",1,270,2020-07-08T14:46:36-07:00,1.5376379489899,2,versionA_stim.csv,RLVersionB.csv,"Relational Version B","Relational, read only version B",WAGE,MONEY,Study1,F,8,18,Study,User,-,,Study/JOL,"Study Phase2",1103,,,-1,-1,,,,1
5e650e7afc8a902839459455,wk67mioorl,"Deep vs Shallow",1,271,2020-07-08T14:46:37-07:00,1.1123659610748,2,versionA_stim.csv,RLVersionB.csv,"Relational Version B","Relational, read only version B",THING,STUFF,BUFFER2,Buffer,90,87,Study,User,-,,Study/JOL,BUFFER4,705,,,-1,-1,,,,1
5e650e7afc8a902839459455,wk67mioorl,"Deep vs Shallow",1,272,2020-07-08T14:46:38-07:00,0.86610412597656,2,versionA_stim.csv,RLVersionB.csv,"Relational Version B","Relational, read only version B",MOON,SPACE,BUFFER2,Buffer,89,88,Study,User,-,,Study/JOL,BUFFER4,472,,,-1,-1,,,,1
5e650e7afc8a902839459455,wk67mioorl,"Deep vs Shallow",1,273,2020-07-08T14:46:39-07:00,0.82070398330688,2,versionA_stim.csv,RLVersionB.csv,"Relational Version B","Relational, read only version B",MALT,CHOCOLATE,BUFFER2,Buffer,88,90,Study,User,-,,Study/JOL,BUFFER4,438,,,-1,-1,,,,1
5e650e7afc8a902839459455,wk67mioorl,"Deep vs Shallow",1,274,2020-07-08T14:46:43-07:00,4.0291340351105,2,versionA_stim.csv,RLVersionB.csv,"Relational Version B","Relational, read only version B",SHERRIF,POLICE,BUFFER2,Buffer,87,89,Study,User,-,,Study/JOL,BUFFER4,3633,,,-1,-1,,,,1
5e650e7afc8a902839459455,wk67mioorl,"Deep vs Shallow",1,275,2020-07-08T14:46:44-07:00,1.065269947052,2,versionA_stim.csv,RLVersionB.csv,"Relational Version B","Relational, read only version B",GEESE,GOOSE,BUFFER2,Buffer,86,91,Study,User,-,,Study/JOL,BUFFER4,670,,,-1,-1,,,,1
5e650e7afc8a902839459455,wk67mioorl,"Deep vs Shallow",1,276,2020-07-08T14:46:46-07:00,1.8279759883881,2,versionA_stim.csv,RLVersionB.csv,"Relational Version B","Relational, read only version B",,,,,,0,Instruct,User,-,"You have completed this section. Please press Enter.",Filler_Instruction,Instruct5,1451,,,-1,-1,,,,1
5e650e7afc8a902839459455,wk67mioorl,"Deep vs Shallow",1,277,2020-07-08T14:46:57-07:00,10.577772140503,2,versionA_stim.csv,RLVersionB.csv,"Relational Version B","Relational, read only version B",,,,,,0,FreeRecall,-,10,"What were you supposed to focus on while you studied each pair? (Hint: Think back to the instructions). Type your answer in the space below.",,CHECK3,10075,"how the two items are similiar",0,-1,-1,0,0,,0.809
5e650e7afc8a902839459455,wk67mioorl,"Deep vs Shallow",1,278,2020-07-08T14:46:58-07:00,1.5289688110352,2,versionA_stim.csv,RLVersionB.csv,"Relational Version B","Relational, read only version B",,,,,,0,Instruct,User,-,"You have completed this section. Please press Enter.",Filler_Instruction,Instruct5,1158,,,-1,-1,,,,1
5e650e7afc8a902839459455,wk67mioorl,"Deep vs Shallow",1,279,2020-07-08T14:48:59-07:00,120.89942312241,2,versionA_stim.csv,RLVersionB.csv,"Relational Version B","Relational, read only version B",,,,,,0,FreeRecall,120,120,"Please list the 50 US states in reverse alphabetical order (z - a). The task will automatically advance to the next screen after two minutes.",,Filler2,120425,"Wyoming Wisconsin West Virginia Washington Virginia Vermont Utah Texas Tennessee South Dakota South Carolina Rhode Island Pennsylvania Oregon Oklahoma Ohio North Dakota North Carolina New York New Mexico ",0,-1,-1,0,0,,0.822
5e650e7afc8a902839459455,wk67mioorl,"Deep vs Shallow",1,280,2020-07-08T14:49:38-07:00,38.876312971115,2,versionA_stim.csv,RLVersionB.csv,"Relational Version B","Relational, read only version B",,,,,,0,Instruct,-,10,"You will now be presented with the first word from each of the previously studied item pairs. Please type the missing word. If you do not know the word, you may guess or press Enter to skip forward to the next pair.",,Instruct6,38403,,,-1,-1,,,,0.476
5e650e7afc8a902839459455,wk67mioorl,"Deep vs Shallow",1,281,2020-07-08T14:49:47-07:00,9.097244977951,2,versionA_stim.csv,RLVersionB.csv,"Relational Version B","Relational, read only version B",SWAN,BIRD,Study1,F,14,63,Test,User,-,,Recall,Recall2,8616,Duck,25,3289,7709,0,0,,1
5e650e7afc8a902839459455,wk67mioorl,"Deep vs Shallow",1,282,2020-07-08T14:49:52-07:00,5.037859916687,2,versionA_stim.csv,RLVersionB.csv,"Relational Version B","Relational, read only version B",TAKE,SEIZE,Study1,B,29,21,Test,User,-,,Recall,Recall2,4326,LEAVE,40,2446,3991,0,0,,1
5e650e7afc8a902839459455,wk67mioorl,"Deep vs Shallow",1,283,2020-07-08T14:49:54-07:00,2.2817540168762,2,versionA_stim.csv,RLVersionB.csv,"Relational Version B","Relational, read only version B",GEOLOGY,ROCK,Study1,F,19,13,Test,User,-,,Recall,Recall2,1724,,0,-1,-1,0,0,,1
5e650e7afc8a902839459455,wk67mioorl,"Deep vs Shallow",1,284,2020-07-08T14:50:06-07:00,11.821519136429,2,versionA_stim.csv,RLVersionB.csv,"Relational Version B","Relational, read only version B",BLOW,WIND,Study1,S,55,44,Test,User,-,,Recall,Recall2,11265,WIND,100,9728,10731,1,1,,1
5e650e7afc8a902839459455,wk67mioorl,"Deep vs Shallow",1,285,2020-07-08T14:50:17-07:00,10.45606803894,2,versionA_stim.csv,RLVersionB.csv,"Relational Version B","Relational, read only version B",REVOLUTION,WAR,Study1,F,20,7,Test,User,-,,Recall,Recall2,9911,CIRCLE,22.222222222222,7249,9396,0,0,,0.52
5e650e7afc8a902839459455,wk67mioorl,"Deep vs Shallow",1,286,2020-07-08T14:50:28-07:00,10.936529874802,2,versionA_stim.csv,RLVersionB.csv,"Relational Version B","Relational, read only version B",CHISEL,HAMMER,Study1,F,9,65,Test,User,-,,Recall,Recall2,10409,ROCK,20,8618,9833,0,0,,0.846
5e650e7afc8a902839459455,wk67mioorl,"Deep vs Shallow",1,287,2020-07-08T14:50:33-07:00,5.4151470661163,2,versionA_stim.csv,RLVersionB.csv,"Relational Version B","Relational, read only version B",ORCHID,FLOWER,Study1,F,24,35,Test,User,-,,Recall,Recall2,5000,FLOWER,100,2461,4379,1,1,,1
5e650e7afc8a902839459455,wk67mioorl,"Deep vs Shallow",1,288,2020-07-08T14:50:40-07:00,6.622701883316,2,versionA_stim.csv,RLVersionB.csv,"Relational Version B","Relational, read only version B",NUMBER,AMOUNT,Study1,S,47,50,Test,User,-,,Recall,Recall2,6207,MATH,40,4472,5525,0,0,,1
5e650e7afc8a902839459455,wk67mioorl,"Deep vs Shallow",1,289,2020-07-08T14:50:46-07:00,6.800418138504,2,versionA_stim.csv,RLVersionB.csv,"Relational Version B","Relational, read only version B",WAGE,MONEY,Study1,F,8,18,Test,User,-,,Recall,Recall2,6377,MONEY,100,2611,4075,1,1,,1
5e650e7afc8a902839459455,wk67mioorl,"Deep vs Shallow",1,290,2020-07-08T14:51:05-07:00,18.311357021332,2,versionA_stim.csv,RLVersionB.csv,"Relational Version B","Relational, read only version B",DELINQUENT,BAD,Study1,F,6,75,Test,User,-,,Recall,Recall2,17833,,0,-1,-1,0,0,,1
5e650e7afc8a902839459455,wk67mioorl,"Deep vs Shallow",1,291,2020-07-08T14:51:42-07:00,37.65171289444,2,versionA_stim.csv,RLVersionB.csv,"Relational Version B","Relational, read only version B",CREDIT,CARD,Study1,F,23,27,Test,User,-,,Recall,Recall2,37148,CARD,100,33875,36925,1,1,,1
5e650e7afc8a902839459455,wk67mioorl,"Deep vs Shallow",1,292,2020-07-08T14:51:48-07:00,6.094878911972,2,versionA_stim.csv,RLVersionB.csv,"Relational Version B","Relational, read only version B",POP,SODA,Study1,S,56,84,Test,User,-,,Recall,Recall2,5718,BUBBLE,0,4131,5454,0,0,,1
5e650e7afc8a902839459455,wk67mioorl,"Deep vs Shallow",1,293,2020-07-08T14:51:50-07:00,1.7062361240387,2,versionA_stim.csv,RLVersionB.csv,"Relational Version B","Relational, read only version B",DIETARY,SACKING,Study1,U,67,79,Test,User,-,,Recall,Recall2,1310,,0,-1,-1,0,0,,1
5e650e7afc8a902839459455,wk67mioorl,"Deep vs Shallow",1,294,2020-07-08T14:51:55-07:00,4.469780921936,2,versionA_stim.csv,RLVersionB.csv,"Relational Version B","Relational, read only version B",SHOE,FOOT,Study1,S,60,62,Test,User,-,,Recall,Recall2,4063,LACE,0,1379,3625,0,0,,1
5e650e7afc8a902839459455,wk67mioorl,"Deep vs Shallow",1,295,2020-07-08T14:51:59-07:00,4.7549340724945,2,versionA_stim.csv,RLVersionB.csv,"Relational Version B","Relational, read only version B",ARTERY,BRONZE,Study1,U,74,38,Test,User,-,,Recall,Recall2,3342,LIVE,20,2200,3082,0,0,,1
5e650e7afc8a902839459455,wk67mioorl,"Deep vs Shallow",1,296,2020-07-08T14:52:01-07:00,1.1588499546051,2,versionA_stim.csv,RLVersionB.csv,"Relational Version B","Relational, read only version B",VALLEY,ADD,Study1,U,82,16,Test,User,-,,Recall,Recall2,757,,0,-1,-1,0,0,,1
5e650e7afc8a902839459455,wk67mioorl,"Deep vs Shallow",1,297,2020-07-08T14:52:01-07:00,0.71516513824463,2,versionA_stim.csv,RLVersionB.csv,"Relational Version B","Relational, read only version B",HONEY,BEE,Study1,S,63,20,Test,User,-,,Recall,Recall2,332,,0,-1,-1,0,0,,1
5e650e7afc8a902839459455,wk67mioorl,"Deep vs Shallow",1,298,2020-07-08T14:52:03-07:00,2.1592450141907,2,versionA_stim.csv,RLVersionB.csv,"Relational Version B","Relational, read only version B",MACHINE,POSITION,Study1,U,76,17,Test,User,-,,Recall,Recall2,1781,,0,-1,-1,0,0,,1
5e650e7afc8a902839459455,wk67mioorl,"Deep vs Shallow",1,299,2020-07-08T14:52:07-07:00,3.1883358955383,2,versionA_stim.csv,RLVersionB.csv,"Relational Version B","Relational, read only version B",STRONG,ACCIDENT,Study1,U,80,33,Test,User,-,,Recall,Recall2,2773,WEAK,16.666666666667,1404,2327,0,0,,1
5e650e7afc8a902839459455,wk67mioorl,"Deep vs Shallow",1,300,2020-07-08T14:52:09-07:00,2.0144150257111,2,versionA_stim.csv,RLVersionB.csv,"Relational Version B","Relational, read only version B",ARCHITECTURE,DESIGN,Study1,S,51,49,Test,User,-,,Recall,Recall2,1599,,0,-1,-1,0,0,,1
5e650e7afc8a902839459455,wk67mioorl,"Deep vs Shallow",1,301,2020-07-08T14:52:13-07:00,4.8318979740143,2,versionA_stim.csv,RLVersionB.csv,"Relational Version B","Relational, read only version B",GRILL,BAR,Study1,S,52,10,Test,User,-,,Recall,Recall2,4433,MEA,33.333333333333,3428,3969,0,0,,1
5e650e7afc8a902839459455,wk67mioorl,"Deep vs Shallow",1,302,2020-07-08T14:52:18-07:00,4.1574819087982,2,versionA_stim.csv,RLVersionB.csv,"Relational Version B","Relational, read only version B",DARK,CAVE,Study1,B,28,74,Test,User,-,,Recall,Recall2,3735,LIGHT,0,2494,3439,0,0,,1
5e650e7afc8a902839459455,wk67mioorl,"Deep vs Shallow",1,303,2020-07-08T14:52:30-07:00,12.333276033401,2,versionA_stim.csv,RLVersionB.csv,"Relational Version B","Relational, read only version B",BEGIN,END,Study1,S,54,68,Test,User,-,,Recall,Recall2,11821,START,0,10396,11439,0,0,,0.905
5e650e7afc8a902839459455,wk67mioorl,"Deep vs Shallow",1,304,2020-07-08T14:52:36-07:00,6.4933159351349,2,versionA_stim.csv,RLVersionB.csv,"Relational Version B","Relational, read only version B",CASH,WOULD,Study1,U,83,73,Test,User,-,,Recall,Recall2,5095,BANKER,0,2387,4656,0,0,,1
5e650e7afc8a902839459455,wk67mioorl,"Deep vs Shallow",1,305,2020-07-08T14:52:48-07:00,11.785642147064,2,versionA_stim.csv,RLVersionB.csv,"Relational Version B","Relational, read only version B",ART,LION,Study1,U,79,77,Test,User,-,,Recall,Recall2,11283,,0,-1,-1,0,0,,0.263
5e650e7afc8a902839459455,wk67mioorl,"Deep vs Shallow",1,306,2020-07-08T14:52:52-07:00,3.5915060043335,2,versionA_stim.csv,RLVersionB.csv,"Relational Version B","Relational, read only version B",DISCUSSION,TALK,Study1,F,21,39,Test,User,-,,Recall,Recall2,3170,TALK,100,1898,2900,1,1,,1
5e650e7afc8a902839459455,wk67mioorl,"Deep vs Shallow",1,307,2020-07-08T14:52:58-07:00,6.3788840770721,2,versionA_stim.csv,RLVersionB.csv,"Relational Version B","Relational, read only version B",ROOT,PLANT,Study1,F,13,47,Test,User,-,,Recall,Recall2,5997,TREE,22.222222222222,3523,4366,0,0,,1
5e650e7afc8a902839459455,wk67mioorl,"Deep vs Shallow",1,308,2020-07-08T14:53:01-07:00,2.7116539478302,2,versionA_stim.csv,RLVersionB.csv,"Relational Version B","Relational, read only version B",SENTENCE,WORD,Study1,B,31,12,Test,User,-,,Recall,Recall2,2291,,0,-1,-1,0,0,,1
5e650e7afc8a902839459455,wk67mioorl,"Deep vs Shallow",1,309,2020-07-08T14:53:03-07:00,2.0775148868561,2,versionA_stim.csv,RLVersionB.csv,"Relational Version B","Relational, read only version B",TRIAL,JURY,Study1,S,50,76,Test,User,-,,Recall,Recall2,1689,,0,-1,-1,0,0,,1
5e650e7afc8a902839459455,wk67mioorl,"Deep vs Shallow",1,310,2020-07-08T14:53:04-07:00,1.2513790130615,2,versionA_stim.csv,RLVersionB.csv,"Relational Version B","Relational, read only version B",WORK,CHORE,Study1,B,39,69,Test,User,-,,Recall,Recall2,861,,0,-1,-1,0,0,,1
5e650e7afc8a902839459455,wk67mioorl,"Deep vs Shallow",1,311,2020-07-08T14:53:08-07:00,4.1021800041199,2,versionA_stim.csv,RLVersionB.csv,"Relational Version B","Relational, read only version B",BATHROOM,TOILET,Study1,S,58,64,Test,User,-,,Recall,Recall2,3736,TOILET,100,1634,3190,1,1,,1
5e650e7afc8a902839459455,wk67mioorl,"Deep vs Shallow",1,312,2020-07-08T14:53:10-07:00,1.9380850791931,2,versionA_stim.csv,RLVersionB.csv,"Relational Version B","Relational, read only version B",HUNGER,FAMINE,Study1,B,40,36,Test,User,-,,Recall,Recall2,1526,,0,-1,-1,0,0,,1
5e650e7afc8a902839459455,wk67mioorl,"Deep vs Shallow",1,313,2020-07-08T14:53:15-07:00,5.1505780220032,2,versionA_stim.csv,RLVersionB.csv,"Relational Version B","Relational, read only version B",KEY,LATCH,Study1,B,36,59,Test,User,-,,Recall,Recall2,4756,LOCK,44.444444444444,3115,4227,0,0,,1
5e650e7afc8a902839459455,wk67mioorl,"Deep vs Shallow",1,314,2020-07-08T14:53:22-07:00,6.9884159564972,2,versionA_stim.csv,RLVersionB.csv,"Relational Version B","Relational, read only version B",DUE,ASSIGNMENT,Study1,S,46,14,Test,User,-,,Recall,Recall2,6520,DATE,28.571428571429,5191,5984,0,0,,0.931
5e650e7afc8a902839459455,wk67mioorl,"Deep vs Shallow",1,315,2020-07-08T14:53:24-07:00,1.2277319431305,2,versionA_stim.csv,RLVersionB.csv,"Relational Version B","Relational, read only version B",FULL,ENOUGH,Study1,B,26,72,Test,User,-,,Recall,Recall2,805,,0,-1,-1,0,0,,1
5e650e7afc8a902839459455,wk67mioorl,"Deep vs Shallow",1,316,2020-07-08T14:53:31-07:00,7.3978719711304,2,versionA_stim.csv,RLVersionB.csv,"Relational Version B","Relational, read only version B",LIFT,WOMAN,Study1,U,69,57,Test,User,-,,Recall,Recall2,7009,WOMAN,100,1657,6344,1,1,,1
5e650e7afc8a902839459455,wk67mioorl,"Deep vs Shallow",1,317,2020-07-08T14:53:33-07:00,2.3888130187988,2,versionA_stim.csv,RLVersionB.csv,"Relational Version B","Relational, read only version B",EDITOR,NEWS,Study1,F,10,67,Test,User,-,,Recall,Recall2,1995,,0,-1,-1,0,0,,1
5e650e7afc8a902839459455,wk67mioorl,"Deep vs Shallow",1,318,2020-07-08T14:53:34-07:00,1.0751719474792,2,versionA_stim.csv,RLVersionB.csv,"Relational Version B","Relational, read only version B",PUSHER,CLUTTER,Study1,U,66,19,Test,User,-,,Recall,Recall2,674,,0,-1,-1,0,0,,1
5e650e7afc8a902839459455,wk67mioorl,"Deep vs Shallow",1,319,2020-07-08T14:53:39-07:00,4.2549130916595,2,versionA_stim.csv,RLVersionB.csv,"Relational Version B","Relational, read only version B",BABY,CHILD,Study1,S,64,40,Test,User,-,,Recall,Recall2,3865,CHILD,100,2327,3503,1,1,,1
5e650e7afc8a902839459455,wk67mioorl,"Deep vs Shallow",1,320,2020-07-08T14:53:48-07:00,9.2573220729828,2,versionA_stim.csv,RLVersionB.csv,"Relational Version B","Relational, read only version B",KING,VASE,Study1,U,85,15,Test,User,-,,Recall,Recall2,8812,QUEEN,22.222222222222,7225,8428,0,0,,1
5e650e7afc8a902839459455,wk67mioorl,"Deep vs Shallow",1,321,2020-07-08T14:53:49-07:00,1.0670709609985,2,versionA_stim.csv,RLVersionB.csv,"Relational Version B","Relational, read only version B",PARK,HUNGRY,Study1,U,68,29,Test,User,-,,Recall,Recall2,629,,0,-1,-1,0,0,,1
5e650e7afc8a902839459455,wk67mioorl,"Deep vs Shallow",1,322,2020-07-08T14:53:50-07:00,0.88315105438232,2,versionA_stim.csv,RLVersionB.csv,"Relational Version B","Relational, read only version B",PAW,DOG,Study1,F,15,82,Test,User,-,,Recall,Recall2,497,,0,-1,-1,0,0,,1
5e650e7afc8a902839459455,wk67mioorl,"Deep vs Shallow",1,323,2020-07-08T14:53:51-07:00,0.96173787117004,2,versionA_stim.csv,RLVersionB.csv,"Relational Version B","Relational, read only version B",MATH,DIVISION,Study1,B,33,37,Test,User,-,,Recall,Recall2,487,,0,-1,-1,0,0,,1
5e650e7afc8a902839459455,wk67mioorl,"Deep vs Shallow",1,324,2020-07-08T14:53:54-07:00,2.8298439979553,2,versionA_stim.csv,RLVersionB.csv,"Relational Version B","Relational, read only version B",GREAT,FANTASTIC,Study1,B,35,8,Test,User,-,,Recall,Recall2,2359,,0,-1,-1,0,0,,1
5e650e7afc8a902839459455,wk67mioorl,"Deep vs Shallow",1,325,2020-07-08T14:53:59-07:00,5.1744990348816,2,versionA_stim.csv,RLVersionB.csv,"Relational Version B","Relational, read only version B",BUG,WASP,Study1,B,32,34,Test,User,-,,Recall,Recall2,4757,NET,0,3897,4462,0,0,,1
5e650e7afc8a902839459455,wk67mioorl,"Deep vs Shallow",1,326,2020-07-08T14:54:03-07:00,4.4837989807129,2,versionA_stim.csv,RLVersionB.csv,"Relational Version B","Relational, read only version B",DUMP,WASTE,Study1,S,49,9,Test,User,-,,Recall,Recall2,3581,TRUCK,20,1799,3294,0,0,,1
5e650e7afc8a902839459455,wk67mioorl,"Deep vs Shallow",1,327,2020-07-08T14:54:11-07:00,7.8071699142456,2,versionA_stim.csv,RLVersionB.csv,"Relational Version B","Relational, read only version B",HEIGHT,GROWTH,Study1,B,30,61,Test,User,-,,Recall,Recall2,7248,WEIGHT,33.333333333333,5532,6975,0,0,,1
5e650e7afc8a902839459455,wk67mioorl,"Deep vs Shallow",1,328,2020-07-08T14:54:14-07:00,2.5852570533752,2,versionA_stim.csv,RLVersionB.csv,"Relational Version B","Relational, read only version B",DISCOVER,FLOOR,Study1,U,71,46,Test,User,-,,Recall,Recall2,2146,,0,-1,-1,0,0,,1
5e650e7afc8a902839459455,wk67mioorl,"Deep vs Shallow",1,329,2020-07-08T14:54:19-07:00,5.3578779697418,2,versionA_stim.csv,RLVersionB.csv,"Relational Version B","Relational, read only version B",KIDNEY,LIVER,Study1,S,53,58,Test,User,-,,Recall,Recall2,4920,LIVER,100,2860,4612,1,1,,0.952
5e650e7afc8a902839459455,wk67mioorl,"Deep vs Shallow",1,330,2020-07-08T14:54:21-07:00,2.0204920768738,2,versionA_stim.csv,RLVersionB.csv,"Relational Version B","Relational, read only version B",WAY,OUT,Study1,F,16,28,Test,User,-,,Recall,Recall2,1637,,0,-1,-1,0,0,,1
5e650e7afc8a902839459455,wk67mioorl,"Deep vs Shallow",1,331,2020-07-08T14:54:28-07:00,6.5169289112091,2,versionA_stim.csv,RLVersionB.csv,"Relational Version B","Relational, read only version B",PLANE,PILOT,Study1,B,44,86,Test,User,-,,Recall,Recall2,6064,AIR,25,3800,5077,0,0,,1
5e650e7afc8a902839459455,wk67mioorl,"Deep vs Shallow",1,332,2020-07-08T14:54:56-07:00,27.988957166672,2,versionA_stim.csv,RLVersionB.csv,"Relational Version B","Relational, read only version B",DIGESTION,STOMACH,Study1,F,7,80,Test,User,-,,Recall,Recall2,27394,STOMACH,100,22094,26569,1,1,,0.421
5e650e7afc8a902839459455,wk67mioorl,"Deep vs Shallow",1,333,2020-07-08T14:55:03-07:00,6.9902579784393,2,versionA_stim.csv,RLVersionB.csv,"Relational Version B","Relational, read only version B",DEATH,BUSINESS,Study1,U,72,48,Test,User,-,,Recall,Recall2,6550,LIFE,33.333333333333,5123,6209,0,0,,1
5e650e7afc8a902839459455,wk67mioorl,"Deep vs Shallow",1,334,2020-07-08T14:55:14-07:00,11.72100186348,2,versionA_stim.csv,RLVersionB.csv,"Relational Version B","Relational, read only version B",DRINK,SIP,Study1,B,27,52,Test,User,-,,Recall,Recall2,11220,BEVERAGE,0,8158,10647,0,0,,1
5e650e7afc8a902839459455,wk67mioorl,"Deep vs Shallow",1,335,2020-07-08T14:55:19-07:00,4.6124219894409,2,versionA_stim.csv,RLVersionB.csv,"Relational Version B","Relational, read only version B",MEANING,DEFINITION,Study1,S,62,70,Test,User,-,,Recall,Recall2,4190,,0,-1,-1,0,0,,1
5e650e7afc8a902839459455,wk67mioorl,"Deep vs Shallow",1,336,2020-07-08T14:55:42-07:00,22.948049068451,2,versionA_stim.csv,RLVersionB.csv,"Relational Version B","Relational, read only version B",SOON,BELT,Study1,U,70,51,Test,User,-,,Recall,Recall2,22461,,0,-1,-1,0,0,,0.63
5e650e7afc8a902839459455,wk67mioorl,"Deep vs Shallow",1,337,2020-07-08T14:55:43-07:00,1.464693069458,2,versionA_stim.csv,RLVersionB.csv,"Relational Version B","Relational, read only version B",HERD,COW,Study1,F,22,78,Test,User,-,,Recall,Recall2,1040,,0,-1,-1,0,0,,1
5e650e7afc8a902839459455,wk67mioorl,"Deep vs Shallow",1,338,2020-07-08T14:55:46-07:00,2.2725150585175,2,versionA_stim.csv,RLVersionB.csv,"Relational Version B","Relational, read only version B",WINE,CHEESE,Study1,S,57,25,Test,User,-,,Recall,Recall2,1850,,0,-1,-1,0,0,,1
5e650e7afc8a902839459455,wk67mioorl,"Deep vs Shallow",1,339,2020-07-08T14:55:53-07:00,7.5321459770203,2,versionA_stim.csv,RLVersionB.csv,"Relational Version B","Relational, read only version B",HOT,CHILI,Study1,B,37,43,Test,User,-,,Recall,Recall2,7037,COLD,44.444444444444,5524,6780,0,0,,1
5e650e7afc8a902839459455,wk67mioorl,"Deep vs Shallow",1,340,2020-07-08T14:55:55-07:00,1.5290079116821,2,versionA_stim.csv,RLVersionB.csv,"Relational Version B","Relational, read only version B",BRIDGE,WATER,Study1,F,18,81,Test,User,-,,Recall,Recall2,1122,,0,-1,-1,0,0,,1
5e650e7afc8a902839459455,wk67mioorl,"Deep vs Shallow",1,341,2020-07-08T14:56:01-07:00,5.9106631278992,2,versionA_stim.csv,RLVersionB.csv,"Relational Version B","Relational, read only version B",SUGAR,RIDDLE,Study1,U,81,23,Test,User,-,,Recall,Recall2,5511,SALT,20,3632,4883,0,0,,1
5e650e7afc8a902839459455,wk67mioorl,"Deep vs Shallow",1,342,2020-07-08T14:56:07-07:00,6.4891579151154,2,versionA_stim.csv,RLVersionB.csv,"Relational Version B","Relational, read only version B",SLEEP,DROWSY,Study1,B,41,30,Test,User,-,,Recall,Recall2,6069,WAKE,20,4336,5658,0,0,,1
5e650e7afc8a902839459455,wk67mioorl,"Deep vs Shallow",1,343,2020-07-08T14:56:09-07:00,1.8278880119324,2,versionA_stim.csv,RLVersionB.csv,"Relational Version B","Relational, read only version B",ALLOW,TUCK,Study1,U,78,22,Test,User,-,,Recall,Recall2,952,,0,-1,-1,0,0,,1
5e650e7afc8a902839459455,wk67mioorl,"Deep vs Shallow",1,344,2020-07-08T14:56:15-07:00,5.6407730579376,2,versionA_stim.csv,RLVersionB.csv,"Relational Version B","Relational, read only version B",CIRCLE,ROUND,Study1,S,65,26,Test,User,-,,Recall,Recall2,5206,SQUARE,18.181818181818,2927,4712,0,0,,1
5e650e7afc8a902839459455,wk67mioorl,"Deep vs Shallow",1,345,2020-07-08T14:56:38-07:00,22.937410831451,2,versionA_stim.csv,RLVersionB.csv,"Relational Version B","Relational, read only version B",LETTUCE,SALAD,Study1,S,59,55,Test,User,-,,Recall,Recall2,22456,,0,-1,-1,0,0,,0.818
