Username,ID,ExperimentName,Session,Trial,Date,TimeDif,"Condition Number","Stimuli File","Order File","Condition Description","Condition Notes",Stimuli*Cue,Stimuli*Answer,Stimuli*Shuffle,"Stimuli*Stimuli Notes",Stimuli*Value,Procedure*Item,"Procedure*Trial Type","Procedure*Max Time","Procedure*Min Time",Procedure*Text,"Procedure*Procedure Notes",Procedure*Shuffle,Response*RT,Response*Response,Response*Accuracy,Response*RTfirst,Response*RTlast,Response*strictAcc,Response*lenientAcc,Response*focus,Response*Focus
5e96033d16389f06cce88f0f,gfj4fhejuz,"Deep vs Shallow",1,1,2020-07-08T14:28:54-07:00,12.229732036591,3,versionC_stim.csv,RLVersionC.csv,"Realational Version C","Relational, read only version C",,,,,,0,Instruct,-,10,"In this section, you will be presented with a series of word pairs. Please study both items in the pair.",,Instruct15,11673,,,-1,-1,,,,1
5e96033d16389f06cce88f0f,gfj4fhejuz,"Deep vs Shallow",1,2,2020-07-08T14:29:14-07:00,20.215242147446,3,versionC_stim.csv,RLVersionC.csv,"Realational Version C","Relational, read only version C",,,,,,0,Instruct,-,15,"As you study, please think about how the two concepts are RELATED to each other. For example, if you see the pair TURTLE-CAT, think about how both are alive, they are both animals, and both can be kept as pets.",,Instruct19,19499,,,-1,-1,,,,1
5e96033d16389f06cce88f0f,gfj4fhejuz,"Deep vs Shallow",1,3,2020-07-08T14:29:55-07:00,40.404141902924,3,versionC_stim.csv,RLVersionC.csv,"Realational Version C","Relational, read only version C",,,,,,0,FreeRecall,-,10,"What you should think about as you study each item pair? Type your response in the box below.",,CHECK1,39808,"how they are related to each other ",0,14546,37047,0,0,,1
5e96033d16389f06cce88f0f,gfj4fhejuz,"Deep vs Shallow",1,4,2020-07-08T14:30:00-07:00,5.5252249240875,3,versionC_stim.csv,RLVersionC.csv,"Realational Version C","Relational, read only version C",,,,,,0,Instruct,User,-,"You will now begin the experiment. Press ENTER when you are ready to begin.",,Instruct000,4705,,,-1,-1,,,,1
5e96033d16389f06cce88f0f,gfj4fhejuz,"Deep vs Shallow",1,5,2020-07-08T14:30:04-07:00,3.6900899410248,3,versionC_stim.csv,RLVersionC.csv,"Realational Version C","Relational, read only version C",HIDE,SCARE,BUFFER1,Buffer,4,3,Study,User,-,,Study/JOL,BUFFER,2962,,,-1,-1,,,,1
5e96033d16389f06cce88f0f,gfj4fhejuz,"Deep vs Shallow",1,6,2020-07-08T14:30:52-07:00,48.436516046524,3,versionC_stim.csv,RLVersionC.csv,"Realational Version C","Relational, read only version C",JAM,SPACE,BUFFER1,Buffer,5,2,Study,User,-,,Study/JOL,BUFFER,47670,,,-1,-1,,,,1
5e96033d16389f06cce88f0f,gfj4fhejuz,"Deep vs Shallow",1,7,2020-07-08T14:31:04-07:00,11.571087121964,3,versionC_stim.csv,RLVersionC.csv,"Realational Version C","Relational, read only version C",BUTTER,PEANUT,BUFFER1,Buffer,3,6,Study,User,-,,Study/JOL,BUFFER,10845,,,-1,-1,,,,1
5e96033d16389f06cce88f0f,gfj4fhejuz,"Deep vs Shallow",1,8,2020-07-08T14:31:14-07:00,10.645863056183,3,versionC_stim.csv,RLVersionC.csv,"Realational Version C","Relational, read only version C",GREEN,TREES,BUFFER1,Buffer,1,4,Study,User,-,,Study/JOL,BUFFER,9855,,,-1,-1,,,,1
5e96033d16389f06cce88f0f,gfj4fhejuz,"Deep vs Shallow",1,9,2020-07-08T14:31:31-07:00,16.794395923615,3,versionC_stim.csv,RLVersionC.csv,"Realational Version C","Relational, read only version C",CATCHER,BASEBALL,BUFFER1,Buffer,2,5,Study,User,-,,Study/JOL,BUFFER,16023,,,-1,-1,,,,1
5e96033d16389f06cce88f0f,gfj4fhejuz,"Deep vs Shallow",1,10,2020-07-08T14:31:41-07:00,10.257003068924,3,versionC_stim.csv,RLVersionC.csv,"Realational Version C","Relational, read only version C",BLAZE,FIRE,Study1,F,45,55,Study,User,-,,Study/JOL,"Study Phase",9496,,,-1,-1,,,,1
5e96033d16389f06cce88f0f,gfj4fhejuz,"Deep vs Shallow",1,11,2020-07-08T14:31:56-07:00,14.429951906204,3,versionC_stim.csv,RLVersionC.csv,"Realational Version C","Relational, read only version C",SODA,POP,Study1,S,56,56,Study,User,-,,Study/JOL,"Study Phase",13701,,,-1,-1,,,,1
5e96033d16389f06cce88f0f,gfj4fhejuz,"Deep vs Shallow",1,12,2020-07-08T14:32:17-07:00,21.390866994858,3,versionC_stim.csv,RLVersionC.csv,"Realational Version C","Relational, read only version C",FLOWER,ORCHID,Study1,B,24,41,Study,User,-,,Study/JOL,"Study Phase",20636,,,-1,-1,,,,1
5e96033d16389f06cce88f0f,gfj4fhejuz,"Deep vs Shallow",1,13,2020-07-08T14:32:25-07:00,7.2943849563599,3,versionC_stim.csv,RLVersionC.csv,"Realational Version C","Relational, read only version C",SICK,HIDE,Study1,U,84,72,Study,User,-,,Study/JOL,"Study Phase",6226,,,-1,-1,,,,1
5e96033d16389f06cce88f0f,gfj4fhejuz,"Deep vs Shallow",1,14,2020-07-08T14:32:37-07:00,12.07811498642,3,versionC_stim.csv,RLVersionC.csv,"Realational Version C","Relational, read only version C",MONEY,WAGE,Study1,B,8,68,Study,User,-,,Study/JOL,"Study Phase",11254,,,-1,-1,,,,1
5e96033d16389f06cce88f0f,gfj4fhejuz,"Deep vs Shallow",1,15,2020-07-08T14:32:44-07:00,7.0555851459503,3,versionC_stim.csv,RLVersionC.csv,"Realational Version C","Relational, read only version C",END,BEGIN,Study1,S,54,14,Study,User,-,,Study/JOL,"Study Phase",6257,,,-1,-1,,,,1
5e96033d16389f06cce88f0f,gfj4fhejuz,"Deep vs Shallow",1,16,2020-07-08T14:32:52-07:00,7.8450458049774,3,versionC_stim.csv,RLVersionC.csv,"Realational Version C","Relational, read only version C",HAND,FIX,Study1,U,75,19,Study,User,-,,Study/JOL,"Study Phase",6627,,,-1,-1,,,,1
5e96033d16389f06cce88f0f,gfj4fhejuz,"Deep vs Shallow",1,17,2020-07-08T14:32:59-07:00,7.4873061180115,3,versionC_stim.csv,RLVersionC.csv,"Realational Version C","Relational, read only version C",CHEESE,WINE,Study1,S,57,10,Study,User,-,,Study/JOL,"Study Phase",5583,,,-1,-1,,,,1
5e96033d16389f06cce88f0f,gfj4fhejuz,"Deep vs Shallow",1,18,2020-07-08T14:33:10-07:00,10.569802045822,3,versionC_stim.csv,RLVersionC.csv,"Realational Version C","Relational, read only version C",STING,HORNET,Study1,B,11,62,Study,User,-,,Study/JOL,"Study Phase",9741,,,-1,-1,,,,1
5e96033d16389f06cce88f0f,gfj4fhejuz,"Deep vs Shallow",1,19,2020-07-08T14:33:18-07:00,8.4959378242493,3,versionC_stim.csv,RLVersionC.csv,"Realational Version C","Relational, read only version C",JURY,TRIAL,Study1,S,50,85,Study,User,-,,Study/JOL,"Study Phase",6663,,,-1,-1,,,,1
5e96033d16389f06cce88f0f,gfj4fhejuz,"Deep vs Shallow",1,20,2020-07-08T14:33:36-07:00,18.127329111099,3,versionC_stim.csv,RLVersionC.csv,"Realational Version C","Relational, read only version C",WOULD,CASH,Study1,U,83,40,Study,User,-,,Study/JOL,"Study Phase",17355,,,-1,-1,,,,1
5e96033d16389f06cce88f0f,gfj4fhejuz,"Deep vs Shallow",1,21,2020-07-08T14:34:33-07:00,57.240909099579,3,versionC_stim.csv,RLVersionC.csv,"Realational Version C","Relational, read only version C",AMOUNT,NUMBER,Study1,S,47,45,Study,User,-,,Study/JOL,"Study Phase",55941,,,-1,-1,,,,0.961
5e96033d16389f06cce88f0f,gfj4fhejuz,"Deep vs Shallow",1,22,2020-07-08T14:34:41-07:00,7.6837890148163,3,versionC_stim.csv,RLVersionC.csv,"Realational Version C","Relational, read only version C",FISH,TUNA,Study1,B,25,11,Study,User,-,,Study/JOL,"Study Phase",6937,,,-1,-1,,,,1
5e96033d16389f06cce88f0f,gfj4fhejuz,"Deep vs Shallow",1,23,2020-07-08T14:34:50-07:00,8.9047768115997,3,versionC_stim.csv,RLVersionC.csv,"Realational Version C","Relational, read only version C",DIVISION,MATH,Study1,F,33,86,Study,User,-,,Study/JOL,"Study Phase",8139,,,-1,-1,,,,1
5e96033d16389f06cce88f0f,gfj4fhejuz,"Deep vs Shallow",1,24,2020-07-08T14:35:00-07:00,9.9324650764465,3,versionC_stim.csv,RLVersionC.csv,"Realational Version C","Relational, read only version C",STENCH,SMELL,Study1,F,42,15,Study,User,-,,Study/JOL,"Study Phase",9083,,,-1,-1,,,,1
5e96033d16389f06cce88f0f,gfj4fhejuz,"Deep vs Shallow",1,25,2020-07-08T14:35:13-07:00,13.412126064301,3,versionC_stim.csv,RLVersionC.csv,"Realational Version C","Relational, read only version C",WAR,REVOLUTION,Study1,B,20,71,Study,User,-,,Study/JOL,"Study Phase",12701,,,-1,-1,,,,1
5e96033d16389f06cce88f0f,gfj4fhejuz,"Deep vs Shallow",1,26,2020-07-08T14:35:22-07:00,8.6867518424988,3,versionC_stim.csv,RLVersionC.csv,"Realational Version C","Relational, read only version C",SITE,LOCATION,Study1,S,48,31,Study,User,-,,Study/JOL,"Study Phase",8092,,,-1,-1,,,,1
5e96033d16389f06cce88f0f,gfj4fhejuz,"Deep vs Shallow",1,27,2020-07-08T14:35:30-07:00,7.5002679824829,3,versionC_stim.csv,RLVersionC.csv,"Realational Version C","Relational, read only version C",FUTURE,PAST,Study1,S,61,61,Study,User,-,,Study/JOL,"Study Phase",6621,,,-1,-1,,,,1
5e96033d16389f06cce88f0f,gfj4fhejuz,"Deep vs Shallow",1,28,2020-07-08T14:35:40-07:00,10.543614149094,3,versionC_stim.csv,RLVersionC.csv,"Realational Version C","Relational, read only version C",DOG,PAW,Study1,B,15,8,Study,User,-,,Study/JOL,"Study Phase",9696,,,-1,-1,,,,1
5e96033d16389f06cce88f0f,gfj4fhejuz,"Deep vs Shallow",1,29,2020-07-08T14:35:54-07:00,14.33783698082,3,versionC_stim.csv,RLVersionC.csv,"Realational Version C","Relational, read only version C",TALK,DISCUSSION,Study1,B,21,70,Study,User,-,,Study/JOL,"Study Phase",13567,,,-1,-1,,,,1
5e96033d16389f06cce88f0f,gfj4fhejuz,"Deep vs Shallow",1,30,2020-07-08T14:36:04-07:00,9.7290709018707,3,versionC_stim.csv,RLVersionC.csv,"Realational Version C","Relational, read only version C",BAD,DELINQUENT,Study1,B,6,17,Study,User,-,,Study/JOL,"Study Phase",8934,,,-1,-1,,,,1
5e96033d16389f06cce88f0f,gfj4fhejuz,"Deep vs Shallow",1,31,2020-07-08T14:36:13-07:00,9.1135210990906,3,versionC_stim.csv,RLVersionC.csv,"Realational Version C","Relational, read only version C",RIDDLE,SUGAR,Study1,U,81,13,Study,User,-,,Study/JOL,"Study Phase",8320,,,-1,-1,,,,1
5e96033d16389f06cce88f0f,gfj4fhejuz,"Deep vs Shallow",1,32,2020-07-08T14:36:20-07:00,6.1831269264221,3,versionC_stim.csv,RLVersionC.csv,"Realational Version C","Relational, read only version C",PLANT,ROOT,Study1,B,13,16,Study,User,-,,Study/JOL,"Study Phase",5411,,,-1,-1,,,,1
5e96033d16389f06cce88f0f,gfj4fhejuz,"Deep vs Shallow",1,33,2020-07-08T14:36:29-07:00,9.1120049953461,3,versionC_stim.csv,RLVersionC.csv,"Realational Version C","Relational, read only version C",FOOT,SHOE,Study1,S,60,35,Study,User,-,,Study/JOL,"Study Phase",8204,,,-1,-1,,,,1
5e96033d16389f06cce88f0f,gfj4fhejuz,"Deep vs Shallow",1,34,2020-07-08T14:36:36-07:00,7.1310150623322,3,versionC_stim.csv,RLVersionC.csv,"Realational Version C","Relational, read only version C",DROWSY,SLEEP,Study1,F,41,25,Study,User,-,,Study/JOL,"Study Phase",6353,,,-1,-1,,,,1
5e96033d16389f06cce88f0f,gfj4fhejuz,"Deep vs Shallow",1,35,2020-07-08T14:36:48-07:00,12.593728065491,3,versionC_stim.csv,RLVersionC.csv,"Realational Version C","Relational, read only version C",WASTE,DUMP,Study1,S,49,23,Study,User,-,,Study/JOL,"Study Phase",11788,,,-1,-1,,,,1
5e96033d16389f06cce88f0f,gfj4fhejuz,"Deep vs Shallow",1,36,2020-07-08T14:37:03-07:00,14.758343935013,3,versionC_stim.csv,RLVersionC.csv,"Realational Version C","Relational, read only version C",WASP,BUG,Study1,F,32,80,Study,User,-,,Study/JOL,"Study Phase",13903,,,-1,-1,,,,1
5e96033d16389f06cce88f0f,gfj4fhejuz,"Deep vs Shallow",1,37,2020-07-08T14:37:13-07:00,10.356494903564,3,versionC_stim.csv,RLVersionC.csv,"Realational Version C","Relational, read only version C",PILOT,PLANE,Study1,F,44,29,Study,User,-,,Study/JOL,"Study Phase",5295,,,-1,-1,,,,1
5e96033d16389f06cce88f0f,gfj4fhejuz,"Deep vs Shallow",1,38,2020-07-08T14:37:30-07:00,16.891986131668,3,versionC_stim.csv,RLVersionC.csv,"Realational Version C","Relational, read only version C",CHILD,BABY,Study1,S,64,63,Study,User,-,,Study/JOL,"Study Phase",16154,,,-1,-1,,,,1
5e96033d16389f06cce88f0f,gfj4fhejuz,"Deep vs Shallow",1,39,2020-07-08T14:37:37-07:00,6.2669360637665,3,versionC_stim.csv,RLVersionC.csv,"Realational Version C","Relational, read only version C",COLD,BITTER,Study1,B,12,20,Study,User,-,,Study/JOL,"Study Phase",5464,,,-1,-1,,,,1
5e96033d16389f06cce88f0f,gfj4fhejuz,"Deep vs Shallow",1,40,2020-07-08T14:37:45-07:00,7.8959608078003,3,versionC_stim.csv,RLVersionC.csv,"Realational Version C","Relational, read only version C",WOMAN,LIFT,Study1,U,69,9,Study,User,-,,Study/JOL,"Study Phase",6994,,,-1,-1,,,,1
5e96033d16389f06cce88f0f,gfj4fhejuz,"Deep vs Shallow",1,41,2020-07-08T14:37:58-07:00,13.666880130768,3,versionC_stim.csv,RLVersionC.csv,"Realational Version C","Relational, read only version C",ROCK,GEOLOGY,Study1,B,19,22,Study,User,-,,Study/JOL,"Study Phase",12851,,,-1,-1,,,,1
5e96033d16389f06cce88f0f,gfj4fhejuz,"Deep vs Shallow",1,42,2020-07-08T14:38:04-07:00,6.1496949195862,3,versionC_stim.csv,RLVersionC.csv,"Realational Version C","Relational, read only version C",RACKET,BALL,Study1,F,38,44,Study,User,-,,Study/JOL,"Study Phase",5320,,,-1,-1,,,,1
5e96033d16389f06cce88f0f,gfj4fhejuz,"Deep vs Shallow",1,43,2020-07-08T14:38:14-07:00,9.2176561355591,3,versionC_stim.csv,RLVersionC.csv,"Realational Version C","Relational, read only version C",FAMINE,HUNGER,Study1,F,40,49,Study,User,-,,Study/JOL,"Study Phase",8489,,,-1,-1,,,,1
5e96033d16389f06cce88f0f,gfj4fhejuz,"Deep vs Shallow",1,44,2020-07-08T14:38:20-07:00,6.1324558258057,3,versionC_stim.csv,RLVersionC.csv,"Realational Version C","Relational, read only version C",,,,,,0,Instruct,-,3,"Remember to focus on how the two items are similiar while you study!",,CHECK2,4390,,,-1,-1,,,,1
5e96033d16389f06cce88f0f,gfj4fhejuz,"Deep vs Shallow",1,45,2020-07-08T14:38:30-07:00,9.9345560073853,3,versionC_stim.csv,RLVersionC.csv,"Realational Version C","Relational, read only version C",COW,HERD,Study1,B,22,82,Study,User,-,,Study/JOL,"Study Phase",8164,,,-1,-1,,,,1
5e96033d16389f06cce88f0f,gfj4fhejuz,"Deep vs Shallow",1,46,2020-07-08T14:38:38-07:00,8.6016821861267,3,versionC_stim.csv,RLVersionC.csv,"Realational Version C","Relational, read only version C",CHORE,WORK,Study1,F,39,32,Study,User,-,,Study/JOL,"Study Phase",7794,,,-1,-1,,,,1
5e96033d16389f06cce88f0f,gfj4fhejuz,"Deep vs Shallow",1,47,2020-07-08T14:38:49-07:00,10.720059871674,3,versionC_stim.csv,RLVersionC.csv,"Realational Version C","Relational, read only version C",BRONZE,ARTERY,Study1,U,74,78,Study,User,-,,Study/JOL,"Study Phase",8811,,,-1,-1,,,,1
5e96033d16389f06cce88f0f,gfj4fhejuz,"Deep vs Shallow",1,48,2020-07-08T14:38:59-07:00,9.5734000205994,3,versionC_stim.csv,RLVersionC.csv,"Realational Version C","Relational, read only version C",SIP,DRINK,Study1,F,27,64,Study,User,-,,Study/JOL,"Study Phase",7809,,,-1,-1,,,,1
5e96033d16389f06cce88f0f,gfj4fhejuz,"Deep vs Shallow",1,49,2020-07-08T14:39:04-07:00,5.9215450286865,3,versionC_stim.csv,RLVersionC.csv,"Realational Version C","Relational, read only version C",CARD,CREDIT,Study1,B,23,53,Study,User,-,,Study/JOL,"Study Phase",5209,,,-1,-1,,,,1
5e96033d16389f06cce88f0f,gfj4fhejuz,"Deep vs Shallow",1,50,2020-07-08T14:39:27-07:00,22.248336076736,3,versionC_stim.csv,RLVersionC.csv,"Realational Version C","Relational, read only version C",DESIGN,ARCHITECTURE,Study1,S,51,79,Study,User,-,,Study/JOL,"Study Phase",21339,,,-1,-1,,,,1
5e96033d16389f06cce88f0f,gfj4fhejuz,"Deep vs Shallow",1,51,2020-07-08T14:39:46-07:00,18.911960840225,3,versionC_stim.csv,RLVersionC.csv,"Realational Version C","Relational, read only version C",ACCIDENT,STRONG,Study1,U,80,33,Study,User,-,,Study/JOL,"Study Phase",17035,,,-1,-1,,,,1
5e96033d16389f06cce88f0f,gfj4fhejuz,"Deep vs Shallow",1,52,2020-07-08T14:39:57-07:00,11.275274991989,3,versionC_stim.csv,RLVersionC.csv,"Realational Version C","Relational, read only version C",TOILET,BATHROOM,Study1,S,58,77,Study,User,-,,Study/JOL,"Study Phase",10347,,,-1,-1,,,,1
5e96033d16389f06cce88f0f,gfj4fhejuz,"Deep vs Shallow",1,53,2020-07-08T14:40:08-07:00,10.96613407135,3,versionC_stim.csv,RLVersionC.csv,"Realational Version C","Relational, read only version C",ATTIRE,CLOTHES,Study1,F,43,54,Study,User,-,,Study/JOL,"Study Phase",10132,,,-1,-1,,,,1
5e96033d16389f06cce88f0f,gfj4fhejuz,"Deep vs Shallow",1,54,2020-07-08T14:40:21-07:00,13.405812978745,3,versionC_stim.csv,RLVersionC.csv,"Realational Version C","Relational, read only version C",WIND,BLOW,Study1,S,55,83,Study,User,-,,Study/JOL,"Study Phase",12524,,,-1,-1,,,,1
5e96033d16389f06cce88f0f,gfj4fhejuz,"Deep vs Shallow",1,55,2020-07-08T14:40:32-07:00,11.161498069763,3,versionC_stim.csv,RLVersionC.csv,"Realational Version C","Relational, read only version C",CLUTTER,PUSHER,Study1,U,66,67,Study,User,-,,Study/JOL,"Study Phase",10289,,,-1,-1,,,,1
5e96033d16389f06cce88f0f,gfj4fhejuz,"Deep vs Shallow",1,56,2020-07-08T14:40:42-07:00,9.9365680217743,3,versionC_stim.csv,RLVersionC.csv,"Realational Version C","Relational, read only version C",CAVE,DARK,Study1,F,28,38,Study,User,-,,Study/JOL,"Study Phase",9055,,,-1,-1,,,,1
5e96033d16389f06cce88f0f,gfj4fhejuz,"Deep vs Shallow",1,57,2020-07-08T14:40:55-07:00,12.706670999527,3,versionC_stim.csv,RLVersionC.csv,"Realational Version C","Relational, read only version C",OUT,WAY,Study1,B,16,69,Study,User,-,,Study/JOL,"Study Phase",11773,,,-1,-1,,,,1
5e96033d16389f06cce88f0f,gfj4fhejuz,"Deep vs Shallow",1,58,2020-07-08T14:41:09-07:00,14.314123868942,3,versionC_stim.csv,RLVersionC.csv,"Realational Version C","Relational, read only version C",POSITION,MACHINE,Study1,U,76,12,Study,User,-,,Study/JOL,"Study Phase",13386,,,-1,-1,,,,1
5e96033d16389f06cce88f0f,gfj4fhejuz,"Deep vs Shallow",1,59,2020-07-08T14:41:19-07:00,9.6237559318542,3,versionC_stim.csv,RLVersionC.csv,"Realational Version C","Relational, read only version C",FANTASTIC,GREAT,Study1,F,35,28,Study,User,-,,Study/JOL,"Study Phase",8854,,,-1,-1,,,,1
5e96033d16389f06cce88f0f,gfj4fhejuz,"Deep vs Shallow",1,60,2020-07-08T14:41:26-07:00,6.6631691455841,3,versionC_stim.csv,RLVersionC.csv,"Realational Version C","Relational, read only version C",BEE,HONEY,Study1,S,63,46,Study,User,-,,Study/JOL,"Study Phase",5892,,,-1,-1,,,,1
5e96033d16389f06cce88f0f,gfj4fhejuz,"Deep vs Shallow",1,61,2020-07-08T14:41:33-07:00,7.6771330833435,3,versionC_stim.csv,RLVersionC.csv,"Realational Version C","Relational, read only version C",ATTORNEY,LAW,Study1,F,34,36,Study,User,-,,Study/JOL,"Study Phase",6899,,,-1,-1,,,,1
5e96033d16389f06cce88f0f,gfj4fhejuz,"Deep vs Shallow",1,62,2020-07-08T14:41:39-07:00,5.1732318401337,3,versionC_stim.csv,RLVersionC.csv,"Realational Version C","Relational, read only version C",LION,ART,Study1,U,79,42,Study,User,-,,Study/JOL,"Study Phase",4441,,,-1,-1,,,,1
5e96033d16389f06cce88f0f,gfj4fhejuz,"Deep vs Shallow",1,63,2020-07-08T14:41:48-07:00,9.0634269714355,3,versionC_stim.csv,RLVersionC.csv,"Realational Version C","Relational, read only version C",WATER,BRIDGE,Study1,B,18,37,Study,User,-,,Study/JOL,"Study Phase",8309,,,-1,-1,,,,1
5e96033d16389f06cce88f0f,gfj4fhejuz,"Deep vs Shallow",1,64,2020-07-08T14:41:50-07:00,2.281131029129,3,versionC_stim.csv,RLVersionC.csv,"Realational Version C","Relational, read only version C",TUCK,ALLOW,Study1,U,78,50,Study,User,-,,Study/JOL,"Study Phase",1559,,,-1,-1,,,,1
5e96033d16389f06cce88f0f,gfj4fhejuz,"Deep vs Shallow",1,65,2020-07-08T14:41:52-07:00,2.629802942276,3,versionC_stim.csv,RLVersionC.csv,"Realational Version C","Relational, read only version C",NEWS,EDITOR,Study1,B,10,73,Study,User,-,,Study/JOL,"Study Phase",1886,,,-1,-1,,,,1
5e96033d16389f06cce88f0f,gfj4fhejuz,"Deep vs Shallow",1,66,2020-07-08T14:41:54-07:00,1.8689811229706,3,versionC_stim.csv,RLVersionC.csv,"Realational Version C","Relational, read only version C",VASE,KING,Study1,U,85,59,Study,User,-,,Study/JOL,"Study Phase",1265,,,-1,-1,,,,1
5e96033d16389f06cce88f0f,gfj4fhejuz,"Deep vs Shallow",1,67,2020-07-08T14:41:56-07:00,1.6306810379028,3,versionC_stim.csv,RLVersionC.csv,"Realational Version C","Relational, read only version C",SACKING,DIETARY,Study1,U,67,60,Study,User,-,,Study/JOL,"Study Phase",1064,,,-1,-1,,,,1
5e96033d16389f06cce88f0f,gfj4fhejuz,"Deep vs Shallow",1,68,2020-07-08T14:41:58-07:00,2.2040269374847,3,versionC_stim.csv,RLVersionC.csv,"Realational Version C","Relational, read only version C",ADD,VALLEY,Study1,U,82,30,Study,User,-,,Study/JOL,"Study Phase",1647,,,-1,-1,,,,1
5e96033d16389f06cce88f0f,gfj4fhejuz,"Deep vs Shallow",1,69,2020-07-08T14:42:01-07:00,3.2031490802765,3,versionC_stim.csv,RLVersionC.csv,"Realational Version C","Relational, read only version C",BAR,GRILL,Study1,S,52,47,Study,User,-,,Study/JOL,"Study Phase",2457,,,-1,-1,,,,1
5e96033d16389f06cce88f0f,gfj4fhejuz,"Deep vs Shallow",1,70,2020-07-08T14:42:03-07:00,1.5166380405426,3,versionC_stim.csv,RLVersionC.csv,"Realational Version C","Relational, read only version C",CHILI,HOT,Study1,F,37,18,Study,User,-,,Study/JOL,"Study Phase",910,,,-1,-1,,,,1
5e96033d16389f06cce88f0f,gfj4fhejuz,"Deep vs Shallow",1,71,2020-07-08T14:42:04-07:00,1.3979399204254,3,versionC_stim.csv,RLVersionC.csv,"Realational Version C","Relational, read only version C",ENOUGH,FULL,Study1,F,26,52,Study,User,-,,Study/JOL,"Study Phase",792,,,-1,-1,,,,1
5e96033d16389f06cce88f0f,gfj4fhejuz,"Deep vs Shallow",1,72,2020-07-08T14:42:06-07:00,1.715399980545,3,versionC_stim.csv,RLVersionC.csv,"Realational Version C","Relational, read only version C",LATCH,KEY,Study1,F,36,75,Study,User,-,,Study/JOL,"Study Phase",1183,,,-1,-1,,,,1
5e96033d16389f06cce88f0f,gfj4fhejuz,"Deep vs Shallow",1,73,2020-07-08T14:42:08-07:00,1.8275790214539,3,versionC_stim.csv,RLVersionC.csv,"Realational Version C","Relational, read only version C",BUSINESS,DEATH,Study1,U,72,43,Study,User,-,,Study/JOL,"Study Phase",1243,,,-1,-1,,,,1
5e96033d16389f06cce88f0f,gfj4fhejuz,"Deep vs Shallow",1,74,2020-07-08T14:42:10-07:00,1.9563300609589,3,versionC_stim.csv,RLVersionC.csv,"Realational Version C","Relational, read only version C",STOMACH,DIGESTION,Study1,B,7,7,Study,User,-,,Study/JOL,"Study Phase",1466,,,-1,-1,,,,1
5e96033d16389f06cce88f0f,gfj4fhejuz,"Deep vs Shallow",1,75,2020-07-08T14:42:12-07:00,1.7282409667969,3,versionC_stim.csv,RLVersionC.csv,"Realational Version C","Relational, read only version C",BIRD,SWAN,Study1,B,14,81,Study,User,-,,Study/JOL,"Study Phase",1024,,,-1,-1,,,,1
5e96033d16389f06cce88f0f,gfj4fhejuz,"Deep vs Shallow",1,76,2020-07-08T14:42:15-07:00,3.2786710262299,3,versionC_stim.csv,RLVersionC.csv,"Realational Version C","Relational, read only version C",ROUND,CIRCLE,Study1,S,65,24,Study,User,-,,Study/JOL,"Study Phase",2535,,,-1,-1,,,,1
5e96033d16389f06cce88f0f,gfj4fhejuz,"Deep vs Shallow",1,77,2020-07-08T14:42:18-07:00,2.8712959289551,3,versionC_stim.csv,RLVersionC.csv,"Realational Version C","Relational, read only version C",SEIZE,TAKE,Study1,F,29,58,Study,User,-,,Study/JOL,"Study Phase",2136,,,-1,-1,,,,1
5e96033d16389f06cce88f0f,gfj4fhejuz,"Deep vs Shallow",1,78,2020-07-08T14:42:19-07:00,1.7146310806274,3,versionC_stim.csv,RLVersionC.csv,"Realational Version C","Relational, read only version C",BELT,SOON,Study1,U,70,65,Study,User,-,,Study/JOL,"Study Phase",1120,,,-1,-1,,,,1
5e96033d16389f06cce88f0f,gfj4fhejuz,"Deep vs Shallow",1,79,2020-07-08T14:42:22-07:00,2.784717798233,3,versionC_stim.csv,RLVersionC.csv,"Realational Version C","Relational, read only version C",ASSIGNMENT,DUE,Study1,S,46,74,Study,User,-,,Study/JOL,"Study Phase",2124,,,-1,-1,,,,1
5e96033d16389f06cce88f0f,gfj4fhejuz,"Deep vs Shallow",1,80,2020-07-08T14:42:24-07:00,1.9939801692963,3,versionC_stim.csv,RLVersionC.csv,"Realational Version C","Relational, read only version C",GROWTH,HEIGHT,Study1,F,30,27,Study,User,-,,Study/JOL,"Study Phase",1393,,,-1,-1,,,,1
5e96033d16389f06cce88f0f,gfj4fhejuz,"Deep vs Shallow",1,81,2020-07-08T14:42:26-07:00,1.6710660457611,3,versionC_stim.csv,RLVersionC.csv,"Realational Version C","Relational, read only version C",SIGHT,DEBATE,Study1,U,73,34,Study,User,-,,Study/JOL,"Study Phase",1139,,,-1,-1,,,,1
5e96033d16389f06cce88f0f,gfj4fhejuz,"Deep vs Shallow",1,82,2020-07-08T14:42:27-07:00,1.3966038227081,3,versionC_stim.csv,RLVersionC.csv,"Realational Version C","Relational, read only version C",SALAD,LETTUCE,Study1,S,59,21,Study,User,-,,Study/JOL,"Study Phase",851,,,-1,-1,,,,1
5e96033d16389f06cce88f0f,gfj4fhejuz,"Deep vs Shallow",1,83,2020-07-08T14:42:29-07:00,1.954950094223,3,versionC_stim.csv,RLVersionC.csv,"Realational Version C","Relational, read only version C",HAMMER,CHISEL,Study1,B,9,76,Study,User,-,,Study/JOL,"Study Phase",1420,,,-1,-1,,,,1
5e96033d16389f06cce88f0f,gfj4fhejuz,"Deep vs Shallow",1,84,2020-07-08T14:42:34-07:00,4.5542020797729,3,versionC_stim.csv,RLVersionC.csv,"Realational Version C","Relational, read only version C",LIVER,KIDNEY,Study1,S,53,39,Study,User,-,,Study/JOL,"Study Phase",3775,,,-1,-1,,,,1
5e96033d16389f06cce88f0f,gfj4fhejuz,"Deep vs Shallow",1,85,2020-07-08T14:42:36-07:00,1.9088079929352,3,versionC_stim.csv,RLVersionC.csv,"Realational Version C","Relational, read only version C",HUNGRY,PARK,Study1,U,68,57,Study,User,-,,Study/JOL,"Study Phase",1315,,,-1,-1,,,,1
5e96033d16389f06cce88f0f,gfj4fhejuz,"Deep vs Shallow",1,86,2020-07-08T14:42:37-07:00,1.703742980957,3,versionC_stim.csv,RLVersionC.csv,"Realational Version C","Relational, read only version C",FLOOR,DISCOVER,Study1,U,71,51,Study,User,-,,Study/JOL,"Study Phase",1084,,,-1,-1,,,,1
5e96033d16389f06cce88f0f,gfj4fhejuz,"Deep vs Shallow",1,87,2020-07-08T14:42:40-07:00,2.7458038330078,3,versionC_stim.csv,RLVersionC.csv,"Realational Version C","Relational, read only version C",DEFINITION,MEANING,Study1,S,62,26,Study,User,-,,Study/JOL,"Study Phase",1942,,,-1,-1,,,,1
5e96033d16389f06cce88f0f,gfj4fhejuz,"Deep vs Shallow",1,88,2020-07-08T14:42:42-07:00,1.7753779888153,3,versionC_stim.csv,RLVersionC.csv,"Realational Version C","Relational, read only version C",CLEAN,HYGIENE,Study1,B,17,84,Study,User,-,,Study/JOL,"Study Phase",1151,,,-1,-1,,,,1
5e96033d16389f06cce88f0f,gfj4fhejuz,"Deep vs Shallow",1,89,2020-07-08T14:42:43-07:00,1.4547200202942,3,versionC_stim.csv,RLVersionC.csv,"Realational Version C","Relational, read only version C",WORD,SENTENCE,Study1,F,31,48,Study,User,-,,Study/JOL,"Study Phase",913,,,-1,-1,,,,1
5e96033d16389f06cce88f0f,gfj4fhejuz,"Deep vs Shallow",1,90,2020-07-08T14:42:45-07:00,1.223541021347,3,versionC_stim.csv,RLVersionC.csv,"Realational Version C","Relational, read only version C",CAR,HAPPY,Study1,U,77,66,Study,User,-,,Study/JOL,"Study Phase",572,,,-1,-1,,,,1
5e96033d16389f06cce88f0f,gfj4fhejuz,"Deep vs Shallow",1,91,2020-07-08T14:42:48-07:00,3.8680520057678,3,versionC_stim.csv,RLVersionC.csv,"Realational Version C","Relational, read only version C",SPACE,MOON,BUFFER2,Buffer,89,89,Study,User,-,,Study/JOL,BUFFER2,2962,,,-1,-1,,,,1
5e96033d16389f06cce88f0f,gfj4fhejuz,"Deep vs Shallow",1,92,2020-07-08T14:42:50-07:00,1.6000299453735,3,versionC_stim.csv,RLVersionC.csv,"Realational Version C","Relational, read only version C",GOOSE,GEESE,BUFFER2,Buffer,86,88,Study,User,-,,Study/JOL,BUFFER2,773,,,-1,-1,,,,1
5e96033d16389f06cce88f0f,gfj4fhejuz,"Deep vs Shallow",1,93,2020-07-08T14:42:51-07:00,1.4656970500946,3,versionC_stim.csv,RLVersionC.csv,"Realational Version C","Relational, read only version C",CHOCOLATE,MALT,BUFFER2,Buffer,88,87,Study,User,-,,Study/JOL,BUFFER2,884,,,-1,-1,,,,1
5e96033d16389f06cce88f0f,gfj4fhejuz,"Deep vs Shallow",1,94,2020-07-08T14:42:53-07:00,1.5586869716644,3,versionC_stim.csv,RLVersionC.csv,"Realational Version C","Relational, read only version C",POLICE,SHERRIF,BUFFER2,Buffer,87,90,Study,User,-,,Study/JOL,BUFFER2,984,,,-1,-1,,,,1
5e96033d16389f06cce88f0f,gfj4fhejuz,"Deep vs Shallow",1,95,2020-07-08T14:43:00-07:00,7.3192000389099,3,versionC_stim.csv,RLVersionC.csv,"Realational Version C","Relational, read only version C",STUFF,THING,BUFFER2,Buffer,90,91,Study,User,-,,Study/JOL,BUFFER2,6515,,,-1,-1,,,,1
5e96033d16389f06cce88f0f,gfj4fhejuz,"Deep vs Shallow",1,96,2020-07-08T14:43:05-07:00,4.9148941040039,3,versionC_stim.csv,RLVersionC.csv,"Realational Version C","Relational, read only version C",,,,,,0,Instruct,User,-,"You have completed this section. Please press Enter.",Filler_Instruction,Instruct2,3533,,,-1,-1,,,,1
5e96033d16389f06cce88f0f,gfj4fhejuz,"Deep vs Shallow",1,97,2020-07-08T14:43:09-07:00,3.4146909713745,3,versionC_stim.csv,RLVersionC.csv,"Realational Version C","Relational, read only version C",,,,,,0,Instruct,User,-,"You have completed this section. Please press Enter.",Filler_Instruction,Instruct5,2670,,,-1,-1,,,,1
5e96033d16389f06cce88f0f,gfj4fhejuz,"Deep vs Shallow",1,98,2020-07-08T14:43:46-07:00,36.958149909973,3,versionC_stim.csv,RLVersionC.csv,"Realational Version C","Relational, read only version C",,,,,,0,FreeRecall,-,10,"What were you supposed to focus on while you studied each pair? (Hint: Think back to the instructions). Type your answer in the space below.",,CHECK3,34991,"how they were both related to each other ",0,9181,31460,0,0,,1
5e96033d16389f06cce88f0f,gfj4fhejuz,"Deep vs Shallow",1,99,2020-07-08T14:45:47-07:00,121.11860394478,3,versionC_stim.csv,RLVersionC.csv,"Realational Version C","Relational, read only version C",,,,,,0,FreeRecall,120,120,"Please list the 50 US states in alphabetical order. The task will automatically advance to the next screen after two minutes.",,Filler1,120322,"alabama Alaska Arizona arkinsas ",0,76742,113089,0,0,,0.785
5e96033d16389f06cce88f0f,gfj4fhejuz,"Deep vs Shallow",1,100,2020-07-08T14:46:39-07:00,52.118226051331,3,versionC_stim.csv,RLVersionC.csv,"Realational Version C","Relational, read only version C",,,,,,0,Instruct,-,10,"You will now be presented with the first word from each of the previously studied item pairs. Please type the missing word. If you do not know the word, you may guess or press Enter to skip forward to the next pair.",,Instruct3,49707,,,-1,-1,,,,0.654
5e96033d16389f06cce88f0f,gfj4fhejuz,"Deep vs Shallow",1,101,2020-07-08T14:47:01-07:00,22.502323150635,3,versionC_stim.csv,RLVersionC.csv,"Realational Version C","Relational, read only version C",PILOT,PLANE,Study1,F,44,29,Test,User,-,,Recall,Recall1,21120,plane,100,16552,19294,1,1,,1
5e96033d16389f06cce88f0f,gfj4fhejuz,"Deep vs Shallow",1,102,2020-07-08T14:47:03-07:00,1.401636838913,3,versionC_stim.csv,RLVersionC.csv,"Realational Version C","Relational, read only version C",ENOUGH,FULL,Study1,F,26,52,Test,User,-,,Recall,Recall1,794,,0,-1,-1,0,0,,1
5e96033d16389f06cce88f0f,gfj4fhejuz,"Deep vs Shallow",1,103,2020-07-08T14:47:20-07:00,16.958074092865,3,versionC_stim.csv,RLVersionC.csv,"Realational Version C","Relational, read only version C",RIDDLE,SUGAR,Study1,U,81,13,Test,User,-,,Recall,Recall1,15704,,0,-1,-1,0,0,,1
5e96033d16389f06cce88f0f,gfj4fhejuz,"Deep vs Shallow",1,104,2020-07-08T14:47:29-07:00,8.8227989673615,3,versionC_stim.csv,RLVersionC.csv,"Realational Version C","Relational, read only version C",FISH,TUNA,Study1,B,25,11,Test,User,-,,Recall,Recall1,8014,tuna,100,2608,4168,1,1,,1
5e96033d16389f06cce88f0f,gfj4fhejuz,"Deep vs Shallow",1,105,2020-07-08T14:47:38-07:00,9.516459941864,3,versionC_stim.csv,RLVersionC.csv,"Realational Version C","Relational, read only version C",HAND,FIX,Study1,U,75,19,Test,User,-,,Recall,Recall1,7678,fix,100,3930,5344,1,1,,1
5e96033d16389f06cce88f0f,gfj4fhejuz,"Deep vs Shallow",1,106,2020-07-08T14:47:51-07:00,12.887025117874,3,versionC_stim.csv,RLVersionC.csv,"Realational Version C","Relational, read only version C",OUT,WAY,Study1,B,16,69,Test,User,-,,Recall,Recall1,12065,way,100,8625,10152,1,1,,1
5e96033d16389f06cce88f0f,gfj4fhejuz,"Deep vs Shallow",1,107,2020-07-08T14:48:04-07:00,12.806524991989,3,versionC_stim.csv,RLVersionC.csv,"Realational Version C","Relational, read only version C",PLANT,ROOT,Study1,B,13,16,Test,User,-,,Recall,Recall1,12025,root,100,7734,9414,1,1,,1
5e96033d16389f06cce88f0f,gfj4fhejuz,"Deep vs Shallow",1,108,2020-07-08T14:48:26-07:00,21.787425994873,3,versionC_stim.csv,RLVersionC.csv,"Realational Version C","Relational, read only version C",STOMACH,DIGESTION,Study1,B,7,7,Test,User,-,,Recall,Recall1,19960,ache,15.384615384615,16262,18099,0,0,,1
5e96033d16389f06cce88f0f,gfj4fhejuz,"Deep vs Shallow",1,109,2020-07-08T14:48:33-07:00,7.6438510417938,3,versionC_stim.csv,RLVersionC.csv,"Realational Version C","Relational, read only version C",BLAZE,FIRE,Study1,F,45,55,Test,User,-,,Recall,Recall1,6780,fire,100,2250,4334,1,1,,1
5e96033d16389f06cce88f0f,gfj4fhejuz,"Deep vs Shallow",1,110,2020-07-08T14:48:52-07:00,18.390024900436,3,versionC_stim.csv,RLVersionC.csv,"Realational Version C","Relational, read only version C",ACCIDENT,STRONG,Study1,U,80,33,Test,User,-,,Recall,Recall1,17588,strong,100,3309,9891,1,1,,1
5e96033d16389f06cce88f0f,gfj4fhejuz,"Deep vs Shallow",1,111,2020-07-08T14:49:07-07:00,15.560611963272,3,versionC_stim.csv,RLVersionC.csv,"Realational Version C","Relational, read only version C",DESIGN,ARCHITECTURE,Study1,S,51,79,Test,User,-,,Recall,Recall1,14772,architecture,100,2815,12665,1,1,,1
5e96033d16389f06cce88f0f,gfj4fhejuz,"Deep vs Shallow",1,112,2020-07-08T14:49:19-07:00,12.093929052353,3,versionC_stim.csv,RLVersionC.csv,"Realational Version C","Relational, read only version C",ATTIRE,CLOTHES,Study1,F,43,54,Test,User,-,,Recall,Recall1,11156,clothes,100,3550,9525,1,1,,1
5e96033d16389f06cce88f0f,gfj4fhejuz,"Deep vs Shallow",1,113,2020-07-08T14:49:33-07:00,13.328020095825,3,versionC_stim.csv,RLVersionC.csv,"Realational Version C","Relational, read only version C",BIRD,SWAN,Study1,B,14,81,Test,User,-,,Recall,Recall1,12621,wings,44.444444444444,8691,10893,0,0,,1
5e96033d16389f06cce88f0f,gfj4fhejuz,"Deep vs Shallow",1,114,2020-07-08T14:49:56-07:00,23.726157903671,3,versionC_stim.csv,RLVersionC.csv,"Realational Version C","Relational, read only version C",BRONZE,ARTERY,Study1,U,74,78,Test,User,-,,Recall,Recall1,22948,artery,100,7900,21258,1,1,,1
5e96033d16389f06cce88f0f,gfj4fhejuz,"Deep vs Shallow",1,115,2020-07-08T14:50:12-07:00,15.662740945816,3,versionC_stim.csv,RLVersionC.csv,"Realational Version C","Relational, read only version C",BAR,GRILL,Study1,S,52,47,Test,User,-,,Recall,Recall1,14908,,0,-1,-1,0,0,,1
5e96033d16389f06cce88f0f,gfj4fhejuz,"Deep vs Shallow",1,116,2020-07-08T14:50:17-07:00,5.2263720035553,3,versionC_stim.csv,RLVersionC.csv,"Realational Version C","Relational, read only version C",CHILI,HOT,Study1,F,37,18,Test,User,-,,Recall,Recall1,4430,hot,100,2344,3188,1,1,,1
5e96033d16389f06cce88f0f,gfj4fhejuz,"Deep vs Shallow",1,117,2020-07-08T14:50:19-07:00,1.4746689796448,3,versionC_stim.csv,RLVersionC.csv,"Realational Version C","Relational, read only version C",LION,ART,Study1,U,79,42,Test,User,-,,Recall,Recall1,748,,0,-1,-1,0,0,,1
5e96033d16389f06cce88f0f,gfj4fhejuz,"Deep vs Shallow",1,118,2020-07-08T14:50:29-07:00,10.198938131332,3,versionC_stim.csv,RLVersionC.csv,"Realational Version C","Relational, read only version C",FAMINE,HUNGER,Study1,F,40,49,Test,User,-,,Recall,Recall1,8397,hunger,100,4349,6646,1,1,,1
5e96033d16389f06cce88f0f,gfj4fhejuz,"Deep vs Shallow",1,119,2020-07-08T14:50:36-07:00,6.9613099098206,3,versionC_stim.csv,RLVersionC.csv,"Realational Version C","Relational, read only version C",ASSIGNMENT,DUE,Study1,S,46,74,Test,User,-,,Recall,Recall1,6209,due,100,2913,4009,1,1,,1
5e96033d16389f06cce88f0f,gfj4fhejuz,"Deep vs Shallow",1,120,2020-07-08T14:50:49-07:00,13.150480985641,3,versionC_stim.csv,RLVersionC.csv,"Realational Version C","Relational, read only version C",TUCK,ALLOW,Study1,U,78,50,Test,User,-,,Recall,Recall1,12208,,0,-1,-1,0,0,,1
5e96033d16389f06cce88f0f,gfj4fhejuz,"Deep vs Shallow",1,121,2020-07-08T14:50:56-07:00,6.612820148468,3,versionC_stim.csv,RLVersionC.csv,"Realational Version C","Relational, read only version C",ROUND,CIRCLE,Study1,S,65,24,Test,User,-,,Recall,Recall1,5895,house,18.181818181818,2486,4578,0,0,,1
5e96033d16389f06cce88f0f,gfj4fhejuz,"Deep vs Shallow",1,122,2020-07-08T14:51:22-07:00,26.731406927109,3,versionC_stim.csv,RLVersionC.csv,"Realational Version C","Relational, read only version C",STENCH,SMELL,Study1,F,42,15,Test,User,-,,Recall,Recall1,25930,smell,100,3555,7303,1,1,,1
5e96033d16389f06cce88f0f,gfj4fhejuz,"Deep vs Shallow",1,123,2020-07-08T14:51:30-07:00,7.6767439842224,3,versionC_stim.csv,RLVersionC.csv,"Realational Version C","Relational, read only version C",ATTORNEY,LAW,Study1,F,34,36,Test,User,-,,Recall,Recall1,6857,law,100,2904,5244,1,1,,1
5e96033d16389f06cce88f0f,gfj4fhejuz,"Deep vs Shallow",1,124,2020-07-08T14:51:35-07:00,5.1255760192871,3,versionC_stim.csv,RLVersionC.csv,"Realational Version C","Relational, read only version C",SIGHT,DEBATE,Study1,U,73,34,Test,User,-,,Recall,Recall1,4313,see,44.444444444444,2339,2785,0,0,,1
5e96033d16389f06cce88f0f,gfj4fhejuz,"Deep vs Shallow",1,125,2020-07-08T14:51:42-07:00,6.5478079319,3,versionC_stim.csv,RLVersionC.csv,"Realational Version C","Relational, read only version C",SODA,POP,Study1,S,56,56,Test,User,-,,Recall,Recall1,5801,pop,100,2109,2614,1,1,,1
5e96033d16389f06cce88f0f,gfj4fhejuz,"Deep vs Shallow",1,126,2020-07-08T14:51:48-07:00,6.371071100235,3,versionC_stim.csv,RLVersionC.csv,"Realational Version C","Relational, read only version C",WATER,BRIDGE,Study1,B,18,37,Test,User,-,,Recall,Recall1,5232,drink,36.363636363636,2013,4097,0,0,,1
5e96033d16389f06cce88f0f,gfj4fhejuz,"Deep vs Shallow",1,127,2020-07-08T14:51:57-07:00,8.4799418449402,3,versionC_stim.csv,RLVersionC.csv,"Realational Version C","Relational, read only version C",FLOWER,ORCHID,Study1,B,24,41,Test,User,-,,Recall,Recall1,7631,smell,0,3038,6458,0,0,,1
5e96033d16389f06cce88f0f,gfj4fhejuz,"Deep vs Shallow",1,128,2020-07-08T14:52:16-07:00,19.556620121002,3,versionC_stim.csv,RLVersionC.csv,"Realational Version C","Relational, read only version C",TOILET,BATHROOM,Study1,S,58,77,Test,User,-,,Recall,Recall1,18746,bathroom,100,12755,16381,1,1,,1
5e96033d16389f06cce88f0f,gfj4fhejuz,"Deep vs Shallow",1,129,2020-07-08T14:52:29-07:00,13.106019973755,3,versionC_stim.csv,RLVersionC.csv,"Realational Version C","Relational, read only version C",TALK,DISCUSSION,Study1,B,21,70,Test,User,-,,Recall,Recall1,12323,speech,25,4640,8618,0,0,,1
5e96033d16389f06cce88f0f,gfj4fhejuz,"Deep vs Shallow",1,130,2020-07-08T14:52:45-07:00,15.564810991287,3,versionC_stim.csv,RLVersionC.csv,"Realational Version C","Relational, read only version C",BUSINESS,DEATH,Study1,U,72,43,Test,User,-,,Recall,Recall1,14739,,0,-1,-1,0,0,,1
5e96033d16389f06cce88f0f,gfj4fhejuz,"Deep vs Shallow",1,131,2020-07-08T14:52:55-07:00,10.033010959625,3,versionC_stim.csv,RLVersionC.csv,"Realational Version C","Relational, read only version C",CHORE,WORK,Study1,F,39,32,Test,User,-,,Recall,Recall1,9204,house,22.222222222222,5936,8062,0,0,,1
5e96033d16389f06cce88f0f,gfj4fhejuz,"Deep vs Shallow",1,132,2020-07-08T14:53:16-07:00,21.620455026627,3,versionC_stim.csv,RLVersionC.csv,"Realational Version C","Relational, read only version C",WOMAN,LIFT,Study1,U,69,9,Test,User,-,,Recall,Recall1,20807,lift,100,13645,17827,1,1,,1
5e96033d16389f06cce88f0f,gfj4fhejuz,"Deep vs Shallow",1,133,2020-07-08T14:53:40-07:00,23.341287136078,3,versionC_stim.csv,RLVersionC.csv,"Realational Version C","Relational, read only version C",CLEAN,HYGIENE,Study1,B,17,84,Test,User,-,,Recall,Recall1,22545,house,33.333333333333,19603,21496,0,0,,1
5e96033d16389f06cce88f0f,gfj4fhejuz,"Deep vs Shallow",1,134,2020-07-08T14:54:00-07:00,19.753650903702,3,versionC_stim.csv,RLVersionC.csv,"Realational Version C","Relational, read only version C",WIND,BLOW,Study1,S,55,83,Test,User,-,,Recall,Recall1,18957,cold,25,3013,10698,0,0,,1
5e96033d16389f06cce88f0f,gfj4fhejuz,"Deep vs Shallow",1,135,2020-07-08T14:54:10-07:00,10.279614925385,3,versionC_stim.csv,RLVersionC.csv,"Realational Version C","Relational, read only version C",RACKET,BALL,Study1,F,38,44,Test,User,-,,Recall,Recall1,9434,ball,100,3156,5778,1,1,,1
5e96033d16389f06cce88f0f,gfj4fhejuz,"Deep vs Shallow",1,136,2020-07-08T14:54:29-07:00,18.707062959671,3,versionC_stim.csv,RLVersionC.csv,"Realational Version C","Relational, read only version C",DOG,PAW,Study1,B,15,8,Test,User,-,,Recall,Recall1,17963,paw,100,13355,15625,1,1,,1
5e96033d16389f06cce88f0f,gfj4fhejuz,"Deep vs Shallow",1,137,2020-07-08T14:54:41-07:00,12.799480199814,3,versionC_stim.csv,RLVersionC.csv,"Realational Version C","Relational, read only version C",SALAD,LETTUCE,Study1,S,59,21,Test,User,-,,Recall,Recall1,12075,dressing,13.333333333333,3556,10761,0,0,,1
5e96033d16389f06cce88f0f,gfj4fhejuz,"Deep vs Shallow",1,138,2020-07-08T14:54:58-07:00,16.58574795723,3,versionC_stim.csv,RLVersionC.csv,"Realational Version C","Relational, read only version C",FANTASTIC,GREAT,Study1,F,35,28,Test,User,-,,Recall,Recall1,15836,great,100,12090,14191,1,1,,1
5e96033d16389f06cce88f0f,gfj4fhejuz,"Deep vs Shallow",1,139,2020-07-08T14:55:28-07:00,29.90181684494,3,versionC_stim.csv,RLVersionC.csv,"Realational Version C","Relational, read only version C",ROCK,GEOLOGY,Study1,B,19,22,Test,User,-,,Recall,Recall1,29117,geology,100,12477,27967,1,1,,1
5e96033d16389f06cce88f0f,gfj4fhejuz,"Deep vs Shallow",1,140,2020-07-08T14:55:38-07:00,10.350912094116,3,versionC_stim.csv,RLVersionC.csv,"Realational Version C","Relational, read only version C",WASTE,DUMP,Study1,S,49,23,Test,User,-,,Recall,Recall1,9538,dump,100,6774,8385,1,1,,1
5e96033d16389f06cce88f0f,gfj4fhejuz,"Deep vs Shallow",1,141,2020-07-08T14:55:44-07:00,5.6256330013275,3,versionC_stim.csv,RLVersionC.csv,"Realational Version C","Relational, read only version C",BEE,HONEY,Study1,S,63,46,Test,User,-,,Recall,Recall1,4859,hive,44.444444444444,2199,3557,0,0,,1
5e96033d16389f06cce88f0f,gfj4fhejuz,"Deep vs Shallow",1,142,2020-07-08T14:55:48-07:00,3.7969629764557,3,versionC_stim.csv,RLVersionC.csv,"Realational Version C","Relational, read only version C",DEFINITION,MEANING,Study1,S,62,26,Test,User,-,,Recall,Recall1,3001,,0,-1,-1,0,0,,1
5e96033d16389f06cce88f0f,gfj4fhejuz,"Deep vs Shallow",1,143,2020-07-08T14:56:03-07:00,15.1460750103,3,versionC_stim.csv,RLVersionC.csv,"Realational Version C","Relational, read only version C",CAR,HAPPY,Study1,U,77,66,Test,User,-,,Recall,Recall1,14273,,0,-1,-1,0,0,,1
5e96033d16389f06cce88f0f,gfj4fhejuz,"Deep vs Shallow",1,144,2020-07-08T14:56:13-07:00,10.034116029739,3,versionC_stim.csv,RLVersionC.csv,"Realational Version C","Relational, read only version C",END,BEGIN,Study1,S,54,14,Test,User,-,,Recall,Recall1,9207,start,0,3325,8369,0,0,,1
5e96033d16389f06cce88f0f,gfj4fhejuz,"Deep vs Shallow",1,145,2020-07-08T14:56:27-07:00,13.859518051147,3,versionC_stim.csv,RLVersionC.csv,"Realational Version C","Relational, read only version C",POSITION,MACHINE,Study1,U,76,12,Test,User,-,,Recall,Recall1,13026,machine,100,8609,11821,1,1,,1
5e96033d16389f06cce88f0f,gfj4fhejuz,"Deep vs Shallow",1,146,2020-07-08T14:56:53-07:00,26.588102817535,3,versionC_stim.csv,RLVersionC.csv,"Realational Version C","Relational, read only version C",SEIZE,TAKE,Study1,F,29,58,Test,User,-,,Recall,Recall1,24306,take,100,21804,23603,1,1,,1
5e96033d16389f06cce88f0f,gfj4fhejuz,"Deep vs Shallow",1,147,2020-07-08T14:57:03-07:00,9.7266430854797,3,versionC_stim.csv,RLVersionC.csv,"Realational Version C","Relational, read only version C",ADD,VALLEY,Study1,U,82,30,Test,User,-,,Recall,Recall1,8941,subtract,14.285714285714,2020,8128,0,0,,1
5e96033d16389f06cce88f0f,gfj4fhejuz,"Deep vs Shallow",1,148,2020-07-08T14:57:09-07:00,6.453164100647,3,versionC_stim.csv,RLVersionC.csv,"Realational Version C","Relational, read only version C",STING,HORNET,Study1,B,11,62,Test,User,-,,Recall,Recall1,5755,bee,22.222222222222,3612,4725,0,0,,1
5e96033d16389f06cce88f0f,gfj4fhejuz,"Deep vs Shallow",1,149,2020-07-08T14:57:14-07:00,4.8084030151367,3,versionC_stim.csv,RLVersionC.csv,"Realational Version C","Relational, read only version C",COLD,BITTER,Study1,B,12,20,Test,User,-,,Recall,Recall1,4112,hot,22.222222222222,1856,3232,0,0,,1
5e96033d16389f06cce88f0f,gfj4fhejuz,"Deep vs Shallow",1,150,2020-07-08T14:57:19-07:00,4.6100859642029,3,versionC_stim.csv,RLVersionC.csv,"Realational Version C","Relational, read only version C",LATCH,KEY,Study1,F,36,75,Test,User,-,,Recall,Recall1,3842,,0,-1,-1,0,0,,1
5e96033d16389f06cce88f0f,gfj4fhejuz,"Deep vs Shallow",1,151,2020-07-08T14:57:30-07:00,11.066504955292,3,versionC_stim.csv,RLVersionC.csv,"Realational Version C","Relational, read only version C",AMOUNT,NUMBER,Study1,S,47,45,Test,User,-,,Recall,Recall1,10342,money,36.363636363636,2605,9332,0,0,,1
5e96033d16389f06cce88f0f,gfj4fhejuz,"Deep vs Shallow",1,152,2020-07-08T14:57:53-07:00,23.232449054718,3,versionC_stim.csv,RLVersionC.csv,"Realational Version C","Relational, read only version C",NEWS,EDITOR,Study1,B,10,73,Test,User,-,,Recall,Recall1,21393,world,36.363636363636,11979,20424,0,0,,1
5e96033d16389f06cce88f0f,gfj4fhejuz,"Deep vs Shallow",1,153,2020-07-08T14:57:59-07:00,5.5378758907318,3,versionC_stim.csv,RLVersionC.csv,"Realational Version C","Relational, read only version C",COW,HERD,Study1,B,22,82,Test,User,-,,Recall,Recall1,4672,milk,0,2656,4144,0,0,,1
5e96033d16389f06cce88f0f,gfj4fhejuz,"Deep vs Shallow",1,154,2020-07-08T14:58:14-07:00,14.925363063812,3,versionC_stim.csv,RLVersionC.csv,"Realational Version C","Relational, read only version C",WOULD,CASH,Study1,U,83,40,Test,User,-,,Recall,Recall1,13246,wouldnt,0,7740,12031,0,0,,1
5e96033d16389f06cce88f0f,gfj4fhejuz,"Deep vs Shallow",1,155,2020-07-08T14:58:18-07:00,4.8387310504913,3,versionC_stim.csv,RLVersionC.csv,"Realational Version C","Relational, read only version C",BAD,DELINQUENT,Study1,B,6,17,Test,User,-,,Recall,Recall1,4031,good,14.285714285714,1993,3282,0,0,,1
5e96033d16389f06cce88f0f,gfj4fhejuz,"Deep vs Shallow",1,156,2020-07-08T14:58:30-07:00,12.081315994263,3,versionC_stim.csv,RLVersionC.csv,"Realational Version C","Relational, read only version C",SACKING,DIETARY,Study1,U,67,60,Test,User,-,,Recall,Recall1,11288,job,0,3622,10723,0,0,,1
5e96033d16389f06cce88f0f,gfj4fhejuz,"Deep vs Shallow",1,157,2020-07-08T14:59:03-07:00,32.05154299736,3,versionC_stim.csv,RLVersionC.csv,"Realational Version C","Relational, read only version C",GROWTH,HEIGHT,Study1,F,30,27,Test,User,-,,Recall,Recall1,31255,,0,-1,-1,0,0,,1
5e96033d16389f06cce88f0f,gfj4fhejuz,"Deep vs Shallow",1,158,2020-07-08T14:59:06-07:00,3.1742830276489,3,versionC_stim.csv,RLVersionC.csv,"Realational Version C","Relational, read only version C",DROWSY,SLEEP,Study1,F,41,25,Test,User,-,,Recall,Recall1,2417,,0,-1,-1,0,0,,1
5e96033d16389f06cce88f0f,gfj4fhejuz,"Deep vs Shallow",1,159,2020-07-08T14:59:11-07:00,5.6323540210724,3,versionC_stim.csv,RLVersionC.csv,"Realational Version C","Relational, read only version C",JURY,TRIAL,Study1,S,50,85,Test,User,-,,Recall,Recall1,4914,judge,0,2590,4247,0,0,,1
5e96033d16389f06cce88f0f,gfj4fhejuz,"Deep vs Shallow",1,160,2020-07-08T14:59:26-07:00,14.362242937088,3,versionC_stim.csv,RLVersionC.csv,"Realational Version C","Relational, read only version C",WAR,REVOLUTION,Study1,B,20,71,Test,User,-,,Recall,Recall1,13622,,0,-1,-1,0,0,,1
5e96033d16389f06cce88f0f,gfj4fhejuz,"Deep vs Shallow",1,161,2020-07-08T14:59:28-07:00,2.0553338527679,3,versionC_stim.csv,RLVersionC.csv,"Realational Version C","Relational, read only version C",MONEY,WAGE,Study1,B,8,68,Test,User,-,,Recall,Recall1,1474,,0,-1,-1,0,0,,1
5e96033d16389f06cce88f0f,gfj4fhejuz,"Deep vs Shallow",1,162,2020-07-08T14:59:42-07:00,13.898544073105,3,versionC_stim.csv,RLVersionC.csv,"Realational Version C","Relational, read only version C",DIVISION,MATH,Study1,F,33,86,Test,User,-,,Recall,Recall1,13207,math,100,10533,12320,1,1,,1
5e96033d16389f06cce88f0f,gfj4fhejuz,"Deep vs Shallow",1,163,2020-07-08T15:00:06-07:00,24.161109924316,3,versionC_stim.csv,RLVersionC.csv,"Realational Version C","Relational, read only version C",FOOT,SHOE,Study1,S,60,35,Test,User,-,,Recall,Recall1,23449,shoe,100,20816,22530,1,1,,1
5e96033d16389f06cce88f0f,gfj4fhejuz,"Deep vs Shallow",1,164,2020-07-08T15:00:12-07:00,5.8364729881287,3,versionC_stim.csv,RLVersionC.csv,"Realational Version C","Relational, read only version C",SIP,DRINK,Study1,F,27,64,Test,User,-,,Recall,Recall1,5059,drink,100,2432,4233,1,1,,1
5e96033d16389f06cce88f0f,gfj4fhejuz,"Deep vs Shallow",1,165,2020-07-08T15:00:15-07:00,3.0716512203217,3,versionC_stim.csv,RLVersionC.csv,"Realational Version C","Relational, read only version C",CLUTTER,PUSHER,Study1,U,66,67,Test,User,-,,Recall,Recall1,2252,,0,-1,-1,0,0,,1
5e96033d16389f06cce88f0f,gfj4fhejuz,"Deep vs Shallow",1,166,2020-07-08T15:00:17-07:00,1.8963618278503,3,versionC_stim.csv,RLVersionC.csv,"Realational Version C","Relational, read only version C",CHEESE,WINE,Study1,S,57,10,Test,User,-,,Recall,Recall1,1303,,0,-1,-1,0,0,,1
5e96033d16389f06cce88f0f,gfj4fhejuz,"Deep vs Shallow",1,167,2020-07-08T15:00:19-07:00,2.6270821094513,3,versionC_stim.csv,RLVersionC.csv,"Realational Version C","Relational, read only version C",FLOOR,DISCOVER,Study1,U,71,51,Test,User,-,,Recall,Recall1,1874,,0,-1,-1,0,0,,1
5e96033d16389f06cce88f0f,gfj4fhejuz,"Deep vs Shallow",1,168,2020-07-08T15:00:27-07:00,7.2780818939209,3,versionC_stim.csv,RLVersionC.csv,"Realational Version C","Relational, read only version C",HAMMER,CHISEL,Study1,B,9,76,Test,User,-,,Recall,Recall1,6569,nail,40,4224,6147,0,0,,1
5e96033d16389f06cce88f0f,gfj4fhejuz,"Deep vs Shallow",1,169,2020-07-08T15:00:28-07:00,1.9682199954987,3,versionC_stim.csv,RLVersionC.csv,"Realational Version C","Relational, read only version C",WORD,SENTENCE,Study1,F,31,48,Test,User,-,,Recall,Recall1,1416,,0,-1,-1,0,0,,1
5e96033d16389f06cce88f0f,gfj4fhejuz,"Deep vs Shallow",1,170,2020-07-08T15:00:43-07:00,14.905158996582,3,versionC_stim.csv,RLVersionC.csv,"Realational Version C","Relational, read only version C",SICK,HIDE,Study1,U,84,72,Test,User,-,,Recall,Recall1,14050,healthy,36.363636363636,4697,13475,0,0,,1
5e96033d16389f06cce88f0f,gfj4fhejuz,"Deep vs Shallow",1,171,2020-07-08T15:00:45-07:00,1.7953250408173,3,versionC_stim.csv,RLVersionC.csv,"Realational Version C","Relational, read only version C",CARD,CREDIT,Study1,B,23,53,Test,User,-,,Recall,Recall1,1176,,0,-1,-1,0,0,,1
5e96033d16389f06cce88f0f,gfj4fhejuz,"Deep vs Shallow",1,172,2020-07-08T15:00:47-07:00,1.8027911186218,3,versionC_stim.csv,RLVersionC.csv,"Realational Version C","Relational, read only version C",CHILD,BABY,Study1,S,64,63,Test,User,-,,Recall,Recall1,1272,,0,-1,-1,0,0,,1
5e96033d16389f06cce88f0f,gfj4fhejuz,"Deep vs Shallow",1,173,2020-07-08T15:00:49-07:00,2.1921758651733,3,versionC_stim.csv,RLVersionC.csv,"Realational Version C","Relational, read only version C",SITE,LOCATION,Study1,S,48,31,Test,User,-,,Recall,Recall1,1644,,0,-1,-1,0,0,,1
5e96033d16389f06cce88f0f,gfj4fhejuz,"Deep vs Shallow",1,174,2020-07-08T15:00:53-07:00,4.2647559642792,3,versionC_stim.csv,RLVersionC.csv,"Realational Version C","Relational, read only version C",BELT,SOON,Study1,U,70,65,Test,User,-,,Recall,Recall1,3518,,0,-1,-1,0,0,,1
5e96033d16389f06cce88f0f,gfj4fhejuz,"Deep vs Shallow",1,175,2020-07-08T15:01:04-07:00,10.321640014648,3,versionC_stim.csv,RLVersionC.csv,"Realational Version C","Relational, read only version C",HUNGRY,PARK,Study1,U,68,57,Test,User,-,,Recall,Recall1,9586,starving,33.333333333333,5331,9226,0,0,,1
5e96033d16389f06cce88f0f,gfj4fhejuz,"Deep vs Shallow",1,176,2020-07-08T15:01:09-07:00,5.735053062439,3,versionC_stim.csv,RLVersionC.csv,"Realational Version C","Relational, read only version C",CAVE,DARK,Study1,F,28,38,Test,User,-,,Recall,Recall1,4919,dark,100,1787,4483,1,1,,1
5e96033d16389f06cce88f0f,gfj4fhejuz,"Deep vs Shallow",1,177,2020-07-08T15:01:16-07:00,6.3840010166168,3,versionC_stim.csv,RLVersionC.csv,"Realational Version C","Relational, read only version C",FUTURE,PAST,Study1,S,61,61,Test,User,-,,Recall,Recall1,5540,past,100,4171,5342,1,1,,1
5e96033d16389f06cce88f0f,gfj4fhejuz,"Deep vs Shallow",1,178,2020-07-08T15:01:21-07:00,4.6714398860931,3,versionC_stim.csv,RLVersionC.csv,"Realational Version C","Relational, read only version C",VASE,KING,Study1,U,85,59,Test,User,-,,Recall,Recall1,3892,water,0,2533,3745,0,0,,1
5e96033d16389f06cce88f0f,gfj4fhejuz,"Deep vs Shallow",1,179,2020-07-08T15:01:25-07:00,4.817262172699,3,versionC_stim.csv,RLVersionC.csv,"Realational Version C","Relational, read only version C",WASP,BUG,Study1,F,32,80,Test,User,-,,Recall,Recall1,4073,sting,25,1825,3747,0,0,,1
5e96033d16389f06cce88f0f,gfj4fhejuz,"Deep vs Shallow",1,180,2020-07-08T15:01:39-07:00,13.999261856079,3,versionC_stim.csv,RLVersionC.csv,"Realational Version C","Relational, read only version C",LIVER,KIDNEY,Study1,S,53,39,Test,User,-,,Recall,Recall1,13095,,0,5479,5479,0,0,,1
5e96033d16389f06cce88f0f,gfj4fhejuz,"Deep vs Shallow",1,181,2020-07-08T15:01:54-07:00,14.46404504776,3,versionC_stim.csv,RLVersionC.csv,"Realational Version C","Relational, read only version C",,,,,,0,Instruct,,10,"You will now be presented with a new set of word pairs. Please study each pair. Remember that your memory will be tested! When finished, press Enter to move to the next pair.",Initial_Instruct,Instruct4,13639,,,-1,-1,,,,1
5e96033d16389f06cce88f0f,gfj4fhejuz,"Deep vs Shallow",1,182,2020-07-08T15:02:12-07:00,17.921315908432,3,versionC_stim.csv,RLVersionC.csv,"Realational Version C","Relational, read only version C",,,,,,0,Instruct,-,15,"As you study, please think about how the two concepts are RELATED to each other. For example, if you see the pair TURTLE-CAT, think about how both are alive, they are both animals, and both can be kept as pets.",,Instruct20,16072,,,-1,-1,,,,1
5e96033d16389f06cce88f0f,gfj4fhejuz,"Deep vs Shallow",1,183,2020-07-08T15:02:35-07:00,23.455728054047,3,versionC_stim.csv,RLVersionC.csv,"Realational Version C","Relational, read only version C",,,,,,0,FreeRecall,-,10,"What you should think about as you study each item pair? Type your response in the box below.",,CHECK4,22662,"how the words are related to each other ",0,4394,19587,0,0,,1
5e96033d16389f06cce88f0f,gfj4fhejuz,"Deep vs Shallow",1,184,2020-07-08T15:02:38-07:00,2.8603870868683,3,versionC_stim.csv,RLVersionC.csv,"Realational Version C","Relational, read only version C",,,,,,0,Instruct,User,-,"Press Enter when you are readty to begin",,Instruct11,2094,,,-1,-1,,,,1
5e96033d16389f06cce88f0f,gfj4fhejuz,"Deep vs Shallow",1,185,2020-07-08T15:03:00-07:00,21.912204027176,3,versionC_stim.csv,RLVersionC.csv,"Realational Version C","Relational, read only version C",ADVENTURE,CAMP,BUFFER3,Buffer,95,96,Study,User,-,,Study/JOL,BUFFER3,21161,,,-1,-1,,,,1
5e96033d16389f06cce88f0f,gfj4fhejuz,"Deep vs Shallow",1,186,2020-07-08T15:03:13-07:00,13.109220027924,3,versionC_stim.csv,RLVersionC.csv,"Realational Version C","Relational, read only version C",STRING,NOODLE,BUFFER3,Buffer,92,94,Study,User,-,,Study/JOL,BUFFER3,12323,,,-1,-1,,,,1
5e96033d16389f06cce88f0f,gfj4fhejuz,"Deep vs Shallow",1,187,2020-07-08T15:03:20-07:00,6.7699129581451,3,versionC_stim.csv,RLVersionC.csv,"Realational Version C","Relational, read only version C",FROZEN,ICE,BUFFER3,Buffer,94,93,Study,User,-,,Study/JOL,BUFFER3,5984,,,-1,-1,,,,1
5e96033d16389f06cce88f0f,gfj4fhejuz,"Deep vs Shallow",1,188,2020-07-08T15:03:26-07:00,5.7214050292969,3,versionC_stim.csv,RLVersionC.csv,"Realational Version C","Relational, read only version C",FISH,SHRIMP,BUFFER3,Buffer,93,95,Study,User,-,,Study/JOL,BUFFER3,4839,,,-1,-1,,,,1
5e96033d16389f06cce88f0f,gfj4fhejuz,"Deep vs Shallow",1,189,2020-07-08T15:03:36-07:00,10.036034822464,3,versionC_stim.csv,RLVersionC.csv,"Realational Version C","Relational, read only version C",POTATO,CARROT,BUFFER3,Buffer,91,92,Study,User,-,,Study/JOL,BUFFER3,9292,,,-1,-1,,,,1
5e96033d16389f06cce88f0f,gfj4fhejuz,"Deep vs Shallow",1,190,2020-07-08T15:03:45-07:00,9.3174810409546,3,versionC_stim.csv,RLVersionC.csv,"Realational Version C","Relational, read only version C",EAT,DINE,Study2,B,111,127,Study,User,-,,Study/JOL,"Study Phase2",8615,,,-1,-1,,,,1
5e96033d16389f06cce88f0f,gfj4fhejuz,"Deep vs Shallow",1,191,2020-07-08T15:03:54-07:00,9.2156190872192,3,versionC_stim.csv,RLVersionC.csv,"Realational Version C","Relational, read only version C",LIE,TRUTH,Study2,S,148,131,Study,User,-,,Study/JOL,"Study Phase2",8433,,,-1,-1,,,,1
5e96033d16389f06cce88f0f,gfj4fhejuz,"Deep vs Shallow",1,192,2020-07-08T15:04:03-07:00,8.6046969890594,3,versionC_stim.csv,RLVersionC.csv,"Realational Version C","Relational, read only version C",DRINK,WATER,Study2,S,143,163,Study,User,-,,Study/JOL,"Study Phase2",6858,,,-1,-1,,,,1
5e96033d16389f06cce88f0f,gfj4fhejuz,"Deep vs Shallow",1,193,2020-07-08T15:04:11-07:00,8.39404296875,3,versionC_stim.csv,RLVersionC.csv,"Realational Version C","Relational, read only version C",CLOTHES,CAKE,Study2,U,166,137,Study,User,-,,Study/JOL,"Study Phase2",7629,,,-1,-1,,,,1
5e96033d16389f06cce88f0f,gfj4fhejuz,"Deep vs Shallow",1,194,2020-07-08T15:04:25-07:00,14.236133098602,3,versionC_stim.csv,RLVersionC.csv,"Realational Version C","Relational, read only version C",BREAKABLE,GLASS,Study2,F,127,110,Study,User,-,,Study/JOL,"Study Phase2",13506,,,-1,-1,,,,1
5e96033d16389f06cce88f0f,gfj4fhejuz,"Deep vs Shallow",1,195,2020-07-08T15:04:40-07:00,14.845312833786,3,versionC_stim.csv,RLVersionC.csv,"Realational Version C","Relational, read only version C",EQUAL,RIGHTS,Study2,S,137,108,Study,User,-,,Study/JOL,"Study Phase2",14005,,,-1,-1,,,,1
5e96033d16389f06cce88f0f,gfj4fhejuz,"Deep vs Shallow",1,196,2020-07-08T15:04:48-07:00,7.9879531860352,3,versionC_stim.csv,RLVersionC.csv,"Realational Version C","Relational, read only version C",STRAWBERRY,FRUIT,Study2,F,124,160,Study,User,-,,Study/JOL,"Study Phase2",7264,,,-1,-1,,,,1
5e96033d16389f06cce88f0f,gfj4fhejuz,"Deep vs Shallow",1,197,2020-07-08T15:04:53-07:00,4.6099979877472,3,versionC_stim.csv,RLVersionC.csv,"Realational Version C","Relational, read only version C",CUT,CHOP,Study2,B,107,169,Study,User,-,,Study/JOL,"Study Phase2",3825,,,-1,-1,,,,1
5e96033d16389f06cce88f0f,gfj4fhejuz,"Deep vs Shallow",1,198,2020-07-08T15:05:00-07:00,7.2695260047913,3,versionC_stim.csv,RLVersionC.csv,"Realational Version C","Relational, read only version C",ACTRESS,STAR,Study2,F,120,111,Study,User,-,,Study/JOL,"Study Phase2",6546,,,-1,-1,,,,1
5e96033d16389f06cce88f0f,gfj4fhejuz,"Deep vs Shallow",1,199,2020-07-08T15:05:08-07:00,7.7827730178833,3,versionC_stim.csv,RLVersionC.csv,"Realational Version C","Relational, read only version C",TIE,SHOELACE,Study2,B,99,125,Study,User,-,,Study/JOL,"Study Phase2",7061,,,-1,-1,,,,1
5e96033d16389f06cce88f0f,gfj4fhejuz,"Deep vs Shallow",1,200,2020-07-08T15:05:16-07:00,7.6773858070374,3,versionC_stim.csv,RLVersionC.csv,"Realational Version C","Relational, read only version C",CLOTH,STRETCH,Study2,U,157,157,Study,User,-,,Study/JOL,"Study Phase2",6934,,,-1,-1,,,,1
5e96033d16389f06cce88f0f,gfj4fhejuz,"Deep vs Shallow",1,201,2020-07-08T15:05:21-07:00,5.6346211433411,3,versionC_stim.csv,RLVersionC.csv,"Realational Version C","Relational, read only version C",WAX,CANDLE,Study2,S,139,141,Study,User,-,,Study/JOL,"Study Phase2",4912,,,-1,-1,,,,1
5e96033d16389f06cce88f0f,gfj4fhejuz,"Deep vs Shallow",1,202,2020-07-08T15:05:32-07:00,10.444068908691,3,versionC_stim.csv,RLVersionC.csv,"Realational Version C","Relational, read only version C",Morning,TEMPERATURE,Study2,U,173,175,Study,User,-,,Study/JOL,"Study Phase2",9674,,,-1,-1,,,,1
5e96033d16389f06cce88f0f,gfj4fhejuz,"Deep vs Shallow",1,203,2020-07-08T15:05:43-07:00,10.955317974091,3,versionC_stim.csv,RLVersionC.csv,"Realational Version C","Relational, read only version C",BANG,FUZZY,Study2,U,168,140,Study,User,-,,Study/JOL,"Study Phase2",10229,,,-1,-1,,,,1
5e96033d16389f06cce88f0f,gfj4fhejuz,"Deep vs Shallow",1,204,2020-07-08T15:05:44-07:00,0.92396116256714,3,versionC_stim.csv,RLVersionC.csv,"Realational Version C","Relational, read only version C",COLD,CHILL,Study2,B,114,98,Study,User,-,,Study/JOL,"Study Phase2",324,,,-1,-1,,,,1
5e96033d16389f06cce88f0f,gfj4fhejuz,"Deep vs Shallow",1,205,2020-07-08T15:05:45-07:00,1.7377009391785,3,versionC_stim.csv,RLVersionC.csv,"Realational Version C","Relational, read only version C",SHAVE,RAZOR,Study2,S,136,109,Study,User,-,,Study/JOL,"Study Phase2",1138,,,-1,-1,,,,1
5e96033d16389f06cce88f0f,gfj4fhejuz,"Deep vs Shallow",1,206,2020-07-08T15:05:46-07:00,1.0101149082184,3,versionC_stim.csv,RLVersionC.csv,"Realational Version C","Relational, read only version C",REVENGE,EVEN,Study2,F,122,148,Study,User,-,,Study/JOL,"Study Phase2",321,,,-1,-1,,,,1
5e96033d16389f06cce88f0f,gfj4fhejuz,"Deep vs Shallow",1,207,2020-07-08T15:05:47-07:00,1.0444159507751,3,versionC_stim.csv,RLVersionC.csv,"Realational Version C","Relational, read only version C",TRASH,LITTER,Study2,B,103,102,Study,User,-,,Study/JOL,"Study Phase2",53,,,-1,-1,,,,1
5e96033d16389f06cce88f0f,gfj4fhejuz,"Deep vs Shallow",1,208,2020-07-08T15:05:49-07:00,1.4914391040802,3,versionC_stim.csv,RLVersionC.csv,"Realational Version C","Relational, read only version C",CHARM,VEHICLE,Study2,U,160,167,Study,User,-,,Study/JOL,"Study Phase2",941,,,-1,-1,,,,1
5e96033d16389f06cce88f0f,gfj4fhejuz,"Deep vs Shallow",1,209,2020-07-08T15:05:50-07:00,0.94517803192139,3,versionC_stim.csv,RLVersionC.csv,"Realational Version C","Relational, read only version C",OBTAIN,MEAT,Study2,U,161,136,Study,User,-,,Study/JOL,"Study Phase2",344,,,-1,-1,,,,1
5e96033d16389f06cce88f0f,gfj4fhejuz,"Deep vs Shallow",1,210,2020-07-08T15:05:51-07:00,1.5641889572144,3,versionC_stim.csv,RLVersionC.csv,"Realational Version C","Relational, read only version C",TOIL,LEASE,Study2,U,170,174,Study,User,-,,Study/JOL,"Study Phase2",1072,,,-1,-1,,,,1
5e96033d16389f06cce88f0f,gfj4fhejuz,"Deep vs Shallow",1,211,2020-07-08T15:05:52-07:00,0.94789600372314,3,versionC_stim.csv,RLVersionC.csv,"Realational Version C","Relational, read only version C",FLIP,TURN,Study2,F,116,161,Study,User,-,,Study/JOL,"Study Phase2",443,,,-1,-1,,,,1
5e96033d16389f06cce88f0f,gfj4fhejuz,"Deep vs Shallow",1,212,2020-07-08T15:05:53-07:00,0.95996403694153,3,versionC_stim.csv,RLVersionC.csv,"Realational Version C","Relational, read only version C",BRACELET,WRIST,Study2,S,140,166,Study,User,-,,Study/JOL,"Study Phase2",409,,,-1,-1,,,,1
5e96033d16389f06cce88f0f,gfj4fhejuz,"Deep vs Shallow",1,213,2020-07-08T15:05:54-07:00,0.95850992202759,3,versionC_stim.csv,RLVersionC.csv,"Realational Version C","Relational, read only version C",STEAK,GIVE,Study2,U,158,124,Study,User,-,,Study/JOL,"Study Phase2",461,,,-1,-1,,,,1
5e96033d16389f06cce88f0f,gfj4fhejuz,"Deep vs Shallow",1,214,2020-07-08T15:05:55-07:00,0.85778212547302,3,versionC_stim.csv,RLVersionC.csv,"Realational Version C","Relational, read only version C",NAP,SLEEP,Study2,F,134,129,Study,User,-,,Study/JOL,"Study Phase2",357,,,-1,-1,,,,1
5e96033d16389f06cce88f0f,gfj4fhejuz,"Deep vs Shallow",1,215,2020-07-08T15:05:56-07:00,0.92388200759888,3,versionC_stim.csv,RLVersionC.csv,"Realational Version C","Relational, read only version C",END,ADJOURN,Study2,B,101,173,Study,User,-,,Study/JOL,"Study Phase2",325,,,-1,-1,,,,1
5e96033d16389f06cce88f0f,gfj4fhejuz,"Deep vs Shallow",1,216,2020-07-08T15:05:57-07:00,0.80045890808105,3,versionC_stim.csv,RLVersionC.csv,"Realational Version C","Relational, read only version C",PAPER,DOCUMENT,Study2,B,109,99,Study,User,-,,Study/JOL,"Study Phase2",270,,,-1,-1,,,,1
5e96033d16389f06cce88f0f,gfj4fhejuz,"Deep vs Shallow",1,217,2020-07-08T15:05:58-07:00,1.0528569221497,3,versionC_stim.csv,RLVersionC.csv,"Realational Version C","Relational, read only version C",DOG,FURRY,Study2,B,102,123,Study,User,-,,Study/JOL,"Study Phase2",502,,,-1,-1,,,,1
5e96033d16389f06cce88f0f,gfj4fhejuz,"Deep vs Shallow",1,218,2020-07-08T15:05:59-07:00,0.84449100494385,3,versionC_stim.csv,RLVersionC.csv,"Realational Version C","Relational, read only version C",CAR,DRIVER,Study2,B,106,149,Study,User,-,,Study/JOL,"Study Phase2",351,,,-1,-1,,,,1
5e96033d16389f06cce88f0f,gfj4fhejuz,"Deep vs Shallow",1,219,2020-07-08T15:06:00-07:00,1.0376160144806,3,versionC_stim.csv,RLVersionC.csv,"Realational Version C","Relational, read only version C",JAR,MASON,Study2,S,138,151,Study,User,-,,Study/JOL,"Study Phase2",554,,,-1,-1,,,,1
5e96033d16389f06cce88f0f,gfj4fhejuz,"Deep vs Shallow",1,220,2020-07-08T15:06:01-07:00,1.1852920055389,3,versionC_stim.csv,RLVersionC.csv,"Realational Version C","Relational, read only version C",WINDSHIELD,CAR,Study2,F,117,154,Study,User,-,,Study/JOL,"Study Phase2",566,,,-1,-1,,,,1
5e96033d16389f06cce88f0f,gfj4fhejuz,"Deep vs Shallow",1,221,2020-07-08T15:06:02-07:00,0.84736800193787,3,versionC_stim.csv,RLVersionC.csv,"Realational Version C","Relational, read only version C",VILLAIN,BAD,Study2,F,118,139,Study,User,-,,Study/JOL,"Study Phase2",230,,,-1,-1,,,,1
5e96033d16389f06cce88f0f,gfj4fhejuz,"Deep vs Shallow",1,222,2020-07-08T15:06:03-07:00,0.91100311279297,3,versionC_stim.csv,RLVersionC.csv,"Realational Version C","Relational, read only version C",SMELL,INCENSE,Study2,B,110,176,Study,User,-,,Study/JOL,"Study Phase2",442,,,-1,-1,,,,1
5e96033d16389f06cce88f0f,gfj4fhejuz,"Deep vs Shallow",1,223,2020-07-08T15:06:03-07:00,0.75856304168701,3,versionC_stim.csv,RLVersionC.csv,"Realational Version C","Relational, read only version C",CLEAR,MOAT,Study2,U,169,158,Study,User,-,,Study/JOL,"Study Phase2",265,,,-1,-1,,,,1
5e96033d16389f06cce88f0f,gfj4fhejuz,"Deep vs Shallow",1,224,2020-07-08T15:06:11-07:00,7.1526169776917,3,versionC_stim.csv,RLVersionC.csv,"Realational Version C","Relational, read only version C",,,,,,0,Instruct,-,3,"Remember to focus on how the two items are similiar while you study!",,CHECK5,6458,,,-1,-1,,,,1
5e96033d16389f06cce88f0f,gfj4fhejuz,"Deep vs Shallow",1,225,2020-07-08T15:06:12-07:00,1.6686818599701,3,versionC_stim.csv,RLVersionC.csv,"Realational Version C","Relational, read only version C",NOISE,LOUD,Study2,S,152,170,Study,User,-,,Study/JOL,"Study Phase2",1051,,,-1,-1,,,,1
5e96033d16389f06cce88f0f,gfj4fhejuz,"Deep vs Shallow",1,226,2020-07-08T15:06:13-07:00,1.0920989513397,3,versionC_stim.csv,RLVersionC.csv,"Realational Version C","Relational, read only version C",RED,CHERRY,Study2,B,104,112,Study,User,-,,Study/JOL,"Study Phase2",547,,,-1,-1,,,,1
5e96033d16389f06cce88f0f,gfj4fhejuz,"Deep vs Shallow",1,227,2020-07-08T15:06:14-07:00,0.92718315124512,3,versionC_stim.csv,RLVersionC.csv,"Realational Version C","Relational, read only version C",FICTION,LISTEN,Study2,U,164,103,Study,User,-,,Study/JOL,"Study Phase2",323,,,-1,-1,,,,1
5e96033d16389f06cce88f0f,gfj4fhejuz,"Deep vs Shallow",1,228,2020-07-08T15:06:15-07:00,0.77568888664246,3,versionC_stim.csv,RLVersionC.csv,"Realational Version C","Relational, read only version C",GROUND,EARTH,Study2,S,144,104,Study,User,-,,Study/JOL,"Study Phase2",210,,,-1,-1,,,,1
5e96033d16389f06cce88f0f,gfj4fhejuz,"Deep vs Shallow",1,229,2020-07-08T15:06:16-07:00,0.79327201843262,3,versionC_stim.csv,RLVersionC.csv,"Realational Version C","Relational, read only version C",SHAKE,Shell,Study2,U,163,101,Study,User,-,,Study/JOL,"Study Phase2",276,,,-1,-1,,,,1
5e96033d16389f06cce88f0f,gfj4fhejuz,"Deep vs Shallow",1,230,2020-07-08T15:06:17-07:00,0.73941707611084,3,versionC_stim.csv,RLVersionC.csv,"Realational Version C","Relational, read only version C",SEATBELT,SAFETY,Study2,S,147,172,Study,User,-,,Study/JOL,"Study Phase2",262,,,-1,-1,,,,1
5e96033d16389f06cce88f0f,gfj4fhejuz,"Deep vs Shallow",1,231,2020-07-08T15:06:17-07:00,0.66504907608032,3,versionC_stim.csv,RLVersionC.csv,"Realational Version C","Relational, read only version C",ELECTION,MAZE,Study2,U,159,114,Study,User,-,,Study/JOL,"Study Phase2",199,,,-1,-1,,,,1
5e96033d16389f06cce88f0f,gfj4fhejuz,"Deep vs Shallow",1,232,2020-07-08T15:06:18-07:00,0.65612983703613,3,versionC_stim.csv,RLVersionC.csv,"Realational Version C","Relational, read only version C",HAVE,OWN,Study2,S,153,164,Study,User,-,,Study/JOL,"Study Phase2",31,,,-1,-1,,,,1
5e96033d16389f06cce88f0f,gfj4fhejuz,"Deep vs Shallow",1,233,2020-07-08T15:06:19-07:00,0.71151995658875,3,versionC_stim.csv,RLVersionC.csv,"Realational Version C","Relational, read only version C",SIGN,LOAN,Study2,U,171,155,Study,User,-,,Study/JOL,"Study Phase2",166,,,-1,-1,,,,1
5e96033d16389f06cce88f0f,gfj4fhejuz,"Deep vs Shallow",1,234,2020-07-08T15:06:19-07:00,0.67162704467773,3,versionC_stim.csv,RLVersionC.csv,"Realational Version C","Relational, read only version C",MYSTERY,DETECTIVE,Study2,B,100,128,Study,User,-,,Study/JOL,"Study Phase2",129,,,-1,-1,,,,1
5e96033d16389f06cce88f0f,gfj4fhejuz,"Deep vs Shallow",1,235,2020-07-08T15:06:20-07:00,0.63525104522705,3,versionC_stim.csv,RLVersionC.csv,"Realational Version C","Relational, read only version C",JOKE,KEYS,Study2,U,165,146,Study,User,-,,Study/JOL,"Study Phase2",45,,,-1,-1,,,,1
5e96033d16389f06cce88f0f,gfj4fhejuz,"Deep vs Shallow",1,236,2020-07-08T15:06:21-07:00,0.82445096969604,3,versionC_stim.csv,RLVersionC.csv,"Realational Version C","Relational, read only version C",TEMPER,TANTRUM,Study2,S,154,156,Study,User,-,,Study/JOL,"Study Phase2",373,,,-1,-1,,,,1
5e96033d16389f06cce88f0f,gfj4fhejuz,"Deep vs Shallow",1,237,2020-07-08T15:06:21-07:00,0.6843090057373,3,versionC_stim.csv,RLVersionC.csv,"Realational Version C","Relational, read only version C",TICK,FLEA,Study2,S,151,115,Study,User,-,,Study/JOL,"Study Phase2",187,,,-1,-1,,,,1
5e96033d16389f06cce88f0f,gfj4fhejuz,"Deep vs Shallow",1,238,2020-07-08T15:06:22-07:00,0.61051797866821,3,versionC_stim.csv,RLVersionC.csv,"Realational Version C","Relational, read only version C",FAVORITE,BEST,Study2,F,125,120,Study,User,-,,Study/JOL,"Study Phase2",117,,,-1,-1,,,,1
5e96033d16389f06cce88f0f,gfj4fhejuz,"Deep vs Shallow",1,239,2020-07-08T15:06:23-07:00,0.60150814056396,3,versionC_stim.csv,RLVersionC.csv,"Realational Version C","Relational, read only version C",TRUTHFUL,HONEST,Study2,F,133,116,Study,User,-,,Study/JOL,"Study Phase2",17,,,-1,-1,,,,1
5e96033d16389f06cce88f0f,gfj4fhejuz,"Deep vs Shallow",1,240,2020-07-08T15:06:24-07:00,1.2152268886566,3,versionC_stim.csv,RLVersionC.csv,"Realational Version C","Relational, read only version C",LOVE,AFFECTION,Study2,B,115,130,Study,User,-,,Study/JOL,"Study Phase2",624,,,-1,-1,,,,1
5e96033d16389f06cce88f0f,gfj4fhejuz,"Deep vs Shallow",1,241,2020-07-08T15:06:25-07:00,0.74240708351135,3,versionC_stim.csv,RLVersionC.csv,"Realational Version C","Relational, read only version C",PLANT,CACTUS,Study2,B,98,106,Study,User,-,,Study/JOL,"Study Phase2",273,,,-1,-1,,,,1
5e96033d16389f06cce88f0f,gfj4fhejuz,"Deep vs Shallow",1,242,2020-07-08T15:06:25-07:00,0.76835584640503,3,versionC_stim.csv,RLVersionC.csv,"Realational Version C","Relational, read only version C",OUNCE,BOTH,Study2,U,172,138,Study,User,-,,Study/JOL,"Study Phase2",262,,,-1,-1,,,,1
5e96033d16389f06cce88f0f,gfj4fhejuz,"Deep vs Shallow",1,243,2020-07-08T15:06:26-07:00,0.75398421287537,3,versionC_stim.csv,RLVersionC.csv,"Realational Version C","Relational, read only version C",FIGHT,FEUD,Study2,B,113,168,Study,User,-,,Study/JOL,"Study Phase2",289,,,-1,-1,,,,1
5e96033d16389f06cce88f0f,gfj4fhejuz,"Deep vs Shallow",1,244,2020-07-08T15:06:27-07:00,0.71659684181213,3,versionC_stim.csv,RLVersionC.csv,"Realational Version C","Relational, read only version C",HATE,NAME,Study2,U,167,162,Study,User,-,,Study/JOL,"Study Phase2",102,,,-1,-1,,,,1
5e96033d16389f06cce88f0f,gfj4fhejuz,"Deep vs Shallow",1,245,2020-07-08T15:06:28-07:00,0.79960107803345,3,versionC_stim.csv,RLVersionC.csv,"Realational Version C","Relational, read only version C",LONG,EXTENSION,Study2,B,96,97,Study,User,-,,Study/JOL,"Study Phase2",220,,,-1,-1,,,,1
5e96033d16389f06cce88f0f,gfj4fhejuz,"Deep vs Shallow",1,246,2020-07-08T15:06:28-07:00,0.64662504196167,3,versionC_stim.csv,RLVersionC.csv,"Realational Version C","Relational, read only version C",BRAWL,FIGHT,Study2,F,135,143,Study,User,-,,Study/JOL,"Study Phase2",148,,,-1,-1,,,,1
5e96033d16389f06cce88f0f,gfj4fhejuz,"Deep vs Shallow",1,247,2020-07-08T15:06:29-07:00,0.73640704154968,3,versionC_stim.csv,RLVersionC.csv,"Realational Version C","Relational, read only version C",CHILDREN,MIRROR,Study2,U,174,135,Study,User,-,,Study/JOL,"Study Phase2",264,,,-1,-1,,,,1
5e96033d16389f06cce88f0f,gfj4fhejuz,"Deep vs Shallow",1,248,2020-07-08T15:06:30-07:00,0.65008783340454,3,versionC_stim.csv,RLVersionC.csv,"Realational Version C","Relational, read only version C",WET,DRY,Study2,S,146,100,Study,User,-,,Study/JOL,"Study Phase2",158,,,-1,-1,,,,1
5e96033d16389f06cce88f0f,gfj4fhejuz,"Deep vs Shallow",1,249,2020-07-08T15:06:30-07:00,0.72794604301453,3,versionC_stim.csv,RLVersionC.csv,"Realational Version C","Relational, read only version C",SCAR,MAIN,Study2,U,175,144,Study,User,-,,Study/JOL,"Study Phase2",200,,,-1,-1,,,,1
5e96033d16389f06cce88f0f,gfj4fhejuz,"Deep vs Shallow",1,250,2020-07-08T15:06:31-07:00,0.73355793952942,3,versionC_stim.csv,RLVersionC.csv,"Realational Version C","Relational, read only version C",HEAD,SCALP,Study2,B,105,133,Study,User,-,,Study/JOL,"Study Phase2",201,,,-1,-1,,,,1
5e96033d16389f06cce88f0f,gfj4fhejuz,"Deep vs Shallow",1,251,2020-07-08T15:06:32-07:00,0.74442505836487,3,versionC_stim.csv,RLVersionC.csv,"Realational Version C","Relational, read only version C",PENGUIN,BIRD,Study2,F,119,122,Study,User,-,,Study/JOL,"Study Phase2",247,,,-1,-1,,,,1
5e96033d16389f06cce88f0f,gfj4fhejuz,"Deep vs Shallow",1,252,2020-07-08T15:06:33-07:00,0.71488690376282,3,versionC_stim.csv,RLVersionC.csv,"Realational Version C","Relational, read only version C",PANTHER,CAT,Study2,F,126,171,Study,User,-,,Study/JOL,"Study Phase2",241,,,-1,-1,,,,1
5e96033d16389f06cce88f0f,gfj4fhejuz,"Deep vs Shallow",1,253,2020-07-08T15:06:33-07:00,0.65304207801819,3,versionC_stim.csv,RLVersionC.csv,"Realational Version C","Relational, read only version C",GAME,CLUE,Study2,B,97,134,Study,User,-,,Study/JOL,"Study Phase2",159,,,-1,-1,,,,1
5e96033d16389f06cce88f0f,gfj4fhejuz,"Deep vs Shallow",1,254,2020-07-08T15:06:34-07:00,0.65259099006653,3,versionC_stim.csv,RLVersionC.csv,"Realational Version C","Relational, read only version C",LONELY,ALONE,Study2,S,145,107,Study,User,-,,Study/JOL,"Study Phase2",184,,,-1,-1,,,,1
5e96033d16389f06cce88f0f,gfj4fhejuz,"Deep vs Shallow",1,255,2020-07-08T15:06:36-07:00,2.1108620166779,3,versionC_stim.csv,RLVersionC.csv,"Realational Version C","Relational, read only version C",AWAY,GONE,Study2,S,142,132,Study,User,-,,Study/JOL,"Study Phase2",538,,,-1,-1,,,,1
5e96033d16389f06cce88f0f,gfj4fhejuz,"Deep vs Shallow",1,256,2020-07-08T15:06:37-07:00,0.89071297645569,3,versionC_stim.csv,RLVersionC.csv,"Realational Version C","Relational, read only version C",COMMUNICATION,PHONE,Study2,S,149,159,Study,User,-,,Study/JOL,"Study Phase2",352,,,-1,-1,,,,1
5e96033d16389f06cce88f0f,gfj4fhejuz,"Deep vs Shallow",1,257,2020-07-08T15:06:38-07:00,1.2438991069794,3,versionC_stim.csv,RLVersionC.csv,"Realational Version C","Relational, read only version C",REEL,ROD,Study2,S,150,118,Study,User,-,,Study/JOL,"Study Phase2",672,,,-1,-1,,,,1
5e96033d16389f06cce88f0f,gfj4fhejuz,"Deep vs Shallow",1,258,2020-07-08T15:06:45-07:00,6.9516799449921,3,versionC_stim.csv,RLVersionC.csv,"Realational Version C","Relational, read only version C",SARDINE,FISH,Study2,F,130,142,Study,User,-,,Study/JOL,"Study Phase2",6329,,,-1,-1,,,,1
5e96033d16389f06cce88f0f,gfj4fhejuz,"Deep vs Shallow",1,259,2020-07-08T15:06:47-07:00,1.5152039527893,3,versionC_stim.csv,RLVersionC.csv,"Realational Version C","Relational, read only version C",MAROON,JUSTICE,Study2,U,156,150,Study,User,-,,Study/JOL,"Study Phase2",931,,,-1,-1,,,,1
5e96033d16389f06cce88f0f,gfj4fhejuz,"Deep vs Shallow",1,260,2020-07-08T15:06:48-07:00,0.9594841003418,3,versionC_stim.csv,RLVersionC.csv,"Realational Version C","Relational, read only version C",TAN,SUN,Study2,S,155,113,Study,User,-,,Study/JOL,"Study Phase2",225,,,-1,-1,,,,1
5e96033d16389f06cce88f0f,gfj4fhejuz,"Deep vs Shallow",1,261,2020-07-08T15:06:48-07:00,0.61577200889587,3,versionC_stim.csv,RLVersionC.csv,"Realational Version C","Relational, read only version C",BANKER,MONEY,Study2,F,132,165,Study,User,-,,Study/JOL,"Study Phase2",68,,,-1,-1,,,,1
5e96033d16389f06cce88f0f,gfj4fhejuz,"Deep vs Shallow",1,262,2020-07-08T15:06:49-07:00,0.83337903022766,3,versionC_stim.csv,RLVersionC.csv,"Realational Version C","Relational, read only version C",SCISSORS,SHEARS,Study2,B,112,147,Study,User,-,,Study/JOL,"Study Phase2",274,,,-1,-1,,,,1
5e96033d16389f06cce88f0f,gfj4fhejuz,"Deep vs Shallow",1,263,2020-07-08T15:06:50-07:00,0.64980101585388,3,versionC_stim.csv,RLVersionC.csv,"Realational Version C","Relational, read only version C",COFFIN,DEAD,Study2,F,128,105,Study,User,-,,Study/JOL,"Study Phase2",111,,,-1,-1,,,,1
5e96033d16389f06cce88f0f,gfj4fhejuz,"Deep vs Shallow",1,264,2020-07-08T15:06:51-07:00,1.0030698776245,3,versionC_stim.csv,RLVersionC.csv,"Realational Version C","Relational, read only version C",CARBON,ELEMENT,Study2,S,141,153,Study,User,-,,Study/JOL,"Study Phase2",392,,,-1,-1,,,,1
5e96033d16389f06cce88f0f,gfj4fhejuz,"Deep vs Shallow",1,265,2020-07-08T15:06:52-07:00,0.89106607437134,3,versionC_stim.csv,RLVersionC.csv,"Realational Version C","Relational, read only version C",ABLE,CRACKLE,Study2,U,162,121,Study,User,-,,Study/JOL,"Study Phase2",403,,,-1,-1,,,,1
5e96033d16389f06cce88f0f,gfj4fhejuz,"Deep vs Shallow",1,266,2020-07-08T15:06:52-07:00,0.7731728553772,3,versionC_stim.csv,RLVersionC.csv,"Realational Version C","Relational, read only version C",BALLOON,POP,Study2,F,123,117,Study,User,-,,Study/JOL,"Study Phase2",286,,,-1,-1,,,,1
5e96033d16389f06cce88f0f,gfj4fhejuz,"Deep vs Shallow",1,267,2020-07-08T15:06:53-07:00,0.65652704238892,3,versionC_stim.csv,RLVersionC.csv,"Realational Version C","Relational, read only version C",THIMBLE,THREAD,Study2,F,121,126,Study,User,-,,Study/JOL,"Study Phase2",69,,,-1,-1,,,,1
5e96033d16389f06cce88f0f,gfj4fhejuz,"Deep vs Shallow",1,268,2020-07-08T15:06:54-07:00,0.80634307861328,3,versionC_stim.csv,RLVersionC.csv,"Realational Version C","Relational, read only version C",DONKEY,MULE,Study2,B,108,152,Study,User,-,,Study/JOL,"Study Phase2",249,,,-1,-1,,,,1
5e96033d16389f06cce88f0f,gfj4fhejuz,"Deep vs Shallow",1,269,2020-07-08T15:06:55-07:00,0.74372506141663,3,versionC_stim.csv,RLVersionC.csv,"Realational Version C","Relational, read only version C",LEAGUE,BASEBALL,Study2,F,131,119,Study,User,-,,Study/JOL,"Study Phase2",227,,,-1,-1,,,,1
5e96033d16389f06cce88f0f,gfj4fhejuz,"Deep vs Shallow",1,270,2020-07-08T15:06:55-07:00,0.71065497398376,3,versionC_stim.csv,RLVersionC.csv,"Realational Version C","Relational, read only version C",AIRCRAFT,PLANE,Study2,F,129,145,Study,User,-,,Study/JOL,"Study Phase2",234,,,-1,-1,,,,1
5e96033d16389f06cce88f0f,gfj4fhejuz,"Deep vs Shallow",1,271,2020-07-08T15:06:56-07:00,0.70913600921631,3,versionC_stim.csv,RLVersionC.csv,"Realational Version C","Relational, read only version C",SHED,TOOL,BUFFER4,Buffer,178,178,Study,User,-,,Study/JOL,BUFFER4,218,,,-1,-1,,,,1
5e96033d16389f06cce88f0f,gfj4fhejuz,"Deep vs Shallow",1,272,2020-07-08T15:06:57-07:00,0.73731684684753,3,versionC_stim.csv,RLVersionC.csv,"Realational Version C","Relational, read only version C",SPOOKY,OCTOBER,BUFFER4,Buffer,180,179,Study,User,-,,Study/JOL,BUFFER4,188,,,-1,-1,,,,1
5e96033d16389f06cce88f0f,gfj4fhejuz,"Deep vs Shallow",1,273,2020-07-08T15:06:58-07:00,1.7129580974579,3,versionC_stim.csv,RLVersionC.csv,"Realational Version C","Relational, read only version C",YEAR,MONTH,BUFFER4,Buffer,177,180,Study,User,-,,Study/JOL,BUFFER4,147,,,-1,-1,,,,1
5e96033d16389f06cce88f0f,gfj4fhejuz,"Deep vs Shallow",1,274,2020-07-08T15:06:59-07:00,1.0925760269165,3,versionC_stim.csv,RLVersionC.csv,"Realational Version C","Relational, read only version C",WEAKS,DAYS,BUFFER4,Buffer,176,177,Study,User,-,,Study/JOL,BUFFER4,590,,,-1,-1,,,,1
5e96033d16389f06cce88f0f,gfj4fhejuz,"Deep vs Shallow",1,275,2020-07-08T15:07:00-07:00,0.81649804115295,3,versionC_stim.csv,RLVersionC.csv,"Realational Version C","Relational, read only version C",MARCH,SPRING,BUFFER4,Buffer,179,181,Study,User,-,,Study/JOL,BUFFER4,326,,,-1,-1,,,,1
5e96033d16389f06cce88f0f,gfj4fhejuz,"Deep vs Shallow",1,276,2020-07-08T15:07:01-07:00,0.94025588035583,3,versionC_stim.csv,RLVersionC.csv,"Realational Version C","Relational, read only version C",,,,,,0,Instruct,User,-,"You have completed this section. Please press Enter.",Filler_Instruction,Instruct5,338,,,-1,-1,,,,1
5e96033d16389f06cce88f0f,gfj4fhejuz,"Deep vs Shallow",1,277,2020-07-08T15:07:39-07:00,37.597090005875,3,versionC_stim.csv,RLVersionC.csv,"Realational Version C","Relational, read only version C",,,,,,0,FreeRecall,-,10,"What were you supposed to focus on while you studied each pair? (Hint: Think back to the instructions). Type your answer in the space below.",,CHECK3,36859,"how the are related to each other ",0,5553,24878,0,0,,1
5e96033d16389f06cce88f0f,gfj4fhejuz,"Deep vs Shallow",1,278,2020-07-08T15:07:42-07:00,3.3744421005249,3,versionC_stim.csv,RLVersionC.csv,"Realational Version C","Relational, read only version C",,,,,,0,Instruct,User,-,"You have completed this section. Please press Enter.",Filler_Instruction,Instruct5,2646,,,-1,-1,,,,1
5e96033d16389f06cce88f0f,gfj4fhejuz,"Deep vs Shallow",1,279,2020-07-08T15:09:43-07:00,120.73046684265,3,versionC_stim.csv,RLVersionC.csv,"Realational Version C","Relational, read only version C",,,,,,0,FreeRecall,120,120,"Please list the 50 US states in reverse alphabetical order (z - a). The task will automatically advance to the next screen after two minutes.",,Filler2,120014,"Wyoming Wisconsin west verginia verginia Vermont Utah texas Tennessee south de",0,51729,119429,0,0,,1
5e96033d16389f06cce88f0f,gfj4fhejuz,"Deep vs Shallow",1,280,2020-07-08T15:09:55-07:00,12.289885044098,3,versionC_stim.csv,RLVersionC.csv,"Realational Version C","Relational, read only version C",,,,,,0,Instruct,-,10,"You will now be presented with the first word from each of the previously studied item pairs. Please type the missing word. If you do not know the word, you may guess or press Enter to skip forward to the next pair.",,Instruct6,11410,,,-1,-1,,,,1
5e96033d16389f06cce88f0f,gfj4fhejuz,"Deep vs Shallow",1,281,2020-07-08T15:10:09-07:00,13.516483068466,3,versionC_stim.csv,RLVersionC.csv,"Realational Version C","Relational, read only version C",CHILDREN,MIRROR,Study2,U,174,135,Test,User,-,,Recall,Recall2,12779,,0,-1,-1,0,0,,1
5e96033d16389f06cce88f0f,gfj4fhejuz,"Deep vs Shallow",1,282,2020-07-08T15:10:10-07:00,1.1608939170837,3,versionC_stim.csv,RLVersionC.csv,"Realational Version C","Relational, read only version C",REVENGE,EVEN,Study2,F,122,148,Test,User,-,,Recall,Recall2,558,,0,-1,-1,0,0,,1
5e96033d16389f06cce88f0f,gfj4fhejuz,"Deep vs Shallow",1,283,2020-07-08T15:10:23-07:00,13.583296060562,3,versionC_stim.csv,RLVersionC.csv,"Realational Version C","Relational, read only version C",TIE,SHOELACE,Study2,B,99,125,Test,User,-,,Recall,Recall2,12906,shoelaces,94.117647058824,7103,12665,0,1,,1
5e96033d16389f06cce88f0f,gfj4fhejuz,"Deep vs Shallow",1,284,2020-07-08T15:10:32-07:00,8.8184158802032,3,versionC_stim.csv,RLVersionC.csv,"Realational Version C","Relational, read only version C",PANTHER,CAT,Study2,F,126,171,Test,User,-,,Recall,Recall2,8081,black,25,5100,7577,0,0,,1
5e96033d16389f06cce88f0f,gfj4fhejuz,"Deep vs Shallow",1,285,2020-07-08T15:10:42-07:00,9.920704126358,3,versionC_stim.csv,RLVersionC.csv,"Realational Version C","Relational, read only version C",BRAWL,FIGHT,Study2,F,135,143,Test,User,-,,Recall,Recall2,9228,fight,100,6208,8208,1,1,,1
5e96033d16389f06cce88f0f,gfj4fhejuz,"Deep vs Shallow",1,286,2020-07-08T15:10:50-07:00,7.4796779155731,3,versionC_stim.csv,RLVersionC.csv,"Realational Version C","Relational, read only version C",CHARM,VEHICLE,Study2,U,160,167,Test,User,-,,Recall,Recall2,5525,lucky,16.666666666667,3321,5072,0,0,,1
5e96033d16389f06cce88f0f,gfj4fhejuz,"Deep vs Shallow",1,287,2020-07-08T15:10:53-07:00,3.789314031601,3,versionC_stim.csv,RLVersionC.csv,"Realational Version C","Relational, read only version C",GROUND,EARTH,Study2,S,144,104,Test,User,-,,Recall,Recall2,3075,beef,22.222222222222,2046,2957,0,0,,1
5e96033d16389f06cce88f0f,gfj4fhejuz,"Deep vs Shallow",1,288,2020-07-08T15:10:57-07:00,3.276654958725,3,versionC_stim.csv,RLVersionC.csv,"Realational Version C","Relational, read only version C",HAVE,OWN,Study2,S,153,164,Test,User,-,,Recall,Recall2,2411,had,0,1732,2300,0,0,,1
5e96033d16389f06cce88f0f,gfj4fhejuz,"Deep vs Shallow",1,289,2020-07-08T15:11:05-07:00,7.9885909557343,3,versionC_stim.csv,RLVersionC.csv,"Realational Version C","Relational, read only version C",Morning,TEMPERATURE,Study2,U,173,175,Test,User,-,,Recall,Recall2,7099,night,12.5,3573,6599,0,0,,1
5e96033d16389f06cce88f0f,gfj4fhejuz,"Deep vs Shallow",1,290,2020-07-08T15:11:11-07:00,6.5876281261444,3,versionC_stim.csv,RLVersionC.csv,"Realational Version C","Relational, read only version C",CAR,DRIVER,Study2,B,106,149,Test,User,-,,Recall,Recall2,5880,,0,-1,-1,0,0,,1
5e96033d16389f06cce88f0f,gfj4fhejuz,"Deep vs Shallow",1,291,2020-07-08T15:11:17-07:00,5.3907809257507,3,versionC_stim.csv,RLVersionC.csv,"Realational Version C","Relational, read only version C",ELECTION,MAZE,Study2,U,159,114,Test,User,-,,Recall,Recall2,4660,,0,-1,-1,0,0,,1
5e96033d16389f06cce88f0f,gfj4fhejuz,"Deep vs Shallow",1,292,2020-07-08T15:11:27-07:00,10.046622037888,3,versionC_stim.csv,RLVersionC.csv,"Realational Version C","Relational, read only version C",COLD,CHILL,Study2,B,114,98,Test,User,-,,Recall,Recall2,9209,weather,16.666666666667,6552,8745,0,0,,1
5e96033d16389f06cce88f0f,gfj4fhejuz,"Deep vs Shallow",1,293,2020-07-08T15:11:32-07:00,5.2472729682922,3,versionC_stim.csv,RLVersionC.csv,"Realational Version C","Relational, read only version C",DRINK,WATER,Study2,S,143,163,Test,User,-,,Recall,Recall2,4424,,0,-1,-1,0,0,,1
5e96033d16389f06cce88f0f,gfj4fhejuz,"Deep vs Shallow",1,294,2020-07-08T15:11:36-07:00,3.5442280769348,3,versionC_stim.csv,RLVersionC.csv,"Realational Version C","Relational, read only version C",HATE,NAME,Study2,U,167,162,Test,User,-,,Recall,Recall2,1809,,0,-1,-1,0,0,,1
5e96033d16389f06cce88f0f,gfj4fhejuz,"Deep vs Shallow",1,295,2020-07-08T15:12:03-07:00,26.94775891304,3,versionC_stim.csv,RLVersionC.csv,"Realational Version C","Relational, read only version C",COMMUNICATION,PHONE,Study2,S,149,159,Test,User,-,,Recall,Recall2,26212,talkinb,16.666666666667,5392,25941,0,0,,1
5e96033d16389f06cce88f0f,gfj4fhejuz,"Deep vs Shallow",1,296,2020-07-08T15:12:13-07:00,10.838046073914,3,versionC_stim.csv,RLVersionC.csv,"Realational Version C","Relational, read only version C",SMELL,INCENSE,Study2,B,110,176,Test,User,-,,Recall,Recall2,10046,stench,30.769230769231,6946,9608,0,0,,1
5e96033d16389f06cce88f0f,gfj4fhejuz,"Deep vs Shallow",1,297,2020-07-08T15:12:18-07:00,4.9157679080963,3,versionC_stim.csv,RLVersionC.csv,"Realational Version C","Relational, read only version C",SCISSORS,SHEARS,Study2,B,112,147,Test,User,-,,Recall,Recall2,4110,paper,36.363636363636,2757,3695,0,0,,1
5e96033d16389f06cce88f0f,gfj4fhejuz,"Deep vs Shallow",1,298,2020-07-08T15:12:22-07:00,4.0958771705627,3,versionC_stim.csv,RLVersionC.csv,"Realational Version C","Relational, read only version C",MAROON,JUSTICE,Study2,U,156,150,Test,User,-,,Recall,Recall2,3350,five,36.363636363636,1911,3046,0,0,,1
5e96033d16389f06cce88f0f,gfj4fhejuz,"Deep vs Shallow",1,299,2020-07-08T15:12:48-07:00,25.293572902679,3,versionC_stim.csv,RLVersionC.csv,"Realational Version C","Relational, read only version C",FICTION,LISTEN,Study2,U,164,103,Test,User,-,,Recall,Recall2,24592,m,0,3546,10037,0,0,,1
5e96033d16389f06cce88f0f,gfj4fhejuz,"Deep vs Shallow",1,300,2020-07-08T15:12:58-07:00,10.13592004776,3,versionC_stim.csv,RLVersionC.csv,"Realational Version C","Relational, read only version C",CLOTH,STRETCH,Study2,U,157,157,Test,User,-,,Recall,Recall2,9343,steched,71.428571428571,6556,8661,0,0,,1
5e96033d16389f06cce88f0f,gfj4fhejuz,"Deep vs Shallow",1,301,2020-07-08T15:13:03-07:00,5.2229928970337,3,versionC_stim.csv,RLVersionC.csv,"Realational Version C","Relational, read only version C",MYSTERY,DETECTIVE,Study2,B,100,128,Test,User,-,,Recall,Recall2,4492,machine,37.5,2081,4107,0,0,,1
5e96033d16389f06cce88f0f,gfj4fhejuz,"Deep vs Shallow",1,302,2020-07-08T15:13:06-07:00,3.3810501098633,3,versionC_stim.csv,RLVersionC.csv,"Realational Version C","Relational, read only version C",LONELY,ALONE,Study2,S,145,107,Test,User,-,,Recall,Recall2,2668,,0,-1,-1,0,0,,1
5e96033d16389f06cce88f0f,gfj4fhejuz,"Deep vs Shallow",1,303,2020-07-08T15:13:13-07:00,6.2434990406036,3,versionC_stim.csv,RLVersionC.csv,"Realational Version C","Relational, read only version C",AIRCRAFT,PLANE,Study2,F,129,145,Test,User,-,,Recall,Recall2,5466,carrier,33.333333333333,1838,4979,0,0,,1
5e96033d16389f06cce88f0f,gfj4fhejuz,"Deep vs Shallow",1,304,2020-07-08T15:13:17-07:00,4.5243430137634,3,versionC_stim.csv,RLVersionC.csv,"Realational Version C","Relational, read only version C",BREAKABLE,GLASS,Study2,F,127,110,Test,User,-,,Recall,Recall2,3701,glass,100,2255,3524,1,1,,1
5e96033d16389f06cce88f0f,gfj4fhejuz,"Deep vs Shallow",1,305,2020-07-08T15:13:21-07:00,4.0102620124817,3,versionC_stim.csv,RLVersionC.csv,"Realational Version C","Relational, read only version C",NAP,SLEEP,Study2,F,134,129,Test,User,-,,Recall,Recall2,3211,time,22.222222222222,2128,2956,0,0,,1
5e96033d16389f06cce88f0f,gfj4fhejuz,"Deep vs Shallow",1,306,2020-07-08T15:13:25-07:00,4.0659248828888,3,versionC_stim.csv,RLVersionC.csv,"Realational Version C","Relational, read only version C",FLIP,TURN,Study2,F,116,161,Test,User,-,,Recall,Recall2,3296,flop,0,2337,3003,0,0,,1
5e96033d16389f06cce88f0f,gfj4fhejuz,"Deep vs Shallow",1,307,2020-07-08T15:13:28-07:00,3.068855047226,3,versionC_stim.csv,RLVersionC.csv,"Realational Version C","Relational, read only version C",REEL,ROD,Study2,S,150,118,Test,User,-,,Recall,Recall2,2295,rof,66.666666666667,1497,1914,0,0,,1
5e96033d16389f06cce88f0f,gfj4fhejuz,"Deep vs Shallow",1,308,2020-07-08T15:13:37-07:00,9.0196509361267,3,versionC_stim.csv,RLVersionC.csv,"Realational Version C","Relational, read only version C",LIE,TRUTH,Study2,S,148,131,Test,User,-,,Recall,Recall2,8305,down,0,2466,6389,0,0,,1
5e96033d16389f06cce88f0f,gfj4fhejuz,"Deep vs Shallow",1,309,2020-07-08T15:13:45-07:00,7.1654419898987,3,versionC_stim.csv,RLVersionC.csv,"Realational Version C","Relational, read only version C",STRAWBERRY,FRUIT,Study2,F,124,160,Test,User,-,,Recall,Recall2,5897,fruiy,80,3144,5531,0,1,,1
5e96033d16389f06cce88f0f,gfj4fhejuz,"Deep vs Shallow",1,310,2020-07-08T15:13:52-07:00,7.3654339313507,3,versionC_stim.csv,RLVersionC.csv,"Realational Version C","Relational, read only version C",PAPER,DOCUMENT,Study2,B,109,99,Test,User,-,,Recall,Recall2,6596,scissors,12.5,3527,6362,0,0,,1
5e96033d16389f06cce88f0f,gfj4fhejuz,"Deep vs Shallow",1,311,2020-07-08T15:13:58-07:00,6.1421930789948,3,versionC_stim.csv,RLVersionC.csv,"Realational Version C","Relational, read only version C",THIMBLE,THREAD,Study2,F,121,126,Test,User,-,,Recall,Recall2,5357,thumb,36.363636363636,3216,4899,0,0,,1
5e96033d16389f06cce88f0f,gfj4fhejuz,"Deep vs Shallow",1,312,2020-07-08T15:14:02-07:00,4.2283959388733,3,versionC_stim.csv,RLVersionC.csv,"Realational Version C","Relational, read only version C",SCAR,MAIN,Study2,U,175,144,Test,User,-,,Recall,Recall2,3422,facw,25,2054,3182,0,0,,1
5e96033d16389f06cce88f0f,gfj4fhejuz,"Deep vs Shallow",1,313,2020-07-08T15:14:10-07:00,7.7569801807404,3,versionC_stim.csv,RLVersionC.csv,"Realational Version C","Relational, read only version C",LEAGUE,BASEBALL,Study2,F,131,119,Test,User,-,,Recall,Recall2,7027,football,50,1972,6600,0,0,,1
5e96033d16389f06cce88f0f,gfj4fhejuz,"Deep vs Shallow",1,314,2020-07-08T15:14:13-07:00,2.5597248077393,3,versionC_stim.csv,RLVersionC.csv,"Realational Version C","Relational, read only version C",OBTAIN,MEAT,Study2,U,161,136,Test,User,-,,Recall,Recall2,1811,,0,-1,-1,0,0,,1
5e96033d16389f06cce88f0f,gfj4fhejuz,"Deep vs Shallow",1,315,2020-07-08T15:14:17-07:00,4.5173461437225,3,versionC_stim.csv,RLVersionC.csv,"Realational Version C","Relational, read only version C",COFFIN,DEAD,Study2,F,128,105,Test,User,-,,Recall,Recall2,3735,dead,100,2576,3565,1,1,,1
5e96033d16389f06cce88f0f,gfj4fhejuz,"Deep vs Shallow",1,316,2020-07-08T15:14:23-07:00,6.0284810066223,3,versionC_stim.csv,RLVersionC.csv,"Realational Version C","Relational, read only version C",CUT,CHOP,Study2,B,107,169,Test,User,-,,Recall,Recall2,5138,knife,0,3193,4994,0,0,,1
5e96033d16389f06cce88f0f,gfj4fhejuz,"Deep vs Shallow",1,317,2020-07-08T15:14:28-07:00,5.2400350570679,3,versionC_stim.csv,RLVersionC.csv,"Realational Version C","Relational, read only version C",WINDSHIELD,CAR,Study2,F,117,154,Test,User,-,,Recall,Recall2,4477,car,100,3227,4260,1,1,,1
5e96033d16389f06cce88f0f,gfj4fhejuz,"Deep vs Shallow",1,318,2020-07-08T15:14:34-07:00,5.5144329071045,3,versionC_stim.csv,RLVersionC.csv,"Realational Version C","Relational, read only version C",DOG,FURRY,Study2,B,102,123,Test,User,-,,Recall,Recall2,4666,flufft,36.363636363636,1543,4299,0,0,,1
5e96033d16389f06cce88f0f,gfj4fhejuz,"Deep vs Shallow",1,319,2020-07-08T15:14:37-07:00,3.5922470092773,3,versionC_stim.csv,RLVersionC.csv,"Realational Version C","Relational, read only version C",DONKEY,MULE,Study2,B,108,152,Test,User,-,,Recall,Recall2,2818,,0,-1,-1,0,0,,1
5e96033d16389f06cce88f0f,gfj4fhejuz,"Deep vs Shallow",1,320,2020-07-08T15:14:40-07:00,2.9631500244141,3,versionC_stim.csv,RLVersionC.csv,"Realational Version C","Relational, read only version C",ABLE,CRACKLE,Study2,U,162,121,Test,User,-,,Recall,Recall2,2134,,0,-1,-1,0,0,,1
5e96033d16389f06cce88f0f,gfj4fhejuz,"Deep vs Shallow",1,321,2020-07-08T15:14:47-07:00,6.2720260620117,3,versionC_stim.csv,RLVersionC.csv,"Realational Version C","Relational, read only version C",SHAVE,RAZOR,Study2,S,136,109,Test,User,-,,Recall,Recall2,4884,razor,100,2523,4405,1,1,,1
5e96033d16389f06cce88f0f,gfj4fhejuz,"Deep vs Shallow",1,322,2020-07-08T15:14:51-07:00,4.3517220020294,3,versionC_stim.csv,RLVersionC.csv,"Realational Version C","Relational, read only version C",BANG,FUZZY,Study2,U,168,140,Test,User,-,,Recall,Recall2,2584,,0,-1,-1,0,0,,1
5e96033d16389f06cce88f0f,gfj4fhejuz,"Deep vs Shallow",1,323,2020-07-08T15:14:55-07:00,4.0286948680878,3,versionC_stim.csv,RLVersionC.csv,"Realational Version C","Relational, read only version C",SEATBELT,SAFETY,Study2,S,147,172,Test,User,-,,Recall,Recall2,3246,car,22.222222222222,2407,3064,0,0,,1
5e96033d16389f06cce88f0f,gfj4fhejuz,"Deep vs Shallow",1,324,2020-07-08T15:14:59-07:00,4.2883179187775,3,versionC_stim.csv,RLVersionC.csv,"Realational Version C","Relational, read only version C",CARBON,ELEMENT,Study2,S,141,153,Test,User,-,,Recall,Recall2,3528,fibre,16.666666666667,1797,3289,0,0,,1
5e96033d16389f06cce88f0f,gfj4fhejuz,"Deep vs Shallow",1,325,2020-07-08T15:15:02-07:00,2.6684641838074,3,versionC_stim.csv,RLVersionC.csv,"Realational Version C","Relational, read only version C",SHAKE,Shell,Study2,U,163,101,Test,User,-,,Recall,Recall2,1608,,0,-1,-1,0,0,,1
5e96033d16389f06cce88f0f,gfj4fhejuz,"Deep vs Shallow",1,326,2020-07-08T15:15:04-07:00,1.9532589912415,3,versionC_stim.csv,RLVersionC.csv,"Realational Version C","Relational, read only version C",WAX,CANDLE,Study2,S,139,141,Test,User,-,,Recall,Recall2,1340,,0,-1,-1,0,0,,1
5e96033d16389f06cce88f0f,gfj4fhejuz,"Deep vs Shallow",1,327,2020-07-08T15:15:12-07:00,8.2813339233398,3,versionC_stim.csv,RLVersionC.csv,"Realational Version C","Relational, read only version C",EQUAL,RIGHTS,Study2,S,137,108,Test,User,-,,Recall,Recall2,7573,rights,100,1874,7089,1,1,,1
5e96033d16389f06cce88f0f,gfj4fhejuz,"Deep vs Shallow",1,328,2020-07-08T15:15:21-07:00,9.2337861061096,3,versionC_stim.csv,RLVersionC.csv,"Realational Version C","Relational, read only version C",GAME,CLUE,Study2,B,97,134,Test,User,-,,Recall,Recall2,8418,play,25,3174,8131,0,0,,1
5e96033d16389f06cce88f0f,gfj4fhejuz,"Deep vs Shallow",1,329,2020-07-08T15:15:27-07:00,5.5180008411407,3,versionC_stim.csv,RLVersionC.csv,"Realational Version C","Relational, read only version C",WET,DRY,Study2,S,146,100,Test,User,-,,Recall,Recall2,4728,wate,0,3377,4348,0,0,,1
5e96033d16389f06cce88f0f,gfj4fhejuz,"Deep vs Shallow",1,330,2020-07-08T15:15:31-07:00,3.9968709945679,3,versionC_stim.csv,RLVersionC.csv,"Realational Version C","Relational, read only version C",NOISE,LOUD,Study2,S,152,170,Test,User,-,,Recall,Recall2,3263,,0,-1,-1,0,0,,1
5e96033d16389f06cce88f0f,gfj4fhejuz,"Deep vs Shallow",1,331,2020-07-08T15:15:36-07:00,4.9039061069489,3,versionC_stim.csv,RLVersionC.csv,"Realational Version C","Relational, read only version C",BANKER,MONEY,Study2,F,132,165,Test,User,-,,Recall,Recall2,4112,bank,22.222222222222,2564,3513,0,0,,1
5e96033d16389f06cce88f0f,gfj4fhejuz,"Deep vs Shallow",1,332,2020-07-08T15:15:40-07:00,4.4046130180359,3,versionC_stim.csv,RLVersionC.csv,"Realational Version C","Relational, read only version C",JOKE,KEYS,Study2,U,165,146,Test,User,-,,Recall,Recall2,3635,funny,22.222222222222,1727,3281,0,0,,1
5e96033d16389f06cce88f0f,gfj4fhejuz,"Deep vs Shallow",1,333,2020-07-08T15:15:44-07:00,3.9005219936371,3,versionC_stim.csv,RLVersionC.csv,"Realational Version C","Relational, read only version C",EAT,DINE,Study2,B,111,127,Test,User,-,,Recall,Recall2,3115,food,25,1992,2801,0,0,,1
5e96033d16389f06cce88f0f,gfj4fhejuz,"Deep vs Shallow",1,334,2020-07-08T15:15:50-07:00,6.2351539134979,3,versionC_stim.csv,RLVersionC.csv,"Realational Version C","Relational, read only version C",SIGN,LOAN,Study2,U,171,155,Test,User,-,,Recall,Recall2,5468,paper,22.222222222222,2106,4966,0,0,,1
5e96033d16389f06cce88f0f,gfj4fhejuz,"Deep vs Shallow",1,335,2020-07-08T15:15:56-07:00,5.9421141147614,3,versionC_stim.csv,RLVersionC.csv,"Realational Version C","Relational, read only version C",VILLAIN,BAD,Study2,F,118,139,Test,User,-,,Recall,Recall2,5137,hero,0,3218,4741,0,0,,1
5e96033d16389f06cce88f0f,gfj4fhejuz,"Deep vs Shallow",1,336,2020-07-08T15:16:06-07:00,9.9529368877411,3,versionC_stim.csv,RLVersionC.csv,"Realational Version C","Relational, read only version C",LOVE,AFFECTION,Study2,B,115,130,Test,User,-,,Recall,Recall2,9035,her,16.666666666667,8193,8684,0,0,,1
5e96033d16389f06cce88f0f,gfj4fhejuz,"Deep vs Shallow",1,337,2020-07-08T15:16:12-07:00,5.6117079257965,3,versionC_stim.csv,RLVersionC.csv,"Realational Version C","Relational, read only version C",CLEAR,MOAT,Study2,U,169,158,Test,User,-,,Recall,Recall2,4857,water,44.444444444444,1827,4369,0,0,,1
5e96033d16389f06cce88f0f,gfj4fhejuz,"Deep vs Shallow",1,338,2020-07-08T15:16:21-07:00,8.9080572128296,3,versionC_stim.csv,RLVersionC.csv,"Realational Version C","Relational, read only version C",TEMPER,TANTRUM,Study2,S,154,156,Test,User,-,,Recall,Recall2,8159,tantrum,100,5461,7657,1,1,,1
5e96033d16389f06cce88f0f,gfj4fhejuz,"Deep vs Shallow",1,339,2020-07-08T15:16:24-07:00,3.1834669113159,3,versionC_stim.csv,RLVersionC.csv,"Realational Version C","Relational, read only version C",BALLOON,POP,Study2,F,123,117,Test,User,-,,Recall,Recall2,2475,pop,100,1748,2212,1,1,,1
5e96033d16389f06cce88f0f,gfj4fhejuz,"Deep vs Shallow",1,340,2020-07-08T15:16:28-07:00,4.2920410633087,3,versionC_stim.csv,RLVersionC.csv,"Realational Version C","Relational, read only version C",OUNCE,BOTH,Study2,U,172,138,Test,User,-,,Recall,Recall2,3521,gram,0,2095,3089,0,0,,1
5e96033d16389f06cce88f0f,gfj4fhejuz,"Deep vs Shallow",1,341,2020-07-08T15:16:35-07:00,6.9610188007355,3,versionC_stim.csv,RLVersionC.csv,"Realational Version C","Relational, read only version C",FAVORITE,BEST,Study2,F,125,120,Test,User,-,,Recall,Recall2,6252,place,22.222222222222,3327,4909,0,0,,1
5e96033d16389f06cce88f0f,gfj4fhejuz,"Deep vs Shallow",1,342,2020-07-08T15:16:45-07:00,9.422502040863,3,versionC_stim.csv,RLVersionC.csv,"Realational Version C","Relational, read only version C",ACTRESS,STAR,Study2,F,120,111,Test,User,-,,Recall,Recall2,8694,actor,44.444444444444,2282,8317,0,0,,1
5e96033d16389f06cce88f0f,gfj4fhejuz,"Deep vs Shallow",1,343,2020-07-08T15:16:48-07:00,3.1731371879578,3,versionC_stim.csv,RLVersionC.csv,"Realational Version C","Relational, read only version C",AWAY,GONE,Study2,S,142,132,Test,User,-,,Recall,Recall2,2422,,0,-1,-1,0,0,,1
5e96033d16389f06cce88f0f,gfj4fhejuz,"Deep vs Shallow",1,344,2020-07-08T15:17:07-07:00,19.557620763779,3,versionC_stim.csv,RLVersionC.csv,"Realational Version C","Relational, read only version C",RED,CHERRY,Study2,B,104,112,Test,User,-,,Recall,Recall2,18773,flower,33.333333333333,2497,17698,0,0,,1
5e96033d16389f06cce88f0f,gfj4fhejuz,"Deep vs Shallow",1,345,2020-07-08T15:17:15-07:00,7.3813681602478,3,versionC_stim.csv,RLVersionC.csv,"Realational Version C","Relational, read only version C",TRUTHFUL,HONEST,Study2,F,133,116,Test,User,-,,Recall,Recall2,6640,liar,0,3892,5637,0,0,,1
5e96033d16389f06cce88f0f,gfj4fhejuz,"Deep vs Shallow",1,346,2020-07-08T15:17:24-07:00,8.672966003418,3,versionC_stim.csv,RLVersionC.csv,"Realational Version C","Relational, read only version C",END,ADJOURN,Study2,B,101,173,Test,User,-,,Recall,Recall2,6982,start,33.333333333333,2038,6368,0,0,,1
