Username,ID,ExperimentName,Session,Trial,Date,TimeDif,"Condition Number","Stimuli File","Order File","Condition Description","Condition Notes",Stimuli*Cue,Stimuli*Answer,Stimuli*Shuffle,"Stimuli*Stimuli Notes",Stimuli*Value,Procedure*Item,"Procedure*Trial Type","Procedure*Max Time","Procedure*Min Time",Procedure*Text,"Procedure*Procedure Notes",Procedure*Shuffle,Response*RT,Response*Response,Response*Accuracy,Response*RTfirst,Response*RTlast,Response*strictAcc,Response*lenientAcc,Response*focus,Response*Focus
5e176d9b3654c20746564542,4cwk1hoko5,Nick_Dissertation_EX1,1,1,2020-07-08T14:25:14-07:00,62.050489187241,3,versionC_stim.csv,READVersionC.csv,"Read Version C","Dissertation, read only version C",,,,,,0,Instruct,-,10,"Please study each of the following word pairs. Remember that your memory will be tested! When finished, press Enter to move to the next pair.",Initial_Instruct,Instruct1,11562,,,-1,-1,,,,1
5e176d9b3654c20746564542,4cwk1hoko5,Nick_Dissertation_EX1,1,2,2020-07-08T14:25:16-07:00,2.3660409450531,3,versionC_stim.csv,READVersionC.csv,"Read Version C","Dissertation, read only version C",BUTTER,PEANUT,BUFFER1,Buffer,3,5,Study,User,-,,Study/JOL,BUFFER,2058,,,-1,-1,,,,1
5e176d9b3654c20746564542,4cwk1hoko5,Nick_Dissertation_EX1,1,3,2020-07-08T14:25:18-07:00,1.5382990837097,3,versionC_stim.csv,READVersionC.csv,"Read Version C","Dissertation, read only version C",JAM,SPACE,BUFFER1,Buffer,5,3,Study,User,-,,Study/JOL,BUFFER,1216,,,-1,-1,,,,1
5e176d9b3654c20746564542,4cwk1hoko5,Nick_Dissertation_EX1,1,4,2020-07-08T14:25:20-07:00,2.0662548542023,3,versionC_stim.csv,READVersionC.csv,"Read Version C","Dissertation, read only version C",GREEN,TREES,BUFFER1,Buffer,1,4,Study,User,-,,Study/JOL,BUFFER,1775,,,-1,-1,,,,1
5e176d9b3654c20746564542,4cwk1hoko5,Nick_Dissertation_EX1,1,5,2020-07-08T14:25:21-07:00,1.1076049804688,3,versionC_stim.csv,READVersionC.csv,"Read Version C","Dissertation, read only version C",HIDE,SCARE,BUFFER1,Buffer,4,6,Study,User,-,,Study/JOL,BUFFER,796,,,-1,-1,,,,1
5e176d9b3654c20746564542,4cwk1hoko5,Nick_Dissertation_EX1,1,6,2020-07-08T14:25:22-07:00,1.0892369747162,3,versionC_stim.csv,READVersionC.csv,"Read Version C","Dissertation, read only version C",CATCHER,BASEBALL,BUFFER1,Buffer,2,2,Study,User,-,,Study/JOL,BUFFER,781,,,-1,-1,,,,1
5e176d9b3654c20746564542,4cwk1hoko5,Nick_Dissertation_EX1,1,7,2020-07-08T14:25:23-07:00,0.99808311462402,3,versionC_stim.csv,READVersionC.csv,"Read Version C","Dissertation, read only version C",ENOUGH,FULL,Study1,F,26,18,Study,User,-,,Study/JOL,"Study Phase",684,,,-1,-1,,,,1
5e176d9b3654c20746564542,4cwk1hoko5,Nick_Dissertation_EX1,1,8,2020-07-08T14:25:24-07:00,1.2180790901184,3,versionC_stim.csv,READVersionC.csv,"Read Version C","Dissertation, read only version C",STOMACH,DIGESTION,Study1,B,7,32,Study,User,-,,Study/JOL,"Study Phase",904,,,-1,-1,,,,1
5e176d9b3654c20746564542,4cwk1hoko5,Nick_Dissertation_EX1,1,9,2020-07-08T14:25:25-07:00,1.1275978088379,3,versionC_stim.csv,READVersionC.csv,"Read Version C","Dissertation, read only version C",SITE,LOCATION,Study1,S,48,7,Study,User,-,,Study/JOL,"Study Phase",826,,,-1,-1,,,,1
5e176d9b3654c20746564542,4cwk1hoko5,Nick_Dissertation_EX1,1,10,2020-07-08T14:25:26-07:00,0.77172112464905,3,versionC_stim.csv,READVersionC.csv,"Read Version C","Dissertation, read only version C",DIVISION,MATH,Study1,F,33,58,Study,User,-,,Study/JOL,"Study Phase",466,,,-1,-1,,,,1
5e176d9b3654c20746564542,4cwk1hoko5,Nick_Dissertation_EX1,1,11,2020-07-08T14:25:27-07:00,0.76310300827026,3,versionC_stim.csv,READVersionC.csv,"Read Version C","Dissertation, read only version C",RACKET,BALL,Study1,F,38,28,Study,User,-,,Study/JOL,"Study Phase",468,,,-1,-1,,,,1
5e176d9b3654c20746564542,4cwk1hoko5,Nick_Dissertation_EX1,1,12,2020-07-08T14:25:28-07:00,0.83274698257446,3,versionC_stim.csv,READVersionC.csv,"Read Version C","Dissertation, read only version C",HAND,FIX,Study1,U,75,47,Study,User,-,,Study/JOL,"Study Phase",511,,,-1,-1,,,,1
5e176d9b3654c20746564542,4cwk1hoko5,Nick_Dissertation_EX1,1,13,2020-07-08T14:25:28-07:00,0.72547602653503,3,versionC_stim.csv,READVersionC.csv,"Read Version C","Dissertation, read only version C",WASTE,DUMP,Study1,S,49,81,Study,User,-,,Study/JOL,"Study Phase",413,,,-1,-1,,,,1
5e176d9b3654c20746564542,4cwk1hoko5,Nick_Dissertation_EX1,1,14,2020-07-08T14:25:29-07:00,0.77725982666016,3,versionC_stim.csv,READVersionC.csv,"Read Version C","Dissertation, read only version C",DOG,PAW,Study1,B,15,56,Study,User,-,,Study/JOL,"Study Phase",466,,,-1,-1,,,,1
5e176d9b3654c20746564542,4cwk1hoko5,Nick_Dissertation_EX1,1,15,2020-07-08T14:25:30-07:00,0.79169106483459,3,versionC_stim.csv,READVersionC.csv,"Read Version C","Dissertation, read only version C",CAVE,DARK,Study1,F,28,14,Study,User,-,,Study/JOL,"Study Phase",475,,,-1,-1,,,,1
5e176d9b3654c20746564542,4cwk1hoko5,Nick_Dissertation_EX1,1,16,2020-07-08T14:25:31-07:00,0.88756012916565,3,versionC_stim.csv,READVersionC.csv,"Read Version C","Dissertation, read only version C",ASSIGNMENT,DUE,Study1,S,46,9,Study,User,-,,Study/JOL,"Study Phase",575,,,-1,-1,,,,1
5e176d9b3654c20746564542,4cwk1hoko5,Nick_Dissertation_EX1,1,17,2020-07-08T14:25:32-07:00,0.82319402694702,3,versionC_stim.csv,READVersionC.csv,"Read Version C","Dissertation, read only version C",COW,HERD,Study1,B,22,66,Study,User,-,,Study/JOL,"Study Phase",506,,,-1,-1,,,,1
5e176d9b3654c20746564542,4cwk1hoko5,Nick_Dissertation_EX1,1,18,2020-07-08T14:25:33-07:00,0.84379291534424,3,versionC_stim.csv,READVersionC.csv,"Read Version C","Dissertation, read only version C",WAR,REVOLUTION,Study1,B,20,24,Study,User,-,,Study/JOL,"Study Phase",533,,,-1,-1,,,,1
5e176d9b3654c20746564542,4cwk1hoko5,Nick_Dissertation_EX1,1,19,2020-07-08T14:25:33-07:00,0.83775806427002,3,versionC_stim.csv,READVersionC.csv,"Read Version C","Dissertation, read only version C",POSITION,MACHINE,Study1,U,76,76,Study,User,-,,Study/JOL,"Study Phase",522,,,-1,-1,,,,1
5e176d9b3654c20746564542,4cwk1hoko5,Nick_Dissertation_EX1,1,20,2020-07-08T14:25:35-07:00,1.2683680057526,3,versionC_stim.csv,READVersionC.csv,"Read Version C","Dissertation, read only version C",ROUND,CIRCLE,Study1,S,65,51,Study,User,-,,Study/JOL,"Study Phase",939,,,-1,-1,,,,1
5e176d9b3654c20746564542,4cwk1hoko5,Nick_Dissertation_EX1,1,21,2020-07-08T14:25:35-07:00,0.81411290168762,3,versionC_stim.csv,READVersionC.csv,"Read Version C","Dissertation, read only version C",BAR,GRILL,Study1,S,52,15,Study,User,-,,Study/JOL,"Study Phase",500,,,-1,-1,,,,1
5e176d9b3654c20746564542,4cwk1hoko5,Nick_Dissertation_EX1,1,22,2020-07-08T14:25:36-07:00,0.72144293785095,3,versionC_stim.csv,READVersionC.csv,"Read Version C","Dissertation, read only version C",ADD,VALLEY,Study1,U,82,50,Study,User,-,,Study/JOL,"Study Phase",405,,,-1,-1,,,,1
5e176d9b3654c20746564542,4cwk1hoko5,Nick_Dissertation_EX1,1,23,2020-07-08T14:25:37-07:00,0.78523302078247,3,versionC_stim.csv,READVersionC.csv,"Read Version C","Dissertation, read only version C",DESIGN,ARCHITECTURE,Study1,S,51,23,Study,User,-,,Study/JOL,"Study Phase",478,,,-1,-1,,,,1
5e176d9b3654c20746564542,4cwk1hoko5,Nick_Dissertation_EX1,1,24,2020-07-08T14:25:38-07:00,0.83182501792908,3,versionC_stim.csv,READVersionC.csv,"Read Version C","Dissertation, read only version C",SEIZE,TAKE,Study1,F,29,49,Study,User,-,,Study/JOL,"Study Phase",527,,,-1,-1,,,,1
5e176d9b3654c20746564542,4cwk1hoko5,Nick_Dissertation_EX1,1,25,2020-07-08T14:25:39-07:00,0.85378408432007,3,versionC_stim.csv,READVersionC.csv,"Read Version C","Dissertation, read only version C",FUTURE,PAST,Study1,S,61,39,Study,User,-,,Study/JOL,"Study Phase",557,,,-1,-1,,,,1
5e176d9b3654c20746564542,4cwk1hoko5,Nick_Dissertation_EX1,1,26,2020-07-08T14:25:39-07:00,0.78597283363342,3,versionC_stim.csv,READVersionC.csv,"Read Version C","Dissertation, read only version C",TUCK,ALLOW,Study1,U,78,64,Study,User,-,,Study/JOL,"Study Phase",484,,,-1,-1,,,,1
5e176d9b3654c20746564542,4cwk1hoko5,Nick_Dissertation_EX1,1,27,2020-07-08T14:25:40-07:00,0.86060619354248,3,versionC_stim.csv,READVersionC.csv,"Read Version C","Dissertation, read only version C",CHEESE,WINE,Study1,S,57,26,Study,User,-,,Study/JOL,"Study Phase",547,,,-1,-1,,,,1
5e176d9b3654c20746564542,4cwk1hoko5,Nick_Dissertation_EX1,1,28,2020-07-08T14:25:41-07:00,0.74264287948608,3,versionC_stim.csv,READVersionC.csv,"Read Version C","Dissertation, read only version C",TOILET,BATHROOM,Study1,S,58,70,Study,User,-,,Study/JOL,"Study Phase",423,,,-1,-1,,,,1
5e176d9b3654c20746564542,4cwk1hoko5,Nick_Dissertation_EX1,1,29,2020-07-08T14:25:43-07:00,2.0535399913788,3,versionC_stim.csv,READVersionC.csv,"Read Version C","Dissertation, read only version C",MONEY,WAGE,Study1,B,8,37,Study,User,-,,Study/JOL,"Study Phase",753,,,-1,-1,,,,1
5e176d9b3654c20746564542,4cwk1hoko5,Nick_Dissertation_EX1,1,30,2020-07-08T14:25:45-07:00,1.428719997406,3,versionC_stim.csv,READVersionC.csv,"Read Version C","Dissertation, read only version C",PILOT,PLANE,Study1,F,44,31,Study,User,-,,Study/JOL,"Study Phase",1079,,,-1,-1,,,,1
5e176d9b3654c20746564542,4cwk1hoko5,Nick_Dissertation_EX1,1,31,2020-07-08T14:25:46-07:00,1.1415410041809,3,versionC_stim.csv,READVersionC.csv,"Read Version C","Dissertation, read only version C",CARD,CREDIT,Study1,B,23,45,Study,User,-,,Study/JOL,"Study Phase",838,,,-1,-1,,,,1
5e176d9b3654c20746564542,4cwk1hoko5,Nick_Dissertation_EX1,1,32,2020-07-08T14:25:47-07:00,0.91538715362549,3,versionC_stim.csv,READVersionC.csv,"Read Version C","Dissertation, read only version C",WATER,BRIDGE,Study1,B,18,77,Study,User,-,,Study/JOL,"Study Phase",616,,,-1,-1,,,,1
5e176d9b3654c20746564542,4cwk1hoko5,Nick_Dissertation_EX1,1,33,2020-07-08T14:25:47-07:00,0.86269783973694,3,versionC_stim.csv,READVersionC.csv,"Read Version C","Dissertation, read only version C",PLANT,ROOT,Study1,B,13,60,Study,User,-,,Study/JOL,"Study Phase",553,,,-1,-1,,,,1
5e176d9b3654c20746564542,4cwk1hoko5,Nick_Dissertation_EX1,1,34,2020-07-08T14:25:49-07:00,1.4331660270691,3,versionC_stim.csv,READVersionC.csv,"Read Version C","Dissertation, read only version C",ROCK,GEOLOGY,Study1,B,19,36,Study,User,-,,Study/JOL,"Study Phase",1122,,,-1,-1,,,,1
5e176d9b3654c20746564542,4cwk1hoko5,Nick_Dissertation_EX1,1,35,2020-07-08T14:25:50-07:00,0.95268797874451,3,versionC_stim.csv,READVersionC.csv,"Read Version C","Dissertation, read only version C",BELT,SOON,Study1,U,70,78,Study,User,-,,Study/JOL,"Study Phase",638,,,-1,-1,,,,1
5e176d9b3654c20746564542,4cwk1hoko5,Nick_Dissertation_EX1,1,36,2020-07-08T14:25:51-07:00,1.070454120636,3,versionC_stim.csv,READVersionC.csv,"Read Version C","Dissertation, read only version C",CHILI,HOT,Study1,F,37,44,Study,User,-,,Study/JOL,"Study Phase",772,,,-1,-1,,,,1
5e176d9b3654c20746564542,4cwk1hoko5,Nick_Dissertation_EX1,1,37,2020-07-08T14:25:52-07:00,1.1258928775787,3,versionC_stim.csv,READVersionC.csv,"Read Version C","Dissertation, read only version C",LATCH,KEY,Study1,F,36,86,Study,User,-,,Study/JOL,"Study Phase",823,,,-1,-1,,,,1
5e176d9b3654c20746564542,4cwk1hoko5,Nick_Dissertation_EX1,1,38,2020-07-08T14:25:53-07:00,0.83949708938599,3,versionC_stim.csv,READVersionC.csv,"Read Version C","Dissertation, read only version C",NEWS,EDITOR,Study1,B,10,54,Study,User,-,,Study/JOL,"Study Phase",516,,,-1,-1,,,,1
5e176d9b3654c20746564542,4cwk1hoko5,Nick_Dissertation_EX1,1,39,2020-07-08T14:25:54-07:00,0.83623600006104,3,versionC_stim.csv,READVersionC.csv,"Read Version C","Dissertation, read only version C",BUSINESS,DEATH,Study1,U,72,40,Study,User,-,,Study/JOL,"Study Phase",526,,,-1,-1,,,,1
5e176d9b3654c20746564542,4cwk1hoko5,Nick_Dissertation_EX1,1,40,2020-07-08T14:25:55-07:00,0.97000885009766,3,versionC_stim.csv,READVersionC.csv,"Read Version C","Dissertation, read only version C",DROWSY,SLEEP,Study1,F,41,75,Study,User,-,,Study/JOL,"Study Phase",649,,,-1,-1,,,,1
5e176d9b3654c20746564542,4cwk1hoko5,Nick_Dissertation_EX1,1,41,2020-07-08T14:25:56-07:00,0.86828517913818,3,versionC_stim.csv,READVersionC.csv,"Read Version C","Dissertation, read only version C",BIRD,SWAN,Study1,B,14,13,Study,User,-,,Study/JOL,"Study Phase",558,,,-1,-1,,,,1
5e176d9b3654c20746564542,4cwk1hoko5,Nick_Dissertation_EX1,1,42,2020-07-08T14:25:56-07:00,0.77377486228943,3,versionC_stim.csv,READVersionC.csv,"Read Version C","Dissertation, read only version C",BRONZE,ARTERY,Study1,U,74,35,Study,User,-,,Study/JOL,"Study Phase",459,,,-1,-1,,,,1
5e176d9b3654c20746564542,4cwk1hoko5,Nick_Dissertation_EX1,1,43,2020-07-08T14:25:58-07:00,1.8894701004028,3,versionC_stim.csv,READVersionC.csv,"Read Version C","Dissertation, read only version C",SALAD,LETTUCE,Study1,S,59,74,Study,User,-,,Study/JOL,"Study Phase",1598,,,-1,-1,,,,1
5e176d9b3654c20746564542,4cwk1hoko5,Nick_Dissertation_EX1,1,44,2020-07-08T14:25:59-07:00,0.76813292503357,3,versionC_stim.csv,READVersionC.csv,"Read Version C","Dissertation, read only version C",SIP,DRINK,Study1,F,27,21,Study,User,-,,Study/JOL,"Study Phase",461,,,-1,-1,,,,1
5e176d9b3654c20746564542,4cwk1hoko5,Nick_Dissertation_EX1,1,45,2020-07-08T14:26:01-07:00,2.0473420619965,3,versionC_stim.csv,READVersionC.csv,"Read Version C","Dissertation, read only version C",HAMMER,CHISEL,Study1,B,9,19,Study,User,-,,Study/JOL,"Study Phase",625,,,-1,-1,,,,1
5e176d9b3654c20746564542,4cwk1hoko5,Nick_Dissertation_EX1,1,46,2020-07-08T14:26:02-07:00,0.79567408561707,3,versionC_stim.csv,READVersionC.csv,"Read Version C","Dissertation, read only version C",AMOUNT,NUMBER,Study1,S,47,20,Study,User,-,,Study/JOL,"Study Phase",472,,,-1,-1,,,,1
5e176d9b3654c20746564542,4cwk1hoko5,Nick_Dissertation_EX1,1,47,2020-07-08T14:26:03-07:00,0.80819988250732,3,versionC_stim.csv,READVersionC.csv,"Read Version C","Dissertation, read only version C",CLEAN,HYGIENE,Study1,B,17,68,Study,User,-,,Study/JOL,"Study Phase",473,,,-1,-1,,,,1
5e176d9b3654c20746564542,4cwk1hoko5,Nick_Dissertation_EX1,1,48,2020-07-08T14:26:03-07:00,0.83354496955872,3,versionC_stim.csv,READVersionC.csv,"Read Version C","Dissertation, read only version C",SIGHT,DEBATE,Study1,U,73,79,Study,User,-,,Study/JOL,"Study Phase",472,,,-1,-1,,,,1
5e176d9b3654c20746564542,4cwk1hoko5,Nick_Dissertation_EX1,1,49,2020-07-08T14:26:04-07:00,0.87261414527893,3,versionC_stim.csv,READVersionC.csv,"Read Version C","Dissertation, read only version C",SACKING,DIETARY,Study1,U,67,48,Study,User,-,,Study/JOL,"Study Phase",525,,,-1,-1,,,,1
5e176d9b3654c20746564542,4cwk1hoko5,Nick_Dissertation_EX1,1,50,2020-07-08T14:26:05-07:00,0.773432970047,3,versionC_stim.csv,READVersionC.csv,"Read Version C","Dissertation, read only version C",CLUTTER,PUSHER,Study1,U,66,55,Study,User,-,,Study/JOL,"Study Phase",463,,,-1,-1,,,,1
5e176d9b3654c20746564542,4cwk1hoko5,Nick_Dissertation_EX1,1,51,2020-07-08T14:26:06-07:00,0.84106683731079,3,versionC_stim.csv,READVersionC.csv,"Read Version C","Dissertation, read only version C",FANTASTIC,GREAT,Study1,F,35,22,Study,User,-,,Study/JOL,"Study Phase",522,,,-1,-1,,,,1
5e176d9b3654c20746564542,4cwk1hoko5,Nick_Dissertation_EX1,1,52,2020-07-08T14:26:07-07:00,0.8487491607666,3,versionC_stim.csv,READVersionC.csv,"Read Version C","Dissertation, read only version C",ATTORNEY,LAW,Study1,F,34,80,Study,User,-,,Study/JOL,"Study Phase",538,,,-1,-1,,,,1
5e176d9b3654c20746564542,4cwk1hoko5,Nick_Dissertation_EX1,1,53,2020-07-08T14:26:08-07:00,0.76552295684814,3,versionC_stim.csv,READVersionC.csv,"Read Version C","Dissertation, read only version C",BLAZE,FIRE,Study1,F,45,53,Study,User,-,,Study/JOL,"Study Phase",471,,,-1,-1,,,,1
5e176d9b3654c20746564542,4cwk1hoko5,Nick_Dissertation_EX1,1,54,2020-07-08T14:26:08-07:00,0.83713507652283,3,versionC_stim.csv,READVersionC.csv,"Read Version C","Dissertation, read only version C",DEFINITION,MEANING,Study1,S,62,17,Study,User,-,,Study/JOL,"Study Phase",530,,,-1,-1,,,,1
5e176d9b3654c20746564542,4cwk1hoko5,Nick_Dissertation_EX1,1,55,2020-07-08T14:26:09-07:00,0.86752891540527,3,versionC_stim.csv,READVersionC.csv,"Read Version C","Dissertation, read only version C",FLOWER,ORCHID,Study1,B,24,83,Study,User,-,,Study/JOL,"Study Phase",561,,,-1,-1,,,,1
5e176d9b3654c20746564542,4cwk1hoko5,Nick_Dissertation_EX1,1,56,2020-07-08T14:26:10-07:00,0.75760889053345,3,versionC_stim.csv,READVersionC.csv,"Read Version C","Dissertation, read only version C",ACCIDENT,STRONG,Study1,U,80,43,Study,User,-,,Study/JOL,"Study Phase",446,,,-1,-1,,,,1
5e176d9b3654c20746564542,4cwk1hoko5,Nick_Dissertation_EX1,1,57,2020-07-08T14:26:11-07:00,0.86929106712341,3,versionC_stim.csv,READVersionC.csv,"Read Version C","Dissertation, read only version C",COLD,BITTER,Study1,B,12,34,Study,User,-,,Study/JOL,"Study Phase",565,,,-1,-1,,,,1
5e176d9b3654c20746564542,4cwk1hoko5,Nick_Dissertation_EX1,1,58,2020-07-08T14:26:12-07:00,0.82405495643616,3,versionC_stim.csv,READVersionC.csv,"Read Version C","Dissertation, read only version C",SODA,POP,Study1,S,56,84,Study,User,-,,Study/JOL,"Study Phase",508,,,-1,-1,,,,1
5e176d9b3654c20746564542,4cwk1hoko5,Nick_Dissertation_EX1,1,59,2020-07-08T14:26:13-07:00,0.84678101539612,3,versionC_stim.csv,READVersionC.csv,"Read Version C","Dissertation, read only version C",CAR,HAPPY,Study1,U,77,10,Study,User,-,,Study/JOL,"Study Phase",565,,,-1,-1,,,,1
5e176d9b3654c20746564542,4cwk1hoko5,Nick_Dissertation_EX1,1,60,2020-07-08T14:26:13-07:00,0.82648015022278,3,versionC_stim.csv,READVersionC.csv,"Read Version C","Dissertation, read only version C",WOULD,CASH,Study1,U,83,52,Study,User,-,,Study/JOL,"Study Phase",521,,,-1,-1,,,,1
5e176d9b3654c20746564542,4cwk1hoko5,Nick_Dissertation_EX1,1,61,2020-07-08T14:26:14-07:00,0.81650280952454,3,versionC_stim.csv,READVersionC.csv,"Read Version C","Dissertation, read only version C",CHILD,BABY,Study1,S,64,69,Study,User,-,,Study/JOL,"Study Phase",517,,,-1,-1,,,,1
5e176d9b3654c20746564542,4cwk1hoko5,Nick_Dissertation_EX1,1,62,2020-07-08T14:26:15-07:00,0.86936116218567,3,versionC_stim.csv,READVersionC.csv,"Read Version C","Dissertation, read only version C",STING,HORNET,Study1,B,11,72,Study,User,-,,Study/JOL,"Study Phase",558,,,-1,-1,,,,1
5e176d9b3654c20746564542,4cwk1hoko5,Nick_Dissertation_EX1,1,63,2020-07-08T14:26:16-07:00,0.80832982063293,3,versionC_stim.csv,READVersionC.csv,"Read Version C","Dissertation, read only version C",FOOT,SHOE,Study1,S,60,63,Study,User,-,,Study/JOL,"Study Phase",497,,,-1,-1,,,,1
5e176d9b3654c20746564542,4cwk1hoko5,Nick_Dissertation_EX1,1,64,2020-07-08T14:26:17-07:00,0.94267916679382,3,versionC_stim.csv,READVersionC.csv,"Read Version C","Dissertation, read only version C",BEE,HONEY,Study1,S,63,57,Study,User,-,,Study/JOL,"Study Phase",628,,,-1,-1,,,,1
5e176d9b3654c20746564542,4cwk1hoko5,Nick_Dissertation_EX1,1,65,2020-07-08T14:26:20-07:00,3.113420009613,3,versionC_stim.csv,READVersionC.csv,"Read Version C","Dissertation, read only version C",LIVER,KIDNEY,Study1,S,53,29,Study,User,-,,Study/JOL,"Study Phase",2753,,,-1,-1,,,,1
5e176d9b3654c20746564542,4cwk1hoko5,Nick_Dissertation_EX1,1,66,2020-07-08T14:26:23-07:00,2.9462208747864,3,versionC_stim.csv,READVersionC.csv,"Read Version C","Dissertation, read only version C",FAMINE,HUNGER,Study1,F,40,8,Study,User,-,,Study/JOL,"Study Phase",2649,,,-1,-1,,,,1
5e176d9b3654c20746564542,4cwk1hoko5,Nick_Dissertation_EX1,1,67,2020-07-08T14:26:24-07:00,1.4907159805298,3,versionC_stim.csv,READVersionC.csv,"Read Version C","Dissertation, read only version C",STENCH,SMELL,Study1,F,42,25,Study,User,-,,Study/JOL,"Study Phase",1173,,,-1,-1,,,,1
5e176d9b3654c20746564542,4cwk1hoko5,Nick_Dissertation_EX1,1,68,2020-07-08T14:26:26-07:00,1.2394731044769,3,versionC_stim.csv,READVersionC.csv,"Read Version C","Dissertation, read only version C",JURY,TRIAL,Study1,S,50,67,Study,User,-,,Study/JOL,"Study Phase",913,,,-1,-1,,,,1
5e176d9b3654c20746564542,4cwk1hoko5,Nick_Dissertation_EX1,1,69,2020-07-08T14:26:27-07:00,1.196121931076,3,versionC_stim.csv,READVersionC.csv,"Read Version C","Dissertation, read only version C",FISH,TUNA,Study1,B,25,82,Study,User,-,,Study/JOL,"Study Phase",890,,,-1,-1,,,,1
5e176d9b3654c20746564542,4cwk1hoko5,Nick_Dissertation_EX1,1,70,2020-07-08T14:26:29-07:00,2.3685400485992,3,versionC_stim.csv,READVersionC.csv,"Read Version C","Dissertation, read only version C",WIND,BLOW,Study1,S,55,30,Study,User,-,,Study/JOL,"Study Phase",2069,,,-1,-1,,,,1
5e176d9b3654c20746564542,4cwk1hoko5,Nick_Dissertation_EX1,1,71,2020-07-08T14:26:31-07:00,1.6450629234314,3,versionC_stim.csv,READVersionC.csv,"Read Version C","Dissertation, read only version C",END,BEGIN,Study1,S,54,12,Study,User,-,,Study/JOL,"Study Phase",1357,,,-1,-1,,,,1
5e176d9b3654c20746564542,4cwk1hoko5,Nick_Dissertation_EX1,1,72,2020-07-08T14:26:32-07:00,1.4107539653778,3,versionC_stim.csv,READVersionC.csv,"Read Version C","Dissertation, read only version C",RIDDLE,SUGAR,Study1,U,81,85,Study,User,-,,Study/JOL,"Study Phase",1099,,,-1,-1,,,,1
5e176d9b3654c20746564542,4cwk1hoko5,Nick_Dissertation_EX1,1,73,2020-07-08T14:26:33-07:00,1.0237891674042,3,versionC_stim.csv,READVersionC.csv,"Read Version C","Dissertation, read only version C",WASP,BUG,Study1,F,32,38,Study,User,-,,Study/JOL,"Study Phase",714,,,-1,-1,,,,1
5e176d9b3654c20746564542,4cwk1hoko5,Nick_Dissertation_EX1,1,74,2020-07-08T14:26:34-07:00,0.9439709186554,3,versionC_stim.csv,READVersionC.csv,"Read Version C","Dissertation, read only version C",FLOOR,DISCOVER,Study1,U,71,59,Study,User,-,,Study/JOL,"Study Phase",638,,,-1,-1,,,,1
5e176d9b3654c20746564542,4cwk1hoko5,Nick_Dissertation_EX1,1,75,2020-07-08T14:26:35-07:00,1.0648610591888,3,versionC_stim.csv,READVersionC.csv,"Read Version C","Dissertation, read only version C",WORD,SENTENCE,Study1,F,31,71,Study,User,-,,Study/JOL,"Study Phase",761,,,-1,-1,,,,1
5e176d9b3654c20746564542,4cwk1hoko5,Nick_Dissertation_EX1,1,76,2020-07-08T14:26:39-07:00,3.5759429931641,3,versionC_stim.csv,READVersionC.csv,"Read Version C","Dissertation, read only version C",CHORE,WORK,Study1,F,39,42,Study,User,-,,Study/JOL,"Study Phase",3268,,,-1,-1,,,,1
5e176d9b3654c20746564542,4cwk1hoko5,Nick_Dissertation_EX1,1,77,2020-07-08T14:26:40-07:00,1.2287578582764,3,versionC_stim.csv,READVersionC.csv,"Read Version C","Dissertation, read only version C",HUNGRY,PARK,Study1,U,68,33,Study,User,-,,Study/JOL,"Study Phase",914,,,-1,-1,,,,1
5e176d9b3654c20746564542,4cwk1hoko5,Nick_Dissertation_EX1,1,78,2020-07-08T14:26:41-07:00,0.93510818481445,3,versionC_stim.csv,READVersionC.csv,"Read Version C","Dissertation, read only version C",VASE,KING,Study1,U,85,73,Study,User,-,,Study/JOL,"Study Phase",613,,,-1,-1,,,,1
5e176d9b3654c20746564542,4cwk1hoko5,Nick_Dissertation_EX1,1,79,2020-07-08T14:26:42-07:00,1.2281949520111,3,versionC_stim.csv,READVersionC.csv,"Read Version C","Dissertation, read only version C",ATTIRE,CLOTHES,Study1,F,43,41,Study,User,-,,Study/JOL,"Study Phase",908,,,-1,-1,,,,1
5e176d9b3654c20746564542,4cwk1hoko5,Nick_Dissertation_EX1,1,80,2020-07-08T14:26:43-07:00,1.0133149623871,3,versionC_stim.csv,READVersionC.csv,"Read Version C","Dissertation, read only version C",GROWTH,HEIGHT,Study1,F,30,62,Study,User,-,,Study/JOL,"Study Phase",705,,,-1,-1,,,,1
5e176d9b3654c20746564542,4cwk1hoko5,Nick_Dissertation_EX1,1,81,2020-07-08T14:26:44-07:00,0.96657204627991,3,versionC_stim.csv,READVersionC.csv,"Read Version C","Dissertation, read only version C",LION,ART,Study1,U,79,46,Study,User,-,,Study/JOL,"Study Phase",654,,,-1,-1,,,,1
5e176d9b3654c20746564542,4cwk1hoko5,Nick_Dissertation_EX1,1,82,2020-07-08T14:26:45-07:00,0.89289498329163,3,versionC_stim.csv,READVersionC.csv,"Read Version C","Dissertation, read only version C",WOMAN,LIFT,Study1,U,69,16,Study,User,-,,Study/JOL,"Study Phase",558,,,-1,-1,,,,1
5e176d9b3654c20746564542,4cwk1hoko5,Nick_Dissertation_EX1,1,83,2020-07-08T14:26:46-07:00,0.715980052948,3,versionC_stim.csv,READVersionC.csv,"Read Version C","Dissertation, read only version C",OUT,WAY,Study1,B,16,65,Study,User,-,,Study/JOL,"Study Phase",405,,,-1,-1,,,,1
5e176d9b3654c20746564542,4cwk1hoko5,Nick_Dissertation_EX1,1,84,2020-07-08T14:26:47-07:00,1.0829939842224,3,versionC_stim.csv,READVersionC.csv,"Read Version C","Dissertation, read only version C",SICK,HIDE,Study1,U,84,27,Study,User,-,,Study/JOL,"Study Phase",756,,,-1,-1,,,,1
5e176d9b3654c20746564542,4cwk1hoko5,Nick_Dissertation_EX1,1,85,2020-07-08T14:26:48-07:00,1.0561690330505,3,versionC_stim.csv,READVersionC.csv,"Read Version C","Dissertation, read only version C",BAD,DELINQUENT,Study1,B,6,61,Study,User,-,,Study/JOL,"Study Phase",743,,,-1,-1,,,,1
5e176d9b3654c20746564542,4cwk1hoko5,Nick_Dissertation_EX1,1,86,2020-07-08T14:26:49-07:00,0.85332989692688,3,versionC_stim.csv,READVersionC.csv,"Read Version C","Dissertation, read only version C",TALK,DISCUSSION,Study1,B,21,11,Study,User,-,,Study/JOL,"Study Phase",543,,,-1,-1,,,,1
5e176d9b3654c20746564542,4cwk1hoko5,Nick_Dissertation_EX1,1,87,2020-07-08T14:26:50-07:00,1.2134249210358,3,versionC_stim.csv,READVersionC.csv,"Read Version C","Dissertation, read only version C",GOOSE,GEESE,BUFFER2,Buffer,86,91,Study,User,-,,Study/JOL,BUFFER2,904,,,-1,-1,,,,1
5e176d9b3654c20746564542,4cwk1hoko5,Nick_Dissertation_EX1,1,88,2020-07-08T14:26:51-07:00,0.77066206932068,3,versionC_stim.csv,READVersionC.csv,"Read Version C","Dissertation, read only version C",CHOCOLATE,MALT,BUFFER2,Buffer,88,90,Study,User,-,,Study/JOL,BUFFER2,455,,,-1,-1,,,,1
5e176d9b3654c20746564542,4cwk1hoko5,Nick_Dissertation_EX1,1,89,2020-07-08T14:26:52-07:00,1.1544919013977,3,versionC_stim.csv,READVersionC.csv,"Read Version C","Dissertation, read only version C",POLICE,SHERRIF,BUFFER2,Buffer,87,89,Study,User,-,,Study/JOL,BUFFER2,814,,,-1,-1,,,,1
5e176d9b3654c20746564542,4cwk1hoko5,Nick_Dissertation_EX1,1,90,2020-07-08T14:26:53-07:00,0.68987417221069,3,versionC_stim.csv,READVersionC.csv,"Read Version C","Dissertation, read only version C",STUFF,THING,BUFFER2,Buffer,90,88,Study,User,-,,Study/JOL,BUFFER2,382,,,-1,-1,,,,1
5e176d9b3654c20746564542,4cwk1hoko5,Nick_Dissertation_EX1,1,91,2020-07-08T14:26:53-07:00,0.80647897720337,3,versionC_stim.csv,READVersionC.csv,"Read Version C","Dissertation, read only version C",SPACE,MOON,BUFFER2,Buffer,89,87,Study,User,-,,Study/JOL,BUFFER2,488,,,-1,-1,,,,1
5e176d9b3654c20746564542,4cwk1hoko5,Nick_Dissertation_EX1,1,92,2020-07-08T14:26:55-07:00,1.8251459598541,3,versionC_stim.csv,READVersionC.csv,"Read Version C","Dissertation, read only version C",,,,,,0,Instruct,User,-,"You have completed this section. Please press Enter.",Filler_Instruction,Instruct2,1499,,,-1,-1,,,,1
5e176d9b3654c20746564542,4cwk1hoko5,Nick_Dissertation_EX1,1,93,2020-07-08T14:28:56-07:00,120.37199902534,3,versionC_stim.csv,READVersionC.csv,"Read Version C","Dissertation, read only version C",,,,,,0,FreeRecall,120,120,"Please list the 50 US states in alphabetical order. The task will automatically advance to the next screen after two minutes.",,Filler1,120001,"Alaska Arkansas Alabama Kentucky Louisiana New Jersey New York North Dakota South Carolina South Dakota Ohio Texas ",0,15739,107130,0,0,,1
5e176d9b3654c20746564542,4cwk1hoko5,Nick_Dissertation_EX1,1,94,2020-07-08T14:29:08-07:00,12.185095071793,3,versionC_stim.csv,READVersionC.csv,"Read Version C","Dissertation, read only version C",,,,,,0,Instruct,-,10,"You will now be presented with the first word from each of the previously studied item pairs. Please type the missing word. If you do not know the word, you may guess or press Enter to skip forward to the next pair.",,Instruct3,11810,,,-1,-1,,,,1
5e176d9b3654c20746564542,4cwk1hoko5,Nick_Dissertation_EX1,1,95,2020-07-08T14:29:17-07:00,9.4769358634949,3,versionC_stim.csv,READVersionC.csv,"Read Version C","Dissertation, read only version C",CLEAN,HYGIENE,Study1,B,17,68,Test,User,-,,Recall,Recall1,9174,Dirty,16.666666666667,7169,7858,0,0,,1
5e176d9b3654c20746564542,4cwk1hoko5,Nick_Dissertation_EX1,1,96,2020-07-08T14:29:25-07:00,7.4365050792694,3,versionC_stim.csv,READVersionC.csv,"Read Version C","Dissertation, read only version C",BRONZE,ARTERY,Study1,U,74,35,Test,User,-,,Recall,Recall1,7104,Artery,100,2786,5807,1,1,,1
5e176d9b3654c20746564542,4cwk1hoko5,Nick_Dissertation_EX1,1,97,2020-07-08T14:29:35-07:00,10.139299869537,3,versionC_stim.csv,READVersionC.csv,"Read Version C","Dissertation, read only version C",STING,HORNET,Study1,B,11,72,Test,User,-,,Recall,Recall1,9741,Bee,22.222222222222,8531,8916,0,0,,1
5e176d9b3654c20746564542,4cwk1hoko5,Nick_Dissertation_EX1,1,98,2020-07-08T14:29:39-07:00,3.7254440784454,3,versionC_stim.csv,READVersionC.csv,"Read Version C","Dissertation, read only version C",SEIZE,TAKE,Study1,F,29,49,Test,User,-,,Recall,Recall1,3419,,0,-1,-1,0,0,,1
5e176d9b3654c20746564542,4cwk1hoko5,Nick_Dissertation_EX1,1,99,2020-07-08T14:29:40-07:00,1.7069199085236,3,versionC_stim.csv,READVersionC.csv,"Read Version C","Dissertation, read only version C",BELT,SOON,Study1,U,70,78,Test,User,-,,Recall,Recall1,1393,,0,-1,-1,0,0,,1
5e176d9b3654c20746564542,4cwk1hoko5,Nick_Dissertation_EX1,1,100,2020-07-08T14:29:41-07:00,1.1158080101013,3,versionC_stim.csv,READVersionC.csv,"Read Version C","Dissertation, read only version C",POSITION,MACHINE,Study1,U,76,76,Test,User,-,,Recall,Recall1,810,,0,-1,-1,0,0,,1
5e176d9b3654c20746564542,4cwk1hoko5,Nick_Dissertation_EX1,1,101,2020-07-08T14:29:43-07:00,1.768737077713,3,versionC_stim.csv,READVersionC.csv,"Read Version C","Dissertation, read only version C",ROUND,CIRCLE,Study1,S,65,51,Test,User,-,,Recall,Recall1,1461,,0,-1,-1,0,0,,1
5e176d9b3654c20746564542,4cwk1hoko5,Nick_Dissertation_EX1,1,102,2020-07-08T14:29:47-07:00,3.4565899372101,3,versionC_stim.csv,READVersionC.csv,"Read Version C","Dissertation, read only version C",DEFINITION,MEANING,Study1,S,62,17,Test,User,-,,Recall,Recall1,3146,,0,-1,-1,0,0,,1
5e176d9b3654c20746564542,4cwk1hoko5,Nick_Dissertation_EX1,1,103,2020-07-08T14:29:51-07:00,4.4115030765533,3,versionC_stim.csv,READVersionC.csv,"Read Version C","Dissertation, read only version C",PILOT,PLANE,Study1,F,44,31,Test,User,-,,Recall,Recall1,4105,Plane,100,2216,2891,1,1,,1
5e176d9b3654c20746564542,4cwk1hoko5,Nick_Dissertation_EX1,1,104,2020-07-08T14:29:52-07:00,1.0966360569,3,versionC_stim.csv,READVersionC.csv,"Read Version C","Dissertation, read only version C",ADD,VALLEY,Study1,U,82,50,Test,User,-,,Recall,Recall1,777,,0,-1,-1,0,0,,1
5e176d9b3654c20746564542,4cwk1hoko5,Nick_Dissertation_EX1,1,105,2020-07-08T14:29:56-07:00,3.8940999507904,3,versionC_stim.csv,READVersionC.csv,"Read Version C","Dissertation, read only version C",DESIGN,ARCHITECTURE,Study1,S,51,23,Test,User,-,,Recall,Recall1,3583,Definition,18.181818181818,1608,2716,0,0,,1
5e176d9b3654c20746564542,4cwk1hoko5,Nick_Dissertation_EX1,1,106,2020-07-08T14:29:57-07:00,1.3841729164124,3,versionC_stim.csv,READVersionC.csv,"Read Version C","Dissertation, read only version C",FAMINE,HUNGER,Study1,F,40,8,Test,User,-,,Recall,Recall1,1055,,0,-1,-1,0,0,,1
5e176d9b3654c20746564542,4cwk1hoko5,Nick_Dissertation_EX1,1,107,2020-07-08T14:29:59-07:00,1.0595760345459,3,versionC_stim.csv,READVersionC.csv,"Read Version C","Dissertation, read only version C",ATTIRE,CLOTHES,Study1,F,43,41,Test,User,-,,Recall,Recall1,746,,0,-1,-1,0,0,,1
5e176d9b3654c20746564542,4cwk1hoko5,Nick_Dissertation_EX1,1,108,2020-07-08T14:30:03-07:00,4.5829010009766,3,versionC_stim.csv,READVersionC.csv,"Read Version C","Dissertation, read only version C",BLAZE,FIRE,Study1,F,45,53,Test,User,-,,Recall,Recall1,4270,Burn,25,2525,3378,0,0,,1
5e176d9b3654c20746564542,4cwk1hoko5,Nick_Dissertation_EX1,1,109,2020-07-08T14:30:08-07:00,4.8180420398712,3,versionC_stim.csv,READVersionC.csv,"Read Version C","Dissertation, read only version C",CARD,CREDIT,Study1,B,23,45,Test,User,-,,Recall,Recall1,4497,Credit,100,2982,3708,1,1,,1
5e176d9b3654c20746564542,4cwk1hoko5,Nick_Dissertation_EX1,1,110,2020-07-08T14:30:09-07:00,1.4481790065765,3,versionC_stim.csv,READVersionC.csv,"Read Version C","Dissertation, read only version C",WASTE,DUMP,Study1,S,49,81,Test,User,-,,Recall,Recall1,1092,,0,-1,-1,0,0,,1
5e176d9b3654c20746564542,4cwk1hoko5,Nick_Dissertation_EX1,1,111,2020-07-08T14:30:10-07:00,1.1192219257355,3,versionC_stim.csv,READVersionC.csv,"Read Version C","Dissertation, read only version C",TUCK,ALLOW,Study1,U,78,64,Test,User,-,,Recall,Recall1,688,,0,-1,-1,0,0,,1
5e176d9b3654c20746564542,4cwk1hoko5,Nick_Dissertation_EX1,1,112,2020-07-08T14:30:12-07:00,2.0058369636536,3,versionC_stim.csv,READVersionC.csv,"Read Version C","Dissertation, read only version C",BAD,DELINQUENT,Study1,B,6,61,Test,User,-,,Recall,Recall1,667,,0,-1,-1,0,0,,1
5e176d9b3654c20746564542,4cwk1hoko5,Nick_Dissertation_EX1,1,113,2020-07-08T14:30:15-07:00,2.0282402038574,3,versionC_stim.csv,READVersionC.csv,"Read Version C","Dissertation, read only version C",DROWSY,SLEEP,Study1,F,41,75,Test,User,-,,Recall,Recall1,1603,,0,-1,-1,0,0,,1
5e176d9b3654c20746564542,4cwk1hoko5,Nick_Dissertation_EX1,1,114,2020-07-08T14:30:16-07:00,1.1151897907257,3,versionC_stim.csv,READVersionC.csv,"Read Version C","Dissertation, read only version C",CHILD,BABY,Study1,S,64,69,Test,User,-,,Recall,Recall1,777,,0,-1,-1,0,0,,1
5e176d9b3654c20746564542,4cwk1hoko5,Nick_Dissertation_EX1,1,115,2020-07-08T14:30:17-07:00,1.4965040683746,3,versionC_stim.csv,READVersionC.csv,"Read Version C","Dissertation, read only version C",RACKET,BALL,Study1,F,38,28,Test,User,-,,Recall,Recall1,1181,,0,-1,-1,0,0,,1
5e176d9b3654c20746564542,4cwk1hoko5,Nick_Dissertation_EX1,1,116,2020-07-08T14:30:21-07:00,3.5084431171417,3,versionC_stim.csv,READVersionC.csv,"Read Version C","Dissertation, read only version C",STOMACH,DIGESTION,Study1,B,7,32,Test,User,-,,Recall,Recall1,3152,Sting,57.142857142857,1804,2344,0,0,,1
5e176d9b3654c20746564542,4cwk1hoko5,Nick_Dissertation_EX1,1,117,2020-07-08T14:30:22-07:00,0.99960088729858,3,versionC_stim.csv,READVersionC.csv,"Read Version C","Dissertation, read only version C",BUSINESS,DEATH,Study1,U,72,40,Test,User,-,,Recall,Recall1,687,,0,-1,-1,0,0,,1
5e176d9b3654c20746564542,4cwk1hoko5,Nick_Dissertation_EX1,1,118,2020-07-08T14:30:24-07:00,2.0776381492615,3,versionC_stim.csv,READVersionC.csv,"Read Version C","Dissertation, read only version C",COLD,BITTER,Study1,B,12,34,Test,User,-,,Recall,Recall1,1737,,0,-1,-1,0,0,,1
5e176d9b3654c20746564542,4cwk1hoko5,Nick_Dissertation_EX1,1,119,2020-07-08T14:30:25-07:00,1.2227327823639,3,versionC_stim.csv,READVersionC.csv,"Read Version C","Dissertation, read only version C",MONEY,WAGE,Study1,B,8,37,Test,User,-,,Recall,Recall1,867,,0,-1,-1,0,0,,1
5e176d9b3654c20746564542,4cwk1hoko5,Nick_Dissertation_EX1,1,120,2020-07-08T14:30:26-07:00,1.0252900123596,3,versionC_stim.csv,READVersionC.csv,"Read Version C","Dissertation, read only version C",ASSIGNMENT,DUE,Study1,S,46,9,Test,User,-,,Recall,Recall1,719,,0,-1,-1,0,0,,1
5e176d9b3654c20746564542,4cwk1hoko5,Nick_Dissertation_EX1,1,121,2020-07-08T14:30:32-07:00,5.7758212089539,3,versionC_stim.csv,READVersionC.csv,"Read Version C","Dissertation, read only version C",LATCH,KEY,Study1,F,36,86,Test,User,-,,Recall,Recall1,5410,Key,100,2164,4658,1,1,,1
5e176d9b3654c20746564542,4cwk1hoko5,Nick_Dissertation_EX1,1,122,2020-07-08T14:30:34-07:00,2.5679309368134,3,versionC_stim.csv,READVersionC.csv,"Read Version C","Dissertation, read only version C",HUNGRY,PARK,Study1,U,68,33,Test,User,-,,Recall,Recall1,1128,,0,-1,-1,0,0,,1
5e176d9b3654c20746564542,4cwk1hoko5,Nick_Dissertation_EX1,1,123,2020-07-08T14:30:36-07:00,1.8017909526825,3,versionC_stim.csv,READVersionC.csv,"Read Version C","Dissertation, read only version C",BIRD,SWAN,Study1,B,14,13,Test,User,-,,Recall,Recall1,1486,,0,-1,-1,0,0,,1
5e176d9b3654c20746564542,4cwk1hoko5,Nick_Dissertation_EX1,1,124,2020-07-08T14:30:37-07:00,0.86968994140625,3,versionC_stim.csv,READVersionC.csv,"Read Version C","Dissertation, read only version C",LION,ART,Study1,U,79,46,Test,User,-,,Recall,Recall1,557,,0,-1,-1,0,0,,1
5e176d9b3654c20746564542,4cwk1hoko5,Nick_Dissertation_EX1,1,125,2020-07-08T14:30:39-07:00,1.8269600868225,3,versionC_stim.csv,READVersionC.csv,"Read Version C","Dissertation, read only version C",FLOWER,ORCHID,Study1,B,24,83,Test,User,-,,Recall,Recall1,1508,,0,-1,-1,0,0,,1
5e176d9b3654c20746564542,4cwk1hoko5,Nick_Dissertation_EX1,1,126,2020-07-08T14:30:40-07:00,0.97283506393433,3,versionC_stim.csv,READVersionC.csv,"Read Version C","Dissertation, read only version C",STENCH,SMELL,Study1,F,42,25,Test,User,-,,Recall,Recall1,664,,0,-1,-1,0,0,,1
5e176d9b3654c20746564542,4cwk1hoko5,Nick_Dissertation_EX1,1,127,2020-07-08T14:30:41-07:00,0.84868788719177,3,versionC_stim.csv,READVersionC.csv,"Read Version C","Dissertation, read only version C",HAND,FIX,Study1,U,75,47,Test,User,-,,Recall,Recall1,530,,0,-1,-1,0,0,,1
5e176d9b3654c20746564542,4cwk1hoko5,Nick_Dissertation_EX1,1,128,2020-07-08T14:30:42-07:00,1.2848510742188,3,versionC_stim.csv,READVersionC.csv,"Read Version C","Dissertation, read only version C",CLUTTER,PUSHER,Study1,U,66,55,Test,User,-,,Recall,Recall1,962,,0,-1,-1,0,0,,1
5e176d9b3654c20746564542,4cwk1hoko5,Nick_Dissertation_EX1,1,129,2020-07-08T14:30:44-07:00,1.765753030777,3,versionC_stim.csv,READVersionC.csv,"Read Version C","Dissertation, read only version C",AMOUNT,NUMBER,Study1,S,47,20,Test,User,-,,Recall,Recall1,1449,,0,-1,-1,0,0,,1
5e176d9b3654c20746564542,4cwk1hoko5,Nick_Dissertation_EX1,1,130,2020-07-08T14:30:45-07:00,1.242045879364,3,versionC_stim.csv,READVersionC.csv,"Read Version C","Dissertation, read only version C",DIVISION,MATH,Study1,F,33,58,Test,User,-,,Recall,Recall1,912,,0,-1,-1,0,0,,1
5e176d9b3654c20746564542,4cwk1hoko5,Nick_Dissertation_EX1,1,131,2020-07-08T14:30:46-07:00,1.3563430309296,3,versionC_stim.csv,READVersionC.csv,"Read Version C","Dissertation, read only version C",CHORE,WORK,Study1,F,39,42,Test,User,-,,Recall,Recall1,1044,,0,-1,-1,0,0,,1
5e176d9b3654c20746564542,4cwk1hoko5,Nick_Dissertation_EX1,1,132,2020-07-08T14:30:49-07:00,2.4401171207428,3,versionC_stim.csv,READVersionC.csv,"Read Version C","Dissertation, read only version C",HAMMER,CHISEL,Study1,B,9,19,Test,User,-,,Recall,Recall1,2130,,0,-1,-1,0,0,,1
5e176d9b3654c20746564542,4cwk1hoko5,Nick_Dissertation_EX1,1,133,2020-07-08T14:30:51-07:00,1.8320097923279,3,versionC_stim.csv,READVersionC.csv,"Read Version C","Dissertation, read only version C",VASE,KING,Study1,U,85,73,Test,User,-,,Recall,Recall1,1511,,0,-1,-1,0,0,,1
5e176d9b3654c20746564542,4cwk1hoko5,Nick_Dissertation_EX1,1,134,2020-07-08T14:30:55-07:00,4.0374710559845,3,versionC_stim.csv,READVersionC.csv,"Read Version C","Dissertation, read only version C",NEWS,EDITOR,Study1,B,10,54,Test,User,-,,Recall,Recall1,3727,Editor,100,1602,2375,1,1,,1
5e176d9b3654c20746564542,4cwk1hoko5,Nick_Dissertation_EX1,1,135,2020-07-08T14:30:56-07:00,0.9995059967041,3,versionC_stim.csv,READVersionC.csv,"Read Version C","Dissertation, read only version C",WOULD,CASH,Study1,U,83,52,Test,User,-,,Recall,Recall1,686,,0,-1,-1,0,0,,1
5e176d9b3654c20746564542,4cwk1hoko5,Nick_Dissertation_EX1,1,136,2020-07-08T14:31:00-07:00,4.2438449859619,3,versionC_stim.csv,READVersionC.csv,"Read Version C","Dissertation, read only version C",FOOT,SHOE,Study1,S,60,63,Test,User,-,,Recall,Recall1,3938,,0,-1,-1,0,0,,1
5e176d9b3654c20746564542,4cwk1hoko5,Nick_Dissertation_EX1,1,137,2020-07-08T14:31:01-07:00,1.0003290176392,3,versionC_stim.csv,READVersionC.csv,"Read Version C","Dissertation, read only version C",SIP,DRINK,Study1,F,27,21,Test,User,-,,Recall,Recall1,653,,0,-1,-1,0,0,,1
5e176d9b3654c20746564542,4cwk1hoko5,Nick_Dissertation_EX1,1,138,2020-07-08T14:31:02-07:00,1.0049481391907,3,versionC_stim.csv,READVersionC.csv,"Read Version C","Dissertation, read only version C",SALAD,LETTUCE,Study1,S,59,74,Test,User,-,,Recall,Recall1,685,,0,-1,-1,0,0,,1
5e176d9b3654c20746564542,4cwk1hoko5,Nick_Dissertation_EX1,1,139,2020-07-08T14:31:05-07:00,3.3549559116364,3,versionC_stim.csv,READVersionC.csv,"Read Version C","Dissertation, read only version C",BEE,HONEY,Study1,S,63,57,Test,User,-,,Recall,Recall1,3033,,0,-1,-1,0,0,,1
5e176d9b3654c20746564542,4cwk1hoko5,Nick_Dissertation_EX1,1,140,2020-07-08T14:31:10-07:00,5.0451328754425,3,versionC_stim.csv,READVersionC.csv,"Read Version C","Dissertation, read only version C",LIVER,KIDNEY,Study1,S,53,29,Test,User,-,,Recall,Recall1,4734,Kidney,100,3217,3890,1,1,,1
5e176d9b3654c20746564542,4cwk1hoko5,Nick_Dissertation_EX1,1,141,2020-07-08T14:31:11-07:00,1.0929419994354,3,versionC_stim.csv,READVersionC.csv,"Read Version C","Dissertation, read only version C",ROCK,GEOLOGY,Study1,B,19,36,Test,User,-,,Recall,Recall1,775,,0,-1,-1,0,0,,1
5e176d9b3654c20746564542,4cwk1hoko5,Nick_Dissertation_EX1,1,142,2020-07-08T14:31:14-07:00,2.3443419933319,3,versionC_stim.csv,READVersionC.csv,"Read Version C","Dissertation, read only version C",SICK,HIDE,Study1,U,84,27,Test,User,-,,Recall,Recall1,2015,,0,-1,-1,0,0,,1
5e176d9b3654c20746564542,4cwk1hoko5,Nick_Dissertation_EX1,1,143,2020-07-08T14:31:17-07:00,3.3069140911102,3,versionC_stim.csv,READVersionC.csv,"Read Version C","Dissertation, read only version C",BAR,GRILL,Study1,S,52,15,Test,User,-,,Recall,Recall1,2995,,0,-1,-1,0,0,,1
5e176d9b3654c20746564542,4cwk1hoko5,Nick_Dissertation_EX1,1,144,2020-07-08T14:31:18-07:00,1.4301390647888,3,versionC_stim.csv,READVersionC.csv,"Read Version C","Dissertation, read only version C",ACCIDENT,STRONG,Study1,U,80,43,Test,User,-,,Recall,Recall1,1091,,0,-1,-1,0,0,,1
5e176d9b3654c20746564542,4cwk1hoko5,Nick_Dissertation_EX1,1,145,2020-07-08T14:31:20-07:00,1.1597189903259,3,versionC_stim.csv,READVersionC.csv,"Read Version C","Dissertation, read only version C",FLOOR,DISCOVER,Study1,U,71,59,Test,User,-,,Recall,Recall1,844,,0,-1,-1,0,0,,1
5e176d9b3654c20746564542,4cwk1hoko5,Nick_Dissertation_EX1,1,146,2020-07-08T14:31:21-07:00,1.5173840522766,3,versionC_stim.csv,READVersionC.csv,"Read Version C","Dissertation, read only version C",RIDDLE,SUGAR,Study1,U,81,85,Test,User,-,,Recall,Recall1,1209,,0,-1,-1,0,0,,1
5e176d9b3654c20746564542,4cwk1hoko5,Nick_Dissertation_EX1,1,147,2020-07-08T14:31:22-07:00,1.3371849060059,3,versionC_stim.csv,READVersionC.csv,"Read Version C","Dissertation, read only version C",FISH,TUNA,Study1,B,25,82,Test,User,-,,Recall,Recall1,1011,,0,-1,-1,0,0,,1
5e176d9b3654c20746564542,4cwk1hoko5,Nick_Dissertation_EX1,1,148,2020-07-08T14:31:23-07:00,1.0791199207306,3,versionC_stim.csv,READVersionC.csv,"Read Version C","Dissertation, read only version C",FANTASTIC,GREAT,Study1,F,35,22,Test,User,-,,Recall,Recall1,763,,0,-1,-1,0,0,,1
5e176d9b3654c20746564542,4cwk1hoko5,Nick_Dissertation_EX1,1,149,2020-07-08T14:31:25-07:00,1.0902810096741,3,versionC_stim.csv,READVersionC.csv,"Read Version C","Dissertation, read only version C",END,BEGIN,Study1,S,54,12,Test,User,-,,Recall,Recall1,763,,0,-1,-1,0,0,,1
5e176d9b3654c20746564542,4cwk1hoko5,Nick_Dissertation_EX1,1,150,2020-07-08T14:31:26-07:00,0.96783018112183,3,versionC_stim.csv,READVersionC.csv,"Read Version C","Dissertation, read only version C",JURY,TRIAL,Study1,S,50,67,Test,User,-,,Recall,Recall1,650,,0,-1,-1,0,0,,1
5e176d9b3654c20746564542,4cwk1hoko5,Nick_Dissertation_EX1,1,151,2020-07-08T14:31:27-07:00,1.7181079387665,3,versionC_stim.csv,READVersionC.csv,"Read Version C","Dissertation, read only version C",SIGHT,DEBATE,Study1,U,73,79,Test,User,-,,Recall,Recall1,1396,,0,-1,-1,0,0,,1
5e176d9b3654c20746564542,4cwk1hoko5,Nick_Dissertation_EX1,1,152,2020-07-08T14:31:28-07:00,1.0147769451141,3,versionC_stim.csv,READVersionC.csv,"Read Version C","Dissertation, read only version C",GROWTH,HEIGHT,Study1,F,30,62,Test,User,-,,Recall,Recall1,686,,0,-1,-1,0,0,,1
5e176d9b3654c20746564542,4cwk1hoko5,Nick_Dissertation_EX1,1,153,2020-07-08T14:31:29-07:00,1.1105360984802,3,versionC_stim.csv,READVersionC.csv,"Read Version C","Dissertation, read only version C",ATTORNEY,LAW,Study1,F,34,80,Test,User,-,,Recall,Recall1,788,,0,-1,-1,0,0,,1
5e176d9b3654c20746564542,4cwk1hoko5,Nick_Dissertation_EX1,1,154,2020-07-08T14:31:30-07:00,0.98183989524841,3,versionC_stim.csv,READVersionC.csv,"Read Version C","Dissertation, read only version C",CHILI,HOT,Study1,F,37,44,Test,User,-,,Recall,Recall1,653,,0,-1,-1,0,0,,1
5e176d9b3654c20746564542,4cwk1hoko5,Nick_Dissertation_EX1,1,155,2020-07-08T14:31:32-07:00,1.5201649665833,3,versionC_stim.csv,READVersionC.csv,"Read Version C","Dissertation, read only version C",SITE,LOCATION,Study1,S,48,7,Test,User,-,,Recall,Recall1,1205,,0,-1,-1,0,0,,1
5e176d9b3654c20746564542,4cwk1hoko5,Nick_Dissertation_EX1,1,156,2020-07-08T14:31:33-07:00,1.1204390525818,3,versionC_stim.csv,READVersionC.csv,"Read Version C","Dissertation, read only version C",FUTURE,PAST,Study1,S,61,39,Test,User,-,,Recall,Recall1,800,,0,-1,-1,0,0,,1
5e176d9b3654c20746564542,4cwk1hoko5,Nick_Dissertation_EX1,1,157,2020-07-08T14:31:34-07:00,0.95350003242493,3,versionC_stim.csv,READVersionC.csv,"Read Version C","Dissertation, read only version C",SODA,POP,Study1,S,56,84,Test,User,-,,Recall,Recall1,619,,0,-1,-1,0,0,,1
5e176d9b3654c20746564542,4cwk1hoko5,Nick_Dissertation_EX1,1,158,2020-07-08T14:31:35-07:00,1.1950249671936,3,versionC_stim.csv,READVersionC.csv,"Read Version C","Dissertation, read only version C",WOMAN,LIFT,Study1,U,69,16,Test,User,-,,Recall,Recall1,875,,0,-1,-1,0,0,,1
5e176d9b3654c20746564542,4cwk1hoko5,Nick_Dissertation_EX1,1,159,2020-07-08T14:31:36-07:00,0.86965394020081,3,versionC_stim.csv,READVersionC.csv,"Read Version C","Dissertation, read only version C",WAR,REVOLUTION,Study1,B,20,24,Test,User,-,,Recall,Recall1,534,,0,-1,-1,0,0,,1
5e176d9b3654c20746564542,4cwk1hoko5,Nick_Dissertation_EX1,1,160,2020-07-08T14:31:37-07:00,0.8235490322113,3,versionC_stim.csv,READVersionC.csv,"Read Version C","Dissertation, read only version C",TALK,DISCUSSION,Study1,B,21,11,Test,User,-,,Recall,Recall1,505,,0,-1,-1,0,0,,1
5e176d9b3654c20746564542,4cwk1hoko5,Nick_Dissertation_EX1,1,161,2020-07-08T14:31:38-07:00,0.79839611053467,3,versionC_stim.csv,READVersionC.csv,"Read Version C","Dissertation, read only version C",SACKING,DIETARY,Study1,U,67,48,Test,User,-,,Recall,Recall1,490,,0,-1,-1,0,0,,1
5e176d9b3654c20746564542,4cwk1hoko5,Nick_Dissertation_EX1,1,162,2020-07-08T14:31:38-07:00,0.79627585411072,3,versionC_stim.csv,READVersionC.csv,"Read Version C","Dissertation, read only version C",WASP,BUG,Study1,F,32,38,Test,User,-,,Recall,Recall1,475,,0,-1,-1,0,0,,1
5e176d9b3654c20746564542,4cwk1hoko5,Nick_Dissertation_EX1,1,163,2020-07-08T14:31:40-07:00,1.9835109710693,3,versionC_stim.csv,READVersionC.csv,"Read Version C","Dissertation, read only version C",PLANT,ROOT,Study1,B,13,60,Test,User,-,,Recall,Recall1,1659,,0,-1,-1,0,0,,1
5e176d9b3654c20746564542,4cwk1hoko5,Nick_Dissertation_EX1,1,164,2020-07-08T14:31:44-07:00,3.3675332069397,3,versionC_stim.csv,READVersionC.csv,"Read Version C","Dissertation, read only version C",CAR,HAPPY,Study1,U,77,10,Test,User,-,,Recall,Recall1,2925,,0,-1,-1,0,0,,1
5e176d9b3654c20746564542,4cwk1hoko5,Nick_Dissertation_EX1,1,165,2020-07-08T14:31:45-07:00,1.0884449481964,3,versionC_stim.csv,READVersionC.csv,"Read Version C","Dissertation, read only version C",ENOUGH,FULL,Study1,F,26,18,Test,User,-,,Recall,Recall1,765,,0,-1,-1,0,0,,1
5e176d9b3654c20746564542,4cwk1hoko5,Nick_Dissertation_EX1,1,166,2020-07-08T14:31:47-07:00,1.8150880336761,3,versionC_stim.csv,READVersionC.csv,"Read Version C","Dissertation, read only version C",COW,HERD,Study1,B,22,66,Test,User,-,,Recall,Recall1,1490,,0,-1,-1,0,0,,1
5e176d9b3654c20746564542,4cwk1hoko5,Nick_Dissertation_EX1,1,167,2020-07-08T14:31:48-07:00,1.2031939029694,3,versionC_stim.csv,READVersionC.csv,"Read Version C","Dissertation, read only version C",DOG,PAW,Study1,B,15,56,Test,User,-,,Recall,Recall1,882,,0,-1,-1,0,0,,1
5e176d9b3654c20746564542,4cwk1hoko5,Nick_Dissertation_EX1,1,168,2020-07-08T14:31:49-07:00,1.2071349620819,3,versionC_stim.csv,READVersionC.csv,"Read Version C","Dissertation, read only version C",TOILET,BATHROOM,Study1,S,58,70,Test,User,-,,Recall,Recall1,887,,0,-1,-1,0,0,,1
5e176d9b3654c20746564542,4cwk1hoko5,Nick_Dissertation_EX1,1,169,2020-07-08T14:31:50-07:00,0.98293900489807,3,versionC_stim.csv,READVersionC.csv,"Read Version C","Dissertation, read only version C",CAVE,DARK,Study1,F,28,14,Test,User,-,,Recall,Recall1,668,,0,-1,-1,0,0,,1
5e176d9b3654c20746564542,4cwk1hoko5,Nick_Dissertation_EX1,1,170,2020-07-08T14:31:51-07:00,0.99021196365356,3,versionC_stim.csv,READVersionC.csv,"Read Version C","Dissertation, read only version C",OUT,WAY,Study1,B,16,65,Test,User,-,,Recall,Recall1,671,,0,-1,-1,0,0,,1
5e176d9b3654c20746564542,4cwk1hoko5,Nick_Dissertation_EX1,1,171,2020-07-08T14:31:52-07:00,1.2428841590881,3,versionC_stim.csv,READVersionC.csv,"Read Version C","Dissertation, read only version C",WIND,BLOW,Study1,S,55,30,Test,User,-,,Recall,Recall1,926,,0,-1,-1,0,0,,1
5e176d9b3654c20746564542,4cwk1hoko5,Nick_Dissertation_EX1,1,172,2020-07-08T14:31:53-07:00,0.9052038192749,3,versionC_stim.csv,READVersionC.csv,"Read Version C","Dissertation, read only version C",WATER,BRIDGE,Study1,B,18,77,Test,User,-,,Recall,Recall1,584,,0,-1,-1,0,0,,1
5e176d9b3654c20746564542,4cwk1hoko5,Nick_Dissertation_EX1,1,173,2020-07-08T14:31:54-07:00,1.015899181366,3,versionC_stim.csv,READVersionC.csv,"Read Version C","Dissertation, read only version C",CHEESE,WINE,Study1,S,57,26,Test,User,-,,Recall,Recall1,699,,0,-1,-1,0,0,,1
5e176d9b3654c20746564542,4cwk1hoko5,Nick_Dissertation_EX1,1,174,2020-07-08T14:31:55-07:00,1.0737888813019,3,versionC_stim.csv,READVersionC.csv,"Read Version C","Dissertation, read only version C",WORD,SENTENCE,Study1,F,31,71,Test,User,-,,Recall,Recall1,750,,0,-1,-1,0,0,,1
5e176d9b3654c20746564542,4cwk1hoko5,Nick_Dissertation_EX1,1,175,2020-07-08T14:32:06-07:00,11.011354923248,3,versionC_stim.csv,READVersionC.csv,"Read Version C","Dissertation, read only version C",,,,,,0,Instruct,-,10,"You will now be presented with a new set of word pairs. Please study each pair. Remember that your memory will be tested! When finished, press Enter to move to the next pair.",Initial_Instruct,Instruct4,10658,,,-1,-1,,,,1
5e176d9b3654c20746564542,4cwk1hoko5,Nick_Dissertation_EX1,1,176,2020-07-08T14:32:10-07:00,3.3153240680695,3,versionC_stim.csv,READVersionC.csv,"Read Version C","Dissertation, read only version C",STRING,NOODLE,BUFFER3,Buffer,92,93,Study,User,-,,Study/JOL,BUFFER3,2957,,,-1,-1,,,,1
5e176d9b3654c20746564542,4cwk1hoko5,Nick_Dissertation_EX1,1,177,2020-07-08T14:32:12-07:00,2.0392179489136,3,versionC_stim.csv,READVersionC.csv,"Read Version C","Dissertation, read only version C",ADVENTURE,CAMP,BUFFER3,Buffer,95,96,Study,User,-,,Study/JOL,BUFFER3,1712,,,-1,-1,,,,1
5e176d9b3654c20746564542,4cwk1hoko5,Nick_Dissertation_EX1,1,178,2020-07-08T14:32:13-07:00,1.4794981479645,3,versionC_stim.csv,READVersionC.csv,"Read Version C","Dissertation, read only version C",POTATO,CARROT,BUFFER3,Buffer,91,95,Study,User,-,,Study/JOL,BUFFER3,1144,,,-1,-1,,,,1
5e176d9b3654c20746564542,4cwk1hoko5,Nick_Dissertation_EX1,1,179,2020-07-08T14:32:14-07:00,1.1407959461212,3,versionC_stim.csv,READVersionC.csv,"Read Version C","Dissertation, read only version C",FROZEN,ICE,BUFFER3,Buffer,94,94,Study,User,-,,Study/JOL,BUFFER3,837,,,-1,-1,,,,1
5e176d9b3654c20746564542,4cwk1hoko5,Nick_Dissertation_EX1,1,180,2020-07-08T14:32:15-07:00,0.97059106826782,3,versionC_stim.csv,READVersionC.csv,"Read Version C","Dissertation, read only version C",FISH,SHRIMP,BUFFER3,Buffer,93,92,Study,User,-,,Study/JOL,BUFFER3,632,,,-1,-1,,,,1
5e176d9b3654c20746564542,4cwk1hoko5,Nick_Dissertation_EX1,1,181,2020-07-08T14:32:16-07:00,1.2016069889069,3,versionC_stim.csv,READVersionC.csv,"Read Version C","Dissertation, read only version C",SCISSORS,SHEARS,Study2,B,112,169,Study,User,-,,Study/JOL,"Study Phase2",886,,,-1,-1,,,,1
5e176d9b3654c20746564542,4cwk1hoko5,Nick_Dissertation_EX1,1,182,2020-07-08T14:32:18-07:00,1.5934820175171,3,versionC_stim.csv,READVersionC.csv,"Read Version C","Dissertation, read only version C",WINDSHIELD,CAR,Study2,F,117,133,Study,User,-,,Study/JOL,"Study Phase2",1270,,,-1,-1,,,,1
5e176d9b3654c20746564542,4cwk1hoko5,Nick_Dissertation_EX1,1,183,2020-07-08T14:32:20-07:00,1.6990180015564,3,versionC_stim.csv,READVersionC.csv,"Read Version C","Dissertation, read only version C",CLOTH,STRETCH,Study2,U,157,114,Study,User,-,,Study/JOL,"Study Phase2",1381,,,-1,-1,,,,1
5e176d9b3654c20746564542,4cwk1hoko5,Nick_Dissertation_EX1,1,184,2020-07-08T14:32:21-07:00,1.5767679214478,3,versionC_stim.csv,READVersionC.csv,"Read Version C","Dissertation, read only version C",PENGUIN,BIRD,Study2,F,119,106,Study,User,-,,Study/JOL,"Study Phase2",1258,,,-1,-1,,,,1
5e176d9b3654c20746564542,4cwk1hoko5,Nick_Dissertation_EX1,1,185,2020-07-08T14:32:24-07:00,2.9265580177307,3,versionC_stim.csv,READVersionC.csv,"Read Version C","Dissertation, read only version C",LEAGUE,BASEBALL,Study2,F,131,174,Study,User,-,,Study/JOL,"Study Phase2",1610,,,-1,-1,,,,1
5e176d9b3654c20746564542,4cwk1hoko5,Nick_Dissertation_EX1,1,186,2020-07-08T14:32:27-07:00,2.4162650108337,3,versionC_stim.csv,READVersionC.csv,"Read Version C","Dissertation, read only version C",MYSTERY,DETECTIVE,Study2,B,100,108,Study,User,-,,Study/JOL,"Study Phase2",2097,,,-1,-1,,,,1
5e176d9b3654c20746564542,4cwk1hoko5,Nick_Dissertation_EX1,1,187,2020-07-08T14:32:28-07:00,1.2083640098572,3,versionC_stim.csv,READVersionC.csv,"Read Version C","Dissertation, read only version C",GROUND,EARTH,Study2,S,144,156,Study,User,-,,Study/JOL,"Study Phase2",898,,,-1,-1,,,,1
5e176d9b3654c20746564542,4cwk1hoko5,Nick_Dissertation_EX1,1,188,2020-07-08T14:32:29-07:00,0.90879702568054,3,versionC_stim.csv,READVersionC.csv,"Read Version C","Dissertation, read only version C",CARBON,ELEMENT,Study2,S,141,164,Study,User,-,,Study/JOL,"Study Phase2",587,,,-1,-1,,,,1
5e176d9b3654c20746564542,4cwk1hoko5,Nick_Dissertation_EX1,1,189,2020-07-08T14:32:30-07:00,1.0163178443909,3,versionC_stim.csv,READVersionC.csv,"Read Version C","Dissertation, read only version C",AIRCRAFT,PLANE,Study2,F,129,146,Study,User,-,,Study/JOL,"Study Phase2",680,,,-1,-1,,,,1
5e176d9b3654c20746564542,4cwk1hoko5,Nick_Dissertation_EX1,1,190,2020-07-08T14:32:31-07:00,1.4020810127258,3,versionC_stim.csv,READVersionC.csv,"Read Version C","Dissertation, read only version C",CLEAR,MOAT,Study2,U,169,101,Study,User,-,,Study/JOL,"Study Phase2",1082,,,-1,-1,,,,1
5e176d9b3654c20746564542,4cwk1hoko5,Nick_Dissertation_EX1,1,191,2020-07-08T14:32:33-07:00,1.2646920681,3,versionC_stim.csv,READVersionC.csv,"Read Version C","Dissertation, read only version C",TOIL,LEASE,Study2,U,170,120,Study,User,-,,Study/JOL,"Study Phase2",939,,,-1,-1,,,,1
5e176d9b3654c20746564542,4cwk1hoko5,Nick_Dissertation_EX1,1,192,2020-07-08T14:32:34-07:00,1.0294620990753,3,versionC_stim.csv,READVersionC.csv,"Read Version C","Dissertation, read only version C",TIE,SHOELACE,Study2,B,99,157,Study,User,-,,Study/JOL,"Study Phase2",711,,,-1,-1,,,,1
5e176d9b3654c20746564542,4cwk1hoko5,Nick_Dissertation_EX1,1,193,2020-07-08T14:32:34-07:00,0.82611799240112,3,versionC_stim.csv,READVersionC.csv,"Read Version C","Dissertation, read only version C",TAN,SUN,Study2,S,155,161,Study,User,-,,Study/JOL,"Study Phase2",512,,,-1,-1,,,,1
5e176d9b3654c20746564542,4cwk1hoko5,Nick_Dissertation_EX1,1,194,2020-07-08T14:32:35-07:00,0.96536183357239,3,versionC_stim.csv,READVersionC.csv,"Read Version C","Dissertation, read only version C",RED,CHERRY,Study2,B,104,162,Study,User,-,,Study/JOL,"Study Phase2",648,,,-1,-1,,,,1
5e176d9b3654c20746564542,4cwk1hoko5,Nick_Dissertation_EX1,1,195,2020-07-08T14:32:36-07:00,0.87056303024292,3,versionC_stim.csv,READVersionC.csv,"Read Version C","Dissertation, read only version C",NAP,SLEEP,Study2,F,134,138,Study,User,-,,Study/JOL,"Study Phase2",534,,,-1,-1,,,,1
5e176d9b3654c20746564542,4cwk1hoko5,Nick_Dissertation_EX1,1,196,2020-07-08T14:32:37-07:00,0.7500171661377,3,versionC_stim.csv,READVersionC.csv,"Read Version C","Dissertation, read only version C",PAPER,DOCUMENT,Study2,B,109,154,Study,User,-,,Study/JOL,"Study Phase2",436,,,-1,-1,,,,1
5e176d9b3654c20746564542,4cwk1hoko5,Nick_Dissertation_EX1,1,197,2020-07-08T14:32:38-07:00,1.3206849098206,3,versionC_stim.csv,READVersionC.csv,"Read Version C","Dissertation, read only version C",SHAVE,RAZOR,Study2,S,136,136,Study,User,-,,Study/JOL,"Study Phase2",995,,,-1,-1,,,,1
5e176d9b3654c20746564542,4cwk1hoko5,Nick_Dissertation_EX1,1,198,2020-07-08T14:32:39-07:00,0.8354868888855,3,versionC_stim.csv,READVersionC.csv,"Read Version C","Dissertation, read only version C",TRASH,LITTER,Study2,B,103,104,Study,User,-,,Study/JOL,"Study Phase2",473,,,-1,-1,,,,1
5e176d9b3654c20746564542,4cwk1hoko5,Nick_Dissertation_EX1,1,199,2020-07-08T14:32:40-07:00,0.85011601448059,3,versionC_stim.csv,READVersionC.csv,"Read Version C","Dissertation, read only version C",END,ADJOURN,Study2,B,101,127,Study,User,-,,Study/JOL,"Study Phase2",517,,,-1,-1,,,,1
5e176d9b3654c20746564542,4cwk1hoko5,Nick_Dissertation_EX1,1,200,2020-07-08T14:32:42-07:00,2.1873261928558,3,versionC_stim.csv,READVersionC.csv,"Read Version C","Dissertation, read only version C",CHILDREN,MIRROR,Study2,U,174,137,Study,User,-,,Study/JOL,"Study Phase2",1864,,,-1,-1,,,,1
5e176d9b3654c20746564542,4cwk1hoko5,Nick_Dissertation_EX1,1,201,2020-07-08T14:32:43-07:00,1.0733637809753,3,versionC_stim.csv,READVersionC.csv,"Read Version C","Dissertation, read only version C",CHARM,VEHICLE,Study2,U,160,124,Study,User,-,,Study/JOL,"Study Phase2",738,,,-1,-1,,,,1
5e176d9b3654c20746564542,4cwk1hoko5,Nick_Dissertation_EX1,1,202,2020-07-08T14:32:44-07:00,0.91730308532715,3,versionC_stim.csv,READVersionC.csv,"Read Version C","Dissertation, read only version C",OUNCE,BOTH,Study2,U,172,125,Study,User,-,,Study/JOL,"Study Phase2",597,,,-1,-1,,,,1
5e176d9b3654c20746564542,4cwk1hoko5,Nick_Dissertation_EX1,1,203,2020-07-08T14:32:45-07:00,1.0002601146698,3,versionC_stim.csv,READVersionC.csv,"Read Version C","Dissertation, read only version C",SEATBELT,SAFETY,Study2,S,147,112,Study,User,-,,Study/JOL,"Study Phase2",667,,,-1,-1,,,,1
5e176d9b3654c20746564542,4cwk1hoko5,Nick_Dissertation_EX1,1,204,2020-07-08T14:32:46-07:00,0.99644899368286,3,versionC_stim.csv,READVersionC.csv,"Read Version C","Dissertation, read only version C",GAME,CLUE,Study2,B,97,166,Study,User,-,,Study/JOL,"Study Phase2",671,,,-1,-1,,,,1
5e176d9b3654c20746564542,4cwk1hoko5,Nick_Dissertation_EX1,1,205,2020-07-08T14:32:47-07:00,0.93927884101868,3,versionC_stim.csv,READVersionC.csv,"Read Version C","Dissertation, read only version C",COLD,CHILL,Study2,B,114,113,Study,User,-,,Study/JOL,"Study Phase2",619,,,-1,-1,,,,1
5e176d9b3654c20746564542,4cwk1hoko5,Nick_Dissertation_EX1,1,206,2020-07-08T14:32:48-07:00,1.0122170448303,3,versionC_stim.csv,READVersionC.csv,"Read Version C","Dissertation, read only version C",LONELY,ALONE,Study2,S,145,139,Study,User,-,,Study/JOL,"Study Phase2",603,,,-1,-1,,,,1
5e176d9b3654c20746564542,4cwk1hoko5,Nick_Dissertation_EX1,1,207,2020-07-08T14:32:49-07:00,1.1537809371948,3,versionC_stim.csv,READVersionC.csv,"Read Version C","Dissertation, read only version C",LIE,TRUTH,Study2,S,148,132,Study,User,-,,Study/JOL,"Study Phase2",764,,,-1,-1,,,,1
5e176d9b3654c20746564542,4cwk1hoko5,Nick_Dissertation_EX1,1,208,2020-07-08T14:32:50-07:00,1.0400021076202,3,versionC_stim.csv,READVersionC.csv,"Read Version C","Dissertation, read only version C",BRACELET,WRIST,Study2,S,140,105,Study,User,-,,Study/JOL,"Study Phase2",718,,,-1,-1,,,,1
5e176d9b3654c20746564542,4cwk1hoko5,Nick_Dissertation_EX1,1,209,2020-07-08T14:32:51-07:00,0.86978197097778,3,versionC_stim.csv,READVersionC.csv,"Read Version C","Dissertation, read only version C",SMELL,INCENSE,Study2,B,110,145,Study,User,-,,Study/JOL,"Study Phase2",535,,,-1,-1,,,,1
5e176d9b3654c20746564542,4cwk1hoko5,Nick_Dissertation_EX1,1,210,2020-07-08T14:32:52-07:00,0.87720394134521,3,versionC_stim.csv,READVersionC.csv,"Read Version C","Dissertation, read only version C",SIGN,LOAN,Study2,U,171,100,Study,User,-,,Study/JOL,"Study Phase2",544,,,-1,-1,,,,1
5e176d9b3654c20746564542,4cwk1hoko5,Nick_Dissertation_EX1,1,211,2020-07-08T14:32:54-07:00,1.5058619976044,3,versionC_stim.csv,READVersionC.csv,"Read Version C","Dissertation, read only version C",WET,DRY,Study2,S,146,110,Study,User,-,,Study/JOL,"Study Phase2",1180,,,-1,-1,,,,1
5e176d9b3654c20746564542,4cwk1hoko5,Nick_Dissertation_EX1,1,212,2020-07-08T14:32:55-07:00,1.1362249851227,3,versionC_stim.csv,READVersionC.csv,"Read Version C","Dissertation, read only version C",CLOTHES,CAKE,Study2,U,166,111,Study,User,-,,Study/JOL,"Study Phase2",800,,,-1,-1,,,,1
5e176d9b3654c20746564542,4cwk1hoko5,Nick_Dissertation_EX1,1,213,2020-07-08T14:32:56-07:00,1.2803480625153,3,versionC_stim.csv,READVersionC.csv,"Read Version C","Dissertation, read only version C",MAROON,JUSTICE,Study2,U,156,172,Study,User,-,,Study/JOL,"Study Phase2",954,,,-1,-1,,,,1
5e176d9b3654c20746564542,4cwk1hoko5,Nick_Dissertation_EX1,1,214,2020-07-08T14:32:57-07:00,0.92135691642761,3,versionC_stim.csv,READVersionC.csv,"Read Version C","Dissertation, read only version C",LOVE,AFFECTION,Study2,B,115,155,Study,User,-,,Study/JOL,"Study Phase2",611,,,-1,-1,,,,1
5e176d9b3654c20746564542,4cwk1hoko5,Nick_Dissertation_EX1,1,215,2020-07-08T14:32:58-07:00,1.3325819969177,3,versionC_stim.csv,READVersionC.csv,"Read Version C","Dissertation, read only version C",STEAK,GIVE,Study2,U,158,126,Study,User,-,,Study/JOL,"Study Phase2",1016,,,-1,-1,,,,1
5e176d9b3654c20746564542,4cwk1hoko5,Nick_Dissertation_EX1,1,216,2020-07-08T14:32:59-07:00,1.1589062213898,3,versionC_stim.csv,READVersionC.csv,"Read Version C","Dissertation, read only version C",Morning,TEMPERATURE,Study2,U,173,99,Study,User,-,,Study/JOL,"Study Phase2",804,,,-1,-1,,,,1
5e176d9b3654c20746564542,4cwk1hoko5,Nick_Dissertation_EX1,1,217,2020-07-08T14:33:00-07:00,0.97537779808044,3,versionC_stim.csv,READVersionC.csv,"Read Version C","Dissertation, read only version C",SCAR,MAIN,Study2,U,175,159,Study,User,-,,Study/JOL,"Study Phase2",628,,,-1,-1,,,,1
5e176d9b3654c20746564542,4cwk1hoko5,Nick_Dissertation_EX1,1,218,2020-07-08T14:33:01-07:00,0.77436518669128,3,versionC_stim.csv,READVersionC.csv,"Read Version C","Dissertation, read only version C",BRAWL,FIGHT,Study2,F,135,160,Study,User,-,,Study/JOL,"Study Phase2",462,,,-1,-1,,,,1
5e176d9b3654c20746564542,4cwk1hoko5,Nick_Dissertation_EX1,1,219,2020-07-08T14:33:02-07:00,0.79700779914856,3,versionC_stim.csv,READVersionC.csv,"Read Version C","Dissertation, read only version C",PLANT,CACTUS,Study2,B,98,152,Study,User,-,,Study/JOL,"Study Phase2",457,,,-1,-1,,,,1
5e176d9b3654c20746564542,4cwk1hoko5,Nick_Dissertation_EX1,1,220,2020-07-08T14:33:04-07:00,1.7931051254272,3,versionC_stim.csv,READVersionC.csv,"Read Version C","Dissertation, read only version C",WAX,CANDLE,Study2,S,139,144,Study,User,-,,Study/JOL,"Study Phase2",1452,,,-1,-1,,,,1
5e176d9b3654c20746564542,4cwk1hoko5,Nick_Dissertation_EX1,1,221,2020-07-08T14:33:05-07:00,1.013622045517,3,versionC_stim.csv,READVersionC.csv,"Read Version C","Dissertation, read only version C",REEL,ROD,Study2,S,150,97,Study,User,-,,Study/JOL,"Study Phase2",675,,,-1,-1,,,,1
5e176d9b3654c20746564542,4cwk1hoko5,Nick_Dissertation_EX1,1,222,2020-07-08T14:33:07-07:00,1.9879188537598,3,versionC_stim.csv,READVersionC.csv,"Read Version C","Dissertation, read only version C",REVENGE,EVEN,Study2,F,122,140,Study,User,-,,Study/JOL,"Study Phase2",1639,,,-1,-1,,,,1
5e176d9b3654c20746564542,4cwk1hoko5,Nick_Dissertation_EX1,1,223,2020-07-08T14:33:08-07:00,0.87753319740295,3,versionC_stim.csv,READVersionC.csv,"Read Version C","Dissertation, read only version C",HATE,NAME,Study2,U,167,103,Study,User,-,,Study/JOL,"Study Phase2",540,,,-1,-1,,,,1
5e176d9b3654c20746564542,4cwk1hoko5,Nick_Dissertation_EX1,1,224,2020-07-08T14:33:08-07:00,0.87404084205627,3,versionC_stim.csv,READVersionC.csv,"Read Version C","Dissertation, read only version C",TICK,FLEA,Study2,S,151,128,Study,User,-,,Study/JOL,"Study Phase2",555,,,-1,-1,,,,1
5e176d9b3654c20746564542,4cwk1hoko5,Nick_Dissertation_EX1,1,225,2020-07-08T14:33:09-07:00,0.81916499137878,3,versionC_stim.csv,READVersionC.csv,"Read Version C","Dissertation, read only version C",HAVE,OWN,Study2,S,153,109,Study,User,-,,Study/JOL,"Study Phase2",502,,,-1,-1,,,,1
5e176d9b3654c20746564542,4cwk1hoko5,Nick_Dissertation_EX1,1,226,2020-07-08T14:33:10-07:00,0.80830907821655,3,versionC_stim.csv,READVersionC.csv,"Read Version C","Dissertation, read only version C",AWAY,GONE,Study2,S,142,148,Study,User,-,,Study/JOL,"Study Phase2",488,,,-1,-1,,,,1
5e176d9b3654c20746564542,4cwk1hoko5,Nick_Dissertation_EX1,1,227,2020-07-08T14:33:11-07:00,0.87052798271179,3,versionC_stim.csv,READVersionC.csv,"Read Version C","Dissertation, read only version C",BANKER,MONEY,Study2,F,132,175,Study,User,-,,Study/JOL,"Study Phase2",468,,,-1,-1,,,,1
5e176d9b3654c20746564542,4cwk1hoko5,Nick_Dissertation_EX1,1,228,2020-07-08T14:33:12-07:00,0.89407801628113,3,versionC_stim.csv,READVersionC.csv,"Read Version C","Dissertation, read only version C",SARDINE,FISH,Study2,F,130,171,Study,User,-,,Study/JOL,"Study Phase2",365,,,-1,-1,,,,1
5e176d9b3654c20746564542,4cwk1hoko5,Nick_Dissertation_EX1,1,229,2020-07-08T14:33:14-07:00,1.8017899990082,3,versionC_stim.csv,READVersionC.csv,"Read Version C","Dissertation, read only version C",EAT,DINE,Study2,B,111,98,Study,User,-,,Study/JOL,"Study Phase2",455,,,-1,-1,,,,1
5e176d9b3654c20746564542,4cwk1hoko5,Nick_Dissertation_EX1,1,230,2020-07-08T14:33:16-07:00,2.4922580718994,3,versionC_stim.csv,READVersionC.csv,"Read Version C","Dissertation, read only version C",HEAD,SCALP,Study2,B,105,167,Study,User,-,,Study/JOL,"Study Phase2",2081,,,-1,-1,,,,1
5e176d9b3654c20746564542,4cwk1hoko5,Nick_Dissertation_EX1,1,231,2020-07-08T14:33:17-07:00,0.83586192131042,3,versionC_stim.csv,READVersionC.csv,"Read Version C","Dissertation, read only version C",PANTHER,CAT,Study2,F,126,115,Study,User,-,,Study/JOL,"Study Phase2",507,,,-1,-1,,,,1
5e176d9b3654c20746564542,4cwk1hoko5,Nick_Dissertation_EX1,1,232,2020-07-08T14:33:18-07:00,0.7277889251709,3,versionC_stim.csv,READVersionC.csv,"Read Version C","Dissertation, read only version C",BALLOON,POP,Study2,F,123,121,Study,User,-,,Study/JOL,"Study Phase2",403,,,-1,-1,,,,1
5e176d9b3654c20746564542,4cwk1hoko5,Nick_Dissertation_EX1,1,233,2020-07-08T14:33:18-07:00,0.70599102973938,3,versionC_stim.csv,READVersionC.csv,"Read Version C","Dissertation, read only version C",ACTRESS,STAR,Study2,F,120,117,Study,User,-,,Study/JOL,"Study Phase2",391,,,-1,-1,,,,1
5e176d9b3654c20746564542,4cwk1hoko5,Nick_Dissertation_EX1,1,234,2020-07-08T14:33:19-07:00,0.68119502067566,3,versionC_stim.csv,READVersionC.csv,"Read Version C","Dissertation, read only version C",LONG,EXTENSION,Study2,B,96,119,Study,User,-,,Study/JOL,"Study Phase2",363,,,-1,-1,,,,1
5e176d9b3654c20746564542,4cwk1hoko5,Nick_Dissertation_EX1,1,235,2020-07-08T14:33:20-07:00,0.753084897995,3,versionC_stim.csv,READVersionC.csv,"Read Version C","Dissertation, read only version C",CUT,CHOP,Study2,B,107,170,Study,User,-,,Study/JOL,"Study Phase2",417,,,-1,-1,,,,1
5e176d9b3654c20746564542,4cwk1hoko5,Nick_Dissertation_EX1,1,236,2020-07-08T14:33:21-07:00,0.79706501960754,3,versionC_stim.csv,READVersionC.csv,"Read Version C","Dissertation, read only version C",NOISE,LOUD,Study2,S,152,116,Study,User,-,,Study/JOL,"Study Phase2",461,,,-1,-1,,,,1
5e176d9b3654c20746564542,4cwk1hoko5,Nick_Dissertation_EX1,1,237,2020-07-08T14:33:21-07:00,0.80498218536377,3,versionC_stim.csv,READVersionC.csv,"Read Version C","Dissertation, read only version C",CAR,DRIVER,Study2,B,106,107,Study,User,-,,Study/JOL,"Study Phase2",485,,,-1,-1,,,,1
5e176d9b3654c20746564542,4cwk1hoko5,Nick_Dissertation_EX1,1,238,2020-07-08T14:33:23-07:00,1.1389248371124,3,versionC_stim.csv,READVersionC.csv,"Read Version C","Dissertation, read only version C",COMMUNICATION,PHONE,Study2,S,149,153,Study,User,-,,Study/JOL,"Study Phase2",771,,,-1,-1,,,,1
5e176d9b3654c20746564542,4cwk1hoko5,Nick_Dissertation_EX1,1,239,2020-07-08T14:33:23-07:00,0.8383800983429,3,versionC_stim.csv,READVersionC.csv,"Read Version C","Dissertation, read only version C",JOKE,KEYS,Study2,U,165,149,Study,User,-,,Study/JOL,"Study Phase2",507,,,-1,-1,,,,1
5e176d9b3654c20746564542,4cwk1hoko5,Nick_Dissertation_EX1,1,240,2020-07-08T14:33:24-07:00,0.7980420589447,3,versionC_stim.csv,READVersionC.csv,"Read Version C","Dissertation, read only version C",DOG,FURRY,Study2,B,102,163,Study,User,-,,Study/JOL,"Study Phase2",461,,,-1,-1,,,,1
5e176d9b3654c20746564542,4cwk1hoko5,Nick_Dissertation_EX1,1,241,2020-07-08T14:33:25-07:00,0.78333902359009,3,versionC_stim.csv,READVersionC.csv,"Read Version C","Dissertation, read only version C",TRUTHFUL,HONEST,Study2,F,133,165,Study,User,-,,Study/JOL,"Study Phase2",467,,,-1,-1,,,,1
5e176d9b3654c20746564542,4cwk1hoko5,Nick_Dissertation_EX1,1,242,2020-07-08T14:33:26-07:00,0.83087396621704,3,versionC_stim.csv,READVersionC.csv,"Read Version C","Dissertation, read only version C",VILLAIN,BAD,Study2,F,118,147,Study,User,-,,Study/JOL,"Study Phase2",491,,,-1,-1,,,,1
5e176d9b3654c20746564542,4cwk1hoko5,Nick_Dissertation_EX1,1,243,2020-07-08T14:33:27-07:00,0.84811902046204,3,versionC_stim.csv,READVersionC.csv,"Read Version C","Dissertation, read only version C",THIMBLE,THREAD,Study2,F,121,173,Study,User,-,,Study/JOL,"Study Phase2",520,,,-1,-1,,,,1
5e176d9b3654c20746564542,4cwk1hoko5,Nick_Dissertation_EX1,1,244,2020-07-08T14:33:28-07:00,0.83321785926819,3,versionC_stim.csv,READVersionC.csv,"Read Version C","Dissertation, read only version C",BREAKABLE,GLASS,Study2,F,127,141,Study,User,-,,Study/JOL,"Study Phase2",485,,,-1,-1,,,,1
5e176d9b3654c20746564542,4cwk1hoko5,Nick_Dissertation_EX1,1,245,2020-07-08T14:33:28-07:00,0.83885312080383,3,versionC_stim.csv,READVersionC.csv,"Read Version C","Dissertation, read only version C",FICTION,LISTEN,Study2,U,164,102,Study,User,-,,Study/JOL,"Study Phase2",507,,,-1,-1,,,,1
5e176d9b3654c20746564542,4cwk1hoko5,Nick_Dissertation_EX1,1,246,2020-07-08T14:33:29-07:00,1.135372877121,3,versionC_stim.csv,READVersionC.csv,"Read Version C","Dissertation, read only version C",TEMPER,TANTRUM,Study2,S,154,131,Study,User,-,,Study/JOL,"Study Phase2",804,,,-1,-1,,,,1
5e176d9b3654c20746564542,4cwk1hoko5,Nick_Dissertation_EX1,1,247,2020-07-08T14:33:30-07:00,0.75500011444092,3,versionC_stim.csv,READVersionC.csv,"Read Version C","Dissertation, read only version C",BANG,FUZZY,Study2,U,168,134,Study,User,-,,Study/JOL,"Study Phase2",429,,,-1,-1,,,,1
5e176d9b3654c20746564542,4cwk1hoko5,Nick_Dissertation_EX1,1,248,2020-07-08T14:33:31-07:00,0.98548483848572,3,versionC_stim.csv,READVersionC.csv,"Read Version C","Dissertation, read only version C",JAR,MASON,Study2,S,138,158,Study,User,-,,Study/JOL,"Study Phase2",679,,,-1,-1,,,,1
5e176d9b3654c20746564542,4cwk1hoko5,Nick_Dissertation_EX1,1,249,2020-07-08T14:33:32-07:00,0.8337550163269,3,versionC_stim.csv,READVersionC.csv,"Read Version C","Dissertation, read only version C",FLIP,TURN,Study2,F,116,168,Study,User,-,,Study/JOL,"Study Phase2",504,,,-1,-1,,,,1
5e176d9b3654c20746564542,4cwk1hoko5,Nick_Dissertation_EX1,1,250,2020-07-08T14:33:33-07:00,0.72338700294495,3,versionC_stim.csv,READVersionC.csv,"Read Version C","Dissertation, read only version C",OBTAIN,MEAT,Study2,U,161,150,Study,User,-,,Study/JOL,"Study Phase2",398,,,-1,-1,,,,1
5e176d9b3654c20746564542,4cwk1hoko5,Nick_Dissertation_EX1,1,251,2020-07-08T14:33:34-07:00,0.80372405052185,3,versionC_stim.csv,READVersionC.csv,"Read Version C","Dissertation, read only version C",EQUAL,RIGHTS,Study2,S,137,129,Study,User,-,,Study/JOL,"Study Phase2",480,,,-1,-1,,,,1
5e176d9b3654c20746564542,4cwk1hoko5,Nick_Dissertation_EX1,1,252,2020-07-08T14:33:34-07:00,0.75207996368408,3,versionC_stim.csv,READVersionC.csv,"Read Version C","Dissertation, read only version C",DONKEY,MULE,Study2,B,108,118,Study,User,-,,Study/JOL,"Study Phase2",404,,,-1,-1,,,,1
5e176d9b3654c20746564542,4cwk1hoko5,Nick_Dissertation_EX1,1,253,2020-07-08T14:33:36-07:00,1.2021501064301,3,versionC_stim.csv,READVersionC.csv,"Read Version C","Dissertation, read only version C",FIGHT,FEUD,Study2,B,113,130,Study,User,-,,Study/JOL,"Study Phase2",877,,,-1,-1,,,,1
5e176d9b3654c20746564542,4cwk1hoko5,Nick_Dissertation_EX1,1,254,2020-07-08T14:33:37-07:00,1.2067668437958,3,versionC_stim.csv,READVersionC.csv,"Read Version C","Dissertation, read only version C",COFFIN,DEAD,Study2,F,128,176,Study,User,-,,Study/JOL,"Study Phase2",879,,,-1,-1,,,,1
5e176d9b3654c20746564542,4cwk1hoko5,Nick_Dissertation_EX1,1,255,2020-07-08T14:33:38-07:00,1.3383121490479,3,versionC_stim.csv,READVersionC.csv,"Read Version C","Dissertation, read only version C",DRINK,WATER,Study2,S,143,151,Study,User,-,,Study/JOL,"Study Phase2",1027,,,-1,-1,,,,1
5e176d9b3654c20746564542,4cwk1hoko5,Nick_Dissertation_EX1,1,256,2020-07-08T14:33:39-07:00,0.85132193565369,3,versionC_stim.csv,READVersionC.csv,"Read Version C","Dissertation, read only version C",FAVORITE,BEST,Study2,F,125,122,Study,User,-,,Study/JOL,"Study Phase2",542,,,-1,-1,,,,1
5e176d9b3654c20746564542,4cwk1hoko5,Nick_Dissertation_EX1,1,257,2020-07-08T14:33:40-07:00,0.91978311538696,3,versionC_stim.csv,READVersionC.csv,"Read Version C","Dissertation, read only version C",ELECTION,MAZE,Study2,U,159,135,Study,User,-,,Study/JOL,"Study Phase2",609,,,-1,-1,,,,1
5e176d9b3654c20746564542,4cwk1hoko5,Nick_Dissertation_EX1,1,258,2020-07-08T14:33:41-07:00,0.86835789680481,3,versionC_stim.csv,READVersionC.csv,"Read Version C","Dissertation, read only version C",SHAKE,Shell,Study2,U,163,123,Study,User,-,,Study/JOL,"Study Phase2",556,,,-1,-1,,,,1
5e176d9b3654c20746564542,4cwk1hoko5,Nick_Dissertation_EX1,1,259,2020-07-08T14:33:41-07:00,0.75247406959534,3,versionC_stim.csv,READVersionC.csv,"Read Version C","Dissertation, read only version C",ABLE,CRACKLE,Study2,U,162,143,Study,User,-,,Study/JOL,"Study Phase2",433,,,-1,-1,,,,1
5e176d9b3654c20746564542,4cwk1hoko5,Nick_Dissertation_EX1,1,260,2020-07-08T14:33:43-07:00,1.0809049606323,3,versionC_stim.csv,READVersionC.csv,"Read Version C","Dissertation, read only version C",STRAWBERRY,FRUIT,Study2,F,124,142,Study,User,-,,Study/JOL,"Study Phase2",759,,,-1,-1,,,,1
5e176d9b3654c20746564542,4cwk1hoko5,Nick_Dissertation_EX1,1,261,2020-07-08T14:33:43-07:00,0.89530301094055,3,versionC_stim.csv,READVersionC.csv,"Read Version C","Dissertation, read only version C",WEAKS,DAYS,BUFFER4,Buffer,176,179,Study,User,-,,Study/JOL,BUFFER4,572,,,-1,-1,,,,1
5e176d9b3654c20746564542,4cwk1hoko5,Nick_Dissertation_EX1,1,262,2020-07-08T14:33:44-07:00,0.8694269657135,3,versionC_stim.csv,READVersionC.csv,"Read Version C","Dissertation, read only version C",SPOOKY,OCTOBER,BUFFER4,Buffer,180,181,Study,User,-,,Study/JOL,BUFFER4,491,,,-1,-1,,,,1
5e176d9b3654c20746564542,4cwk1hoko5,Nick_Dissertation_EX1,1,263,2020-07-08T14:33:45-07:00,0.60928010940552,3,versionC_stim.csv,READVersionC.csv,"Read Version C","Dissertation, read only version C",SHED,TOOL,BUFFER4,Buffer,178,180,Study,User,-,,Study/JOL,BUFFER4,281,,,-1,-1,,,,1
5e176d9b3654c20746564542,4cwk1hoko5,Nick_Dissertation_EX1,1,264,2020-07-08T14:33:46-07:00,0.69989395141602,3,versionC_stim.csv,READVersionC.csv,"Read Version C","Dissertation, read only version C",YEAR,MONTH,BUFFER4,Buffer,177,178,Study,User,-,,Study/JOL,BUFFER4,371,,,-1,-1,,,,1
5e176d9b3654c20746564542,4cwk1hoko5,Nick_Dissertation_EX1,1,265,2020-07-08T14:33:46-07:00,0.74542784690857,3,versionC_stim.csv,READVersionC.csv,"Read Version C","Dissertation, read only version C",MARCH,SPRING,BUFFER4,Buffer,179,177,Study,User,-,,Study/JOL,BUFFER4,407,,,-1,-1,,,,1
5e176d9b3654c20746564542,4cwk1hoko5,Nick_Dissertation_EX1,1,266,2020-07-08T14:33:49-07:00,2.9158020019531,3,versionC_stim.csv,READVersionC.csv,"Read Version C","Dissertation, read only version C",,,,,,0,Instruct,User,-,"You have completed this section. Please press Enter.",Filler_Instruction,Instruct5,2568,,,-1,-1,,,,1
5e176d9b3654c20746564542,4cwk1hoko5,Nick_Dissertation_EX1,1,267,2020-07-08T14:35:50-07:00,120.35850405693,3,versionC_stim.csv,READVersionC.csv,"Read Version C","Dissertation, read only version C",,,,,,0,FreeRecall,120,120,"Please list the 50 US states in reverse alphabetical order (z - a). The task will automatically advance to the next screen after two minutes.",,Filler2,120002,"Vermont Wyoming Washington Texas Maryland Massachusetts Michigan New York New Jersey Ohio Oklahoma Iowa Idaho ",0,8681,102518,0,0,,1
5e176d9b3654c20746564542,4cwk1hoko5,Nick_Dissertation_EX1,1,268,2020-07-08T14:36:04-07:00,14.52994799614,3,versionC_stim.csv,READVersionC.csv,"Read Version C","Dissertation, read only version C",,,,,,0,Instruct,-,10,"You will now be presented with the first word from each of the previously studied item pairs. Please type the missing word. If you do not know the word, you may guess or press Enter to skip forward to the next pair.",,Instruct6,14139,,,-1,-1,,,,1
5e176d9b3654c20746564542,4cwk1hoko5,Nick_Dissertation_EX1,1,269,2020-07-08T14:36:08-07:00,3.7936179637909,3,versionC_stim.csv,READVersionC.csv,"Read Version C","Dissertation, read only version C",SCISSORS,SHEARS,Study2,B,112,169,Test,User,-,,Recall,Recall2,3432,Cut,0,2078,2512,0,0,,1
5e176d9b3654c20746564542,4cwk1hoko5,Nick_Dissertation_EX1,1,270,2020-07-08T14:36:10-07:00,1.8867011070251,3,versionC_stim.csv,READVersionC.csv,"Read Version C","Dissertation, read only version C",COMMUNICATION,PHONE,Study2,S,149,153,Test,User,-,,Recall,Recall2,1554,,0,-1,-1,0,0,,1
5e176d9b3654c20746564542,4cwk1hoko5,Nick_Dissertation_EX1,1,271,2020-07-08T14:36:13-07:00,3.2900459766388,3,versionC_stim.csv,READVersionC.csv,"Read Version C","Dissertation, read only version C",SHAVE,RAZOR,Study2,S,136,136,Test,User,-,,Recall,Recall2,2962,,0,-1,-1,0,0,,1
5e176d9b3654c20746564542,4cwk1hoko5,Nick_Dissertation_EX1,1,272,2020-07-08T14:36:14-07:00,1.1663610935211,3,versionC_stim.csv,READVersionC.csv,"Read Version C","Dissertation, read only version C",TRUTHFUL,HONEST,Study2,F,133,165,Test,User,-,,Recall,Recall2,829,,0,-1,-1,0,0,,1
5e176d9b3654c20746564542,4cwk1hoko5,Nick_Dissertation_EX1,1,273,2020-07-08T14:36:15-07:00,1.076780796051,3,versionC_stim.csv,READVersionC.csv,"Read Version C","Dissertation, read only version C",EQUAL,RIGHTS,Study2,S,137,129,Test,User,-,,Recall,Recall2,721,,0,-1,-1,0,0,,1
5e176d9b3654c20746564542,4cwk1hoko5,Nick_Dissertation_EX1,1,274,2020-07-08T14:36:16-07:00,0.94344305992126,3,versionC_stim.csv,READVersionC.csv,"Read Version C","Dissertation, read only version C",BRAWL,FIGHT,Study2,F,135,160,Test,User,-,,Recall,Recall2,602,,0,-1,-1,0,0,,1
5e176d9b3654c20746564542,4cwk1hoko5,Nick_Dissertation_EX1,1,275,2020-07-08T14:36:20-07:00,3.7858600616455,3,versionC_stim.csv,READVersionC.csv,"Read Version C","Dissertation, read only version C",DRINK,WATER,Study2,S,143,151,Test,User,-,,Recall,Recall2,3459,Water,100,1479,2441,1,1,,1
5e176d9b3654c20746564542,4cwk1hoko5,Nick_Dissertation_EX1,1,276,2020-07-08T14:36:22-07:00,2.040011882782,3,versionC_stim.csv,READVersionC.csv,"Read Version C","Dissertation, read only version C",FAVORITE,BEST,Study2,F,125,122,Test,User,-,,Recall,Recall2,1714,,0,-1,-1,0,0,,1
5e176d9b3654c20746564542,4cwk1hoko5,Nick_Dissertation_EX1,1,277,2020-07-08T14:36:24-07:00,1.3826220035553,3,versionC_stim.csv,READVersionC.csv,"Read Version C","Dissertation, read only version C",GROUND,EARTH,Study2,S,144,156,Test,User,-,,Recall,Recall2,1054,,0,-1,-1,0,0,,1
5e176d9b3654c20746564542,4cwk1hoko5,Nick_Dissertation_EX1,1,278,2020-07-08T14:36:27-07:00,3.4405779838562,3,versionC_stim.csv,READVersionC.csv,"Read Version C","Dissertation, read only version C",OUNCE,BOTH,Study2,U,172,125,Test,User,-,,Recall,Recall2,3114,Both,100,1433,1767,1,1,,1
5e176d9b3654c20746564542,4cwk1hoko5,Nick_Dissertation_EX1,1,279,2020-07-08T14:36:28-07:00,1.3745431900024,3,versionC_stim.csv,READVersionC.csv,"Read Version C","Dissertation, read only version C",PAPER,DOCUMENT,Study2,B,109,154,Test,User,-,,Recall,Recall2,1045,,0,-1,-1,0,0,,1
5e176d9b3654c20746564542,4cwk1hoko5,Nick_Dissertation_EX1,1,280,2020-07-08T14:36:31-07:00,3.1149249076843,3,versionC_stim.csv,READVersionC.csv,"Read Version C","Dissertation, read only version C",PANTHER,CAT,Study2,F,126,115,Test,User,-,,Recall,Recall2,2786,Cat,100,1293,1612,1,1,,1
5e176d9b3654c20746564542,4cwk1hoko5,Nick_Dissertation_EX1,1,281,2020-07-08T14:36:33-07:00,1.2590990066528,3,versionC_stim.csv,READVersionC.csv,"Read Version C","Dissertation, read only version C",STEAK,GIVE,Study2,U,158,126,Test,User,-,,Recall,Recall2,917,,0,-1,-1,0,0,,1
5e176d9b3654c20746564542,4cwk1hoko5,Nick_Dissertation_EX1,1,282,2020-07-08T14:36:34-07:00,1.2906899452209,3,versionC_stim.csv,READVersionC.csv,"Read Version C","Dissertation, read only version C",BRACELET,WRIST,Study2,S,140,105,Test,User,-,,Recall,Recall2,974,,0,-1,-1,0,0,,1
5e176d9b3654c20746564542,4cwk1hoko5,Nick_Dissertation_EX1,1,283,2020-07-08T14:36:38-07:00,3.8283410072327,3,versionC_stim.csv,READVersionC.csv,"Read Version C","Dissertation, read only version C",COFFIN,DEAD,Study2,F,128,176,Test,User,-,,Recall,Recall2,3503,Dead,100,2521,2916,1,1,,1
5e176d9b3654c20746564542,4cwk1hoko5,Nick_Dissertation_EX1,1,284,2020-07-08T14:36:39-07:00,1.3103761672974,3,versionC_stim.csv,READVersionC.csv,"Read Version C","Dissertation, read only version C",HEAD,SCALP,Study2,B,105,167,Test,User,-,,Recall,Recall2,983,,0,-1,-1,0,0,,1
5e176d9b3654c20746564542,4cwk1hoko5,Nick_Dissertation_EX1,1,285,2020-07-08T14:36:43-07:00,3.631208896637,3,versionC_stim.csv,READVersionC.csv,"Read Version C","Dissertation, read only version C",PLANT,CACTUS,Study2,B,98,152,Test,User,-,,Recall,Recall2,3312,Cactus,100,1871,2616,1,1,,1
5e176d9b3654c20746564542,4cwk1hoko5,Nick_Dissertation_EX1,1,286,2020-07-08T14:36:47-07:00,4.3358879089355,3,versionC_stim.csv,READVersionC.csv,"Read Version C","Dissertation, read only version C",CARBON,ELEMENT,Study2,S,141,164,Test,User,-,,Recall,Recall2,4004,element,100,1469,3302,1,1,,1
5e176d9b3654c20746564542,4cwk1hoko5,Nick_Dissertation_EX1,1,287,2020-07-08T14:36:58-07:00,11.175719022751,3,versionC_stim.csv,READVersionC.csv,"Read Version C","Dissertation, read only version C",CLOTH,STRETCH,Study2,U,157,114,Test,User,-,,Recall,Recall2,9714,,0,-1,-1,0,0,,1
5e176d9b3654c20746564542,4cwk1hoko5,Nick_Dissertation_EX1,1,288,2020-07-08T14:37:01-07:00,2.6415009498596,3,versionC_stim.csv,READVersionC.csv,"Read Version C","Dissertation, read only version C",LONELY,ALONE,Study2,S,145,139,Test,User,-,,Recall,Recall2,2333,,0,-1,-1,0,0,,1
5e176d9b3654c20746564542,4cwk1hoko5,Nick_Dissertation_EX1,1,289,2020-07-08T14:37:03-07:00,1.8180310726166,3,versionC_stim.csv,READVersionC.csv,"Read Version C","Dissertation, read only version C",NAP,SLEEP,Study2,F,134,138,Test,User,-,,Recall,Recall2,1485,,0,-1,-1,0,0,,1
5e176d9b3654c20746564542,4cwk1hoko5,Nick_Dissertation_EX1,1,290,2020-07-08T14:37:04-07:00,1.4159240722656,3,versionC_stim.csv,READVersionC.csv,"Read Version C","Dissertation, read only version C",VILLAIN,BAD,Study2,F,118,147,Test,User,-,,Recall,Recall2,1080,,0,-1,-1,0,0,,1
5e176d9b3654c20746564542,4cwk1hoko5,Nick_Dissertation_EX1,1,291,2020-07-08T14:37:06-07:00,1.3653469085693,3,versionC_stim.csv,READVersionC.csv,"Read Version C","Dissertation, read only version C",THIMBLE,THREAD,Study2,F,121,173,Test,User,-,,Recall,Recall2,1020,,0,-1,-1,0,0,,1
5e176d9b3654c20746564542,4cwk1hoko5,Nick_Dissertation_EX1,1,292,2020-07-08T14:37:12-07:00,6.6712930202484,3,versionC_stim.csv,READVersionC.csv,"Read Version C","Dissertation, read only version C",MAROON,JUSTICE,Study2,U,156,172,Test,User,-,,Recall,Recall2,6309,Justice,100,4756,5627,1,1,,1
5e176d9b3654c20746564542,4cwk1hoko5,Nick_Dissertation_EX1,1,293,2020-07-08T14:37:14-07:00,1.9771571159363,3,versionC_stim.csv,READVersionC.csv,"Read Version C","Dissertation, read only version C",OBTAIN,MEAT,Study2,U,161,150,Test,User,-,,Recall,Recall2,1658,,0,-1,-1,0,0,,1
5e176d9b3654c20746564542,4cwk1hoko5,Nick_Dissertation_EX1,1,294,2020-07-08T14:37:15-07:00,0.89683794975281,3,versionC_stim.csv,READVersionC.csv,"Read Version C","Dissertation, read only version C",SMELL,INCENSE,Study2,B,110,145,Test,User,-,,Recall,Recall2,569,,0,-1,-1,0,0,,1
5e176d9b3654c20746564542,4cwk1hoko5,Nick_Dissertation_EX1,1,295,2020-07-08T14:37:17-07:00,1.9556310176849,3,versionC_stim.csv,READVersionC.csv,"Read Version C","Dissertation, read only version C",LOVE,AFFECTION,Study2,B,115,155,Test,User,-,,Recall,Recall2,1629,,0,-1,-1,0,0,,1
5e176d9b3654c20746564542,4cwk1hoko5,Nick_Dissertation_EX1,1,296,2020-07-08T14:37:18-07:00,1.1842439174652,3,versionC_stim.csv,READVersionC.csv,"Read Version C","Dissertation, read only version C",TEMPER,TANTRUM,Study2,S,154,131,Test,User,-,,Recall,Recall2,832,,0,-1,-1,0,0,,1
5e176d9b3654c20746564542,4cwk1hoko5,Nick_Dissertation_EX1,1,297,2020-07-08T14:37:19-07:00,1.0489790439606,3,versionC_stim.csv,READVersionC.csv,"Read Version C","Dissertation, read only version C",BANG,FUZZY,Study2,U,168,134,Test,User,-,,Recall,Recall2,711,,0,-1,-1,0,0,,1
5e176d9b3654c20746564542,4cwk1hoko5,Nick_Dissertation_EX1,1,298,2020-07-08T14:37:24-07:00,4.712424993515,3,versionC_stim.csv,READVersionC.csv,"Read Version C","Dissertation, read only version C",SIGN,LOAN,Study2,U,171,100,Test,User,-,,Recall,Recall2,4332,Lease,44.444444444444,2795,3463,0,0,,1
5e176d9b3654c20746564542,4cwk1hoko5,Nick_Dissertation_EX1,1,299,2020-07-08T14:37:26-07:00,2.1427989006042,3,versionC_stim.csv,READVersionC.csv,"Read Version C","Dissertation, read only version C",FICTION,LISTEN,Study2,U,164,102,Test,User,-,,Recall,Recall2,832,,0,-1,-1,0,0,,1
5e176d9b3654c20746564542,4cwk1hoko5,Nick_Dissertation_EX1,1,300,2020-07-08T14:37:29-07:00,3.3608460426331,3,versionC_stim.csv,READVersionC.csv,"Read Version C","Dissertation, read only version C",SEATBELT,SAFETY,Study2,S,147,112,Test,User,-,,Recall,Recall2,2943,Safety,100,1463,2114,1,1,,1
5e176d9b3654c20746564542,4cwk1hoko5,Nick_Dissertation_EX1,1,301,2020-07-08T14:37:31-07:00,1.2619020938873,3,versionC_stim.csv,READVersionC.csv,"Read Version C","Dissertation, read only version C",AWAY,GONE,Study2,S,142,148,Test,User,-,,Recall,Recall2,940,,0,-1,-1,0,0,,1
5e176d9b3654c20746564542,4cwk1hoko5,Nick_Dissertation_EX1,1,302,2020-07-08T14:37:32-07:00,1.1489179134369,3,versionC_stim.csv,READVersionC.csv,"Read Version C","Dissertation, read only version C",GAME,CLUE,Study2,B,97,166,Test,User,-,,Recall,Recall2,821,,0,-1,-1,0,0,,1
5e176d9b3654c20746564542,4cwk1hoko5,Nick_Dissertation_EX1,1,303,2020-07-08T14:37:33-07:00,1.0066609382629,3,versionC_stim.csv,READVersionC.csv,"Read Version C","Dissertation, read only version C",SCAR,MAIN,Study2,U,175,159,Test,User,-,,Recall,Recall2,669,,0,-1,-1,0,0,,1
5e176d9b3654c20746564542,4cwk1hoko5,Nick_Dissertation_EX1,1,304,2020-07-08T14:37:34-07:00,0.87430810928345,3,versionC_stim.csv,READVersionC.csv,"Read Version C","Dissertation, read only version C",DOG,FURRY,Study2,B,102,163,Test,User,-,,Recall,Recall2,522,,0,-1,-1,0,0,,1
5e176d9b3654c20746564542,4cwk1hoko5,Nick_Dissertation_EX1,1,305,2020-07-08T14:37:35-07:00,1.2817959785461,3,versionC_stim.csv,READVersionC.csv,"Read Version C","Dissertation, read only version C",ACTRESS,STAR,Study2,F,120,117,Test,User,-,,Recall,Recall2,934,,0,-1,-1,0,0,,1
5e176d9b3654c20746564542,4cwk1hoko5,Nick_Dissertation_EX1,1,306,2020-07-08T14:37:36-07:00,1.1928629875183,3,versionC_stim.csv,READVersionC.csv,"Read Version C","Dissertation, read only version C",CLEAR,MOAT,Study2,U,169,101,Test,User,-,,Recall,Recall2,856,,0,-1,-1,0,0,,1
5e176d9b3654c20746564542,4cwk1hoko5,Nick_Dissertation_EX1,1,307,2020-07-08T14:37:37-07:00,1.0699639320374,3,versionC_stim.csv,READVersionC.csv,"Read Version C","Dissertation, read only version C",ABLE,CRACKLE,Study2,U,162,143,Test,User,-,,Recall,Recall2,739,,0,-1,-1,0,0,,1
5e176d9b3654c20746564542,4cwk1hoko5,Nick_Dissertation_EX1,1,308,2020-07-08T14:37:39-07:00,1.5048160552979,3,versionC_stim.csv,READVersionC.csv,"Read Version C","Dissertation, read only version C",FIGHT,FEUD,Study2,B,113,130,Test,User,-,,Recall,Recall2,1177,,0,-1,-1,0,0,,1
5e176d9b3654c20746564542,4cwk1hoko5,Nick_Dissertation_EX1,1,309,2020-07-08T14:37:40-07:00,0.91157793998718,3,versionC_stim.csv,READVersionC.csv,"Read Version C","Dissertation, read only version C",JOKE,KEYS,Study2,U,165,149,Test,User,-,,Recall,Recall2,583,,0,-1,-1,0,0,,1
5e176d9b3654c20746564542,4cwk1hoko5,Nick_Dissertation_EX1,1,310,2020-07-08T14:37:41-07:00,1.1325981616974,3,versionC_stim.csv,READVersionC.csv,"Read Version C","Dissertation, read only version C",ELECTION,MAZE,Study2,U,159,135,Test,User,-,,Recall,Recall2,783,,0,-1,-1,0,0,,1
5e176d9b3654c20746564542,4cwk1hoko5,Nick_Dissertation_EX1,1,311,2020-07-08T14:37:43-07:00,1.7678809165955,3,versionC_stim.csv,READVersionC.csv,"Read Version C","Dissertation, read only version C",LIE,TRUTH,Study2,S,148,132,Test,User,-,,Recall,Recall2,1425,,0,-1,-1,0,0,,1
5e176d9b3654c20746564542,4cwk1hoko5,Nick_Dissertation_EX1,1,312,2020-07-08T14:37:44-07:00,1.300213098526,3,versionC_stim.csv,READVersionC.csv,"Read Version C","Dissertation, read only version C",TRASH,LITTER,Study2,B,103,104,Test,User,-,,Recall,Recall2,952,,0,-1,-1,0,0,,1
5e176d9b3654c20746564542,4cwk1hoko5,Nick_Dissertation_EX1,1,313,2020-07-08T14:37:46-07:00,1.6825459003448,3,versionC_stim.csv,READVersionC.csv,"Read Version C","Dissertation, read only version C",Morning,TEMPERATURE,Study2,U,173,99,Test,User,-,,Recall,Recall2,1340,,0,-1,-1,0,0,,1
5e176d9b3654c20746564542,4cwk1hoko5,Nick_Dissertation_EX1,1,314,2020-07-08T14:37:47-07:00,1.454127073288,3,versionC_stim.csv,READVersionC.csv,"Read Version C","Dissertation, read only version C",TOIL,LEASE,Study2,U,170,120,Test,User,-,,Recall,Recall2,1074,,0,-1,-1,0,0,,1
5e176d9b3654c20746564542,4cwk1hoko5,Nick_Dissertation_EX1,1,315,2020-07-08T14:37:48-07:00,1.1039469242096,3,versionC_stim.csv,READVersionC.csv,"Read Version C","Dissertation, read only version C",TIE,SHOELACE,Study2,B,99,157,Test,User,-,,Recall,Recall2,768,,0,-1,-1,0,0,,1
5e176d9b3654c20746564542,4cwk1hoko5,Nick_Dissertation_EX1,1,316,2020-07-08T14:37:49-07:00,0.96071791648865,3,versionC_stim.csv,READVersionC.csv,"Read Version C","Dissertation, read only version C",CHARM,VEHICLE,Study2,U,160,124,Test,User,-,,Recall,Recall2,617,,0,-1,-1,0,0,,1
5e176d9b3654c20746564542,4cwk1hoko5,Nick_Dissertation_EX1,1,317,2020-07-08T14:37:56-07:00,6.5721130371094,3,versionC_stim.csv,READVersionC.csv,"Read Version C","Dissertation, read only version C",CAR,DRIVER,Study2,B,106,107,Test,User,-,,Recall,Recall2,6211,Windshield,25,3661,5319,0,0,,1
5e176d9b3654c20746564542,4cwk1hoko5,Nick_Dissertation_EX1,1,318,2020-07-08T14:37:57-07:00,1.157133102417,3,versionC_stim.csv,READVersionC.csv,"Read Version C","Dissertation, read only version C",BREAKABLE,GLASS,Study2,F,127,141,Test,User,-,,Recall,Recall2,835,,0,-1,-1,0,0,,1
5e176d9b3654c20746564542,4cwk1hoko5,Nick_Dissertation_EX1,1,319,2020-07-08T14:38:01-07:00,4.1806409358978,3,versionC_stim.csv,READVersionC.csv,"Read Version C","Dissertation, read only version C",REEL,ROD,Study2,S,150,97,Test,User,-,,Recall,Recall2,2656,Rod,100,1436,1697,1,1,,1
5e176d9b3654c20746564542,4cwk1hoko5,Nick_Dissertation_EX1,1,320,2020-07-08T14:38:02-07:00,1.1112020015717,3,versionC_stim.csv,READVersionC.csv,"Read Version C","Dissertation, read only version C",JAR,MASON,Study2,S,138,158,Test,User,-,,Recall,Recall2,762,,0,-1,-1,0,0,,1
5e176d9b3654c20746564542,4cwk1hoko5,Nick_Dissertation_EX1,1,321,2020-07-08T14:38:03-07:00,1.1224279403687,3,versionC_stim.csv,READVersionC.csv,"Read Version C","Dissertation, read only version C",BANKER,MONEY,Study2,F,132,175,Test,User,-,,Recall,Recall2,773,,0,-1,-1,0,0,,1
5e176d9b3654c20746564542,4cwk1hoko5,Nick_Dissertation_EX1,1,322,2020-07-08T14:38:04-07:00,0.91835999488831,3,versionC_stim.csv,READVersionC.csv,"Read Version C","Dissertation, read only version C",END,ADJOURN,Study2,B,101,127,Test,User,-,,Recall,Recall2,587,,0,-1,-1,0,0,,1
5e176d9b3654c20746564542,4cwk1hoko5,Nick_Dissertation_EX1,1,323,2020-07-08T14:38:08-07:00,3.3615100383759,3,versionC_stim.csv,READVersionC.csv,"Read Version C","Dissertation, read only version C",COLD,CHILL,Study2,B,114,113,Test,User,-,,Recall,Recall2,3031,,0,-1,-1,0,0,,1
5e176d9b3654c20746564542,4cwk1hoko5,Nick_Dissertation_EX1,1,324,2020-07-08T14:38:11-07:00,3.0399241447449,3,versionC_stim.csv,READVersionC.csv,"Read Version C","Dissertation, read only version C",STRAWBERRY,FRUIT,Study2,F,124,142,Test,User,-,,Recall,Recall2,2682,Fruit,100,1454,1993,1,1,,1
5e176d9b3654c20746564542,4cwk1hoko5,Nick_Dissertation_EX1,1,325,2020-07-08T14:38:14-07:00,3.1366100311279,3,versionC_stim.csv,READVersionC.csv,"Read Version C","Dissertation, read only version C",WET,DRY,Study2,S,146,110,Test,User,-,,Recall,Recall2,2744,Dry,100,1508,1872,1,1,,1
5e176d9b3654c20746564542,4cwk1hoko5,Nick_Dissertation_EX1,1,326,2020-07-08T14:38:15-07:00,1.0840997695923,3,versionC_stim.csv,READVersionC.csv,"Read Version C","Dissertation, read only version C",SARDINE,FISH,Study2,F,130,171,Test,User,-,,Recall,Recall2,738,,0,-1,-1,0,0,,1
5e176d9b3654c20746564542,4cwk1hoko5,Nick_Dissertation_EX1,1,327,2020-07-08T14:38:18-07:00,2.9801371097565,3,versionC_stim.csv,READVersionC.csv,"Read Version C","Dissertation, read only version C",CLOTHES,CAKE,Study2,U,166,111,Test,User,-,,Recall,Recall2,2655,,0,-1,-1,0,0,,1
5e176d9b3654c20746564542,4cwk1hoko5,Nick_Dissertation_EX1,1,328,2020-07-08T14:38:19-07:00,1.3439528942108,3,versionC_stim.csv,READVersionC.csv,"Read Version C","Dissertation, read only version C",CHILDREN,MIRROR,Study2,U,174,137,Test,User,-,,Recall,Recall2,1001,,0,-1,-1,0,0,,1
5e176d9b3654c20746564542,4cwk1hoko5,Nick_Dissertation_EX1,1,329,2020-07-08T14:38:22-07:00,2.7028200626373,3,versionC_stim.csv,READVersionC.csv,"Read Version C","Dissertation, read only version C",PENGUIN,BIRD,Study2,F,119,106,Test,User,-,,Recall,Recall2,2374,Bird,100,1390,1849,1,1,,1
5e176d9b3654c20746564542,4cwk1hoko5,Nick_Dissertation_EX1,1,330,2020-07-08T14:38:23-07:00,1.0870611667633,3,versionC_stim.csv,READVersionC.csv,"Read Version C","Dissertation, read only version C",TICK,FLEA,Study2,S,151,128,Test,User,-,,Recall,Recall2,732,,0,-1,-1,0,0,,1
5e176d9b3654c20746564542,4cwk1hoko5,Nick_Dissertation_EX1,1,331,2020-07-08T14:38:25-07:00,1.9480788707733,3,versionC_stim.csv,READVersionC.csv,"Read Version C","Dissertation, read only version C",MYSTERY,DETECTIVE,Study2,B,100,108,Test,User,-,,Recall,Recall2,1602,,0,-1,-1,0,0,,1
5e176d9b3654c20746564542,4cwk1hoko5,Nick_Dissertation_EX1,1,332,2020-07-08T14:38:26-07:00,1.1741530895233,3,versionC_stim.csv,READVersionC.csv,"Read Version C","Dissertation, read only version C",SHAKE,Shell,Study2,U,163,123,Test,User,-,,Recall,Recall2,839,,0,-1,-1,0,0,,1
5e176d9b3654c20746564542,4cwk1hoko5,Nick_Dissertation_EX1,1,333,2020-07-08T14:38:31-07:00,5.14027094841,3,versionC_stim.csv,READVersionC.csv,"Read Version C","Dissertation, read only version C",HATE,NAME,Study2,U,167,103,Test,User,-,,Recall,Recall2,4807,Truthful,0,2761,4000,0,0,,1
5e176d9b3654c20746564542,4cwk1hoko5,Nick_Dissertation_EX1,1,334,2020-07-08T14:38:32-07:00,1.0162370204926,3,versionC_stim.csv,READVersionC.csv,"Read Version C","Dissertation, read only version C",HAVE,OWN,Study2,S,153,109,Test,User,-,,Recall,Recall2,690,,0,-1,-1,0,0,,1
5e176d9b3654c20746564542,4cwk1hoko5,Nick_Dissertation_EX1,1,335,2020-07-08T14:38:33-07:00,1.0254800319672,3,versionC_stim.csv,READVersionC.csv,"Read Version C","Dissertation, read only version C",NOISE,LOUD,Study2,S,152,116,Test,User,-,,Recall,Recall2,690,,0,-1,-1,0,0,,1
5e176d9b3654c20746564542,4cwk1hoko5,Nick_Dissertation_EX1,1,336,2020-07-08T14:38:37-07:00,3.5362379550934,3,versionC_stim.csv,READVersionC.csv,"Read Version C","Dissertation, read only version C",WAX,CANDLE,Study2,S,139,144,Test,User,-,,Recall,Recall2,3197,Candle,100,1600,2120,1,1,,1
5e176d9b3654c20746564542,4cwk1hoko5,Nick_Dissertation_EX1,1,337,2020-07-08T14:38:38-07:00,0.99998593330383,3,versionC_stim.csv,READVersionC.csv,"Read Version C","Dissertation, read only version C",RED,CHERRY,Study2,B,104,162,Test,User,-,,Recall,Recall2,675,,0,-1,-1,0,0,,1
5e176d9b3654c20746564542,4cwk1hoko5,Nick_Dissertation_EX1,1,338,2020-07-08T14:38:39-07:00,0.83437609672546,3,versionC_stim.csv,READVersionC.csv,"Read Version C","Dissertation, read only version C",LONG,EXTENSION,Study2,B,96,119,Test,User,-,,Recall,Recall2,497,,0,-1,-1,0,0,,1
5e176d9b3654c20746564542,4cwk1hoko5,Nick_Dissertation_EX1,1,339,2020-07-08T14:38:40-07:00,0.8976309299469,3,versionC_stim.csv,READVersionC.csv,"Read Version C","Dissertation, read only version C",EAT,DINE,Study2,B,111,98,Test,User,-,,Recall,Recall2,467,,0,-1,-1,0,0,,1
5e176d9b3654c20746564542,4cwk1hoko5,Nick_Dissertation_EX1,1,340,2020-07-08T14:38:40-07:00,0.89733195304871,3,versionC_stim.csv,READVersionC.csv,"Read Version C","Dissertation, read only version C",FLIP,TURN,Study2,F,116,168,Test,User,-,,Recall,Recall2,532,,0,-1,-1,0,0,,1
5e176d9b3654c20746564542,4cwk1hoko5,Nick_Dissertation_EX1,1,341,2020-07-08T14:38:41-07:00,0.90387511253357,3,versionC_stim.csv,READVersionC.csv,"Read Version C","Dissertation, read only version C",TAN,SUN,Study2,S,155,161,Test,User,-,,Recall,Recall2,568,,0,-1,-1,0,0,,1
5e176d9b3654c20746564542,4cwk1hoko5,Nick_Dissertation_EX1,1,342,2020-07-08T14:38:43-07:00,1.2945029735565,3,versionC_stim.csv,READVersionC.csv,"Read Version C","Dissertation, read only version C",LEAGUE,BASEBALL,Study2,F,131,174,Test,User,-,,Recall,Recall2,964,,0,-1,-1,0,0,,1
5e176d9b3654c20746564542,4cwk1hoko5,Nick_Dissertation_EX1,1,343,2020-07-08T14:38:44-07:00,1.3169958591461,3,versionC_stim.csv,READVersionC.csv,"Read Version C","Dissertation, read only version C",CUT,CHOP,Study2,B,107,170,Test,User,-,,Recall,Recall2,990,,0,-1,-1,0,0,,1
5e176d9b3654c20746564542,4cwk1hoko5,Nick_Dissertation_EX1,1,344,2020-07-08T14:38:47-07:00,2.6781821250916,3,versionC_stim.csv,READVersionC.csv,"Read Version C","Dissertation, read only version C",WINDSHIELD,CAR,Study2,F,117,133,Test,User,-,,Recall,Recall2,2351,Car,100,1517,1821,1,1,,1
5e176d9b3654c20746564542,4cwk1hoko5,Nick_Dissertation_EX1,1,345,2020-07-08T14:38:48-07:00,1.1364419460297,3,versionC_stim.csv,READVersionC.csv,"Read Version C","Dissertation, read only version C",DONKEY,MULE,Study2,B,108,118,Test,User,-,,Recall,Recall2,818,,0,-1,-1,0,0,,1
5e176d9b3654c20746564542,4cwk1hoko5,Nick_Dissertation_EX1,1,346,2020-07-08T14:38:49-07:00,1.1337850093842,3,versionC_stim.csv,READVersionC.csv,"Read Version C","Dissertation, read only version C",BALLOON,POP,Study2,F,123,121,Test,User,-,,Recall,Recall2,806,,0,-1,-1,0,0,,1
5e176d9b3654c20746564542,4cwk1hoko5,Nick_Dissertation_EX1,1,347,2020-07-08T14:38:58-07:00,9.0778040885925,3,versionC_stim.csv,READVersionC.csv,"Read Version C","Dissertation, read only version C",REVENGE,EVEN,Study2,F,122,140,Test,User,-,,Recall,Recall2,8695,Even,100,7623,7988,1,1,,1
5e176d9b3654c20746564542,4cwk1hoko5,Nick_Dissertation_EX1,1,348,2020-07-08T14:38:59-07:00,1.3909139633179,3,versionC_stim.csv,READVersionC.csv,"Read Version C","Dissertation, read only version C",AIRCRAFT,PLANE,Study2,F,129,146,Test,User,-,,Recall,Recall2,1031,,0,-1,-1,0,0,,1
5e176d9b3654c20746564542,4cwk1hoko5,Nick_Dissertation_EX1,1,349,2020-07-08T14:39:01-07:00,2.0994839668274,3,versionC_stim.csv,READVersionC.csv,"Read Version C","Dissertation, read only version C",,,,,,0,Instruct,User,-,"You have completed this section. Please press Enter.",,Instruct7,1792,,,-1,-1,,,,1
5e176d9b3654c20746564542,4cwk1hoko5,Nick_Dissertation_EX1,1,350,2020-07-08T14:39:03-07:00,1.7208459377289,3,versionC_stim.csv,READVersionC.csv,"Read Version C","Dissertation, read only version C",,,,,,0,Instruct,User,-,"The following screen will ask you a few questions abour your experience today. You must complete these questions to receive credit.",,Instruct8,1397,,,-1,-1,,,,1
