Username,ID,ExperimentName,Session,Trial,Date,TimeDif,"Condition Number","Stimuli File","Order File","Condition Description","Condition Notes",Stimuli*Cue,Stimuli*Answer,Stimuli*Shuffle,"Stimuli*Stimuli Notes",Stimuli*Value,Procedure*Item,"Procedure*Trial Type","Procedure*Max Time","Procedure*Min Time",Procedure*Text,"Procedure*Procedure Notes",Procedure*Shuffle,Response*RT,Response*Response,Response*Accuracy,Response*RTfirst,Response*RTlast,Response*strictAcc,Response*lenientAcc,Response*focus,Response*Focus
982346DJ,fd2iyxikvm,Nick_Dissertation_EX1,1,1,2020-08-27T10:51:54-07:00,11.257020950317,2,versionA_stim.csv,READVersionB.csv,"Read Version B","Dissertation, read only version B",,,,,,0,Instruct,-,10,"Please study each of the following word pairs. Remember that your memory will be tested! When finished, press Enter to move to the next pair.",Initial_Instruct,Instruct1,11073,,,-1,-1,,,,1
982346DJ,fd2iyxikvm,Nick_Dissertation_EX1,1,2,2020-08-27T10:51:58-07:00,4.3587789535522,2,versionA_stim.csv,READVersionB.csv,"Read Version B","Dissertation, read only version B",ICE,FROZEN,BUFFER3,Buffer,94,93,Study,User,-,,Study/JOL,BUFFER,4125,,,-1,-1,,,,1
982346DJ,fd2iyxikvm,Nick_Dissertation_EX1,1,3,2020-08-27T10:52:02-07:00,3.9206340312958,2,versionA_stim.csv,READVersionB.csv,"Read Version B","Dissertation, read only version B",CAMP,ADVENTURE,BUFFER3,Buffer,95,92,Study,User,-,,Study/JOL,BUFFER,3697,,,-1,-1,,,,1
982346DJ,fd2iyxikvm,Nick_Dissertation_EX1,1,4,2020-08-27T10:52:05-07:00,3.3261389732361,2,versionA_stim.csv,READVersionB.csv,"Read Version B","Dissertation, read only version B",NOODLE,STRING,BUFFER3,Buffer,92,95,Study,User,-,,Study/JOL,BUFFER,3094,,,-1,-1,,,,1
982346DJ,fd2iyxikvm,Nick_Dissertation_EX1,1,5,2020-08-27T10:52:17-07:00,11.17148399353,2,versionA_stim.csv,READVersionB.csv,"Read Version B","Dissertation, read only version B",CARROT,POTATO,BUFFER3,Buffer,91,94,Study,User,-,,Study/JOL,BUFFER,10936,,,10929,10929,,,,1
982346DJ,fd2iyxikvm,Nick_Dissertation_EX1,1,6,2020-08-27T10:52:23-07:00,5.9178950786591,2,versionA_stim.csv,READVersionB.csv,"Read Version B","Dissertation, read only version B",SHRIMP,FISH,BUFFER3,Buffer,93,96,Study,User,-,,Study/JOL,BUFFER,5693,,,-1,-1,,,,1
982346DJ,fd2iyxikvm,Nick_Dissertation_EX1,1,7,2020-08-27T10:52:30-07:00,7.2173588275909,2,versionA_stim.csv,READVersionB.csv,"Read Version B","Dissertation, read only version B",ADJOURN,END,Study2,F,101,156,Study,User,-,,Study/JOL,"Study Phase",6989,,,-1,-1,,,,1
982346DJ,fd2iyxikvm,Nick_Dissertation_EX1,1,8,2020-08-27T10:52:36-07:00,6.2980840206146,2,versionA_stim.csv,READVersionB.csv,"Read Version B","Dissertation, read only version B",CRACKLE,ABLE,Study2,U,162,137,Study,User,-,,Study/JOL,"Study Phase",6071,,,-1,-1,,,,1
982346DJ,fd2iyxikvm,Nick_Dissertation_EX1,1,9,2020-08-27T10:52:46-07:00,9.4823400974274,2,versionA_stim.csv,READVersionB.csv,"Read Version B","Dissertation, read only version B",PHONE,COMMUNICATION,Study2,S,149,170,Study,User,-,,Study/JOL,"Study Phase",9255,,,-1,-1,,,,1
982346DJ,fd2iyxikvm,Nick_Dissertation_EX1,1,10,2020-08-27T10:52:53-07:00,7.2853138446808,2,versionA_stim.csv,READVersionB.csv,"Read Version B","Dissertation, read only version B",BIRD,PENGUIN,Study2,B,119,120,Study,User,-,,Study/JOL,"Study Phase",7057,,,-1,-1,,,,1
982346DJ,fd2iyxikvm,Nick_Dissertation_EX1,1,11,2020-08-27T10:52:59-07:00,6.5875821113586,2,versionA_stim.csv,READVersionB.csv,"Read Version B","Dissertation, read only version B",OWN,HAVE,Study2,S,153,121,Study,User,-,,Study/JOL,"Study Phase",6356,,,-1,-1,,,,1
982346DJ,fd2iyxikvm,Nick_Dissertation_EX1,1,12,2020-08-27T10:53:07-07:00,7.4152688980103,2,versionA_stim.csv,READVersionB.csv,"Read Version B","Dissertation, read only version B",HONEST,TRUTHFUL,Study2,B,133,163,Study,User,-,,Study/JOL,"Study Phase",7180,,,-1,-1,,,,1
982346DJ,fd2iyxikvm,Nick_Dissertation_EX1,1,13,2020-08-27T10:53:14-07:00,7.0897181034088,2,versionA_stim.csv,READVersionB.csv,"Read Version B","Dissertation, read only version B",EXTENSION,LONG,Study2,F,96,144,Study,User,-,,Study/JOL,"Study Phase",6837,,,-1,-1,,,,1
982346DJ,fd2iyxikvm,Nick_Dissertation_EX1,1,14,2020-08-27T10:53:19-07:00,5.1883859634399,2,versionA_stim.csv,READVersionB.csv,"Read Version B","Dissertation, read only version B",DINE,EAT,Study2,F,111,122,Study,User,-,,Study/JOL,"Study Phase",4961,,,-1,-1,,,,1
982346DJ,fd2iyxikvm,Nick_Dissertation_EX1,1,15,2020-08-27T10:53:25-07:00,5.5174419879913,2,versionA_stim.csv,READVersionB.csv,"Read Version B","Dissertation, read only version B",MAIN,SCAR,Study2,U,175,117,Study,User,-,,Study/JOL,"Study Phase",5295,,,-1,-1,,,,1
982346DJ,fd2iyxikvm,Nick_Dissertation_EX1,1,16,2020-08-27T10:53:31-07:00,6.1966030597687,2,versionA_stim.csv,READVersionB.csv,"Read Version B","Dissertation, read only version B",DEAD,COFFIN,Study2,B,128,164,Study,User,-,,Study/JOL,"Study Phase",5968,,,-1,-1,,,,1
982346DJ,fd2iyxikvm,Nick_Dissertation_EX1,1,17,2020-08-27T10:53:37-07:00,5.74613904953,2,versionA_stim.csv,READVersionB.csv,"Read Version B","Dissertation, read only version B",CAT,PANTHER,Study2,B,126,165,Study,User,-,,Study/JOL,"Study Phase",5520,,,-1,-1,,,,1
982346DJ,fd2iyxikvm,Nick_Dissertation_EX1,1,18,2020-08-27T10:53:45-07:00,8.0486600399017,2,versionA_stim.csv,READVersionB.csv,"Read Version B","Dissertation, read only version B",BASEBALL,LEAGUE,Study2,B,131,135,Study,User,-,,Study/JOL,"Study Phase",7830,,,-1,-1,,,,1
982346DJ,fd2iyxikvm,Nick_Dissertation_EX1,1,19,2020-08-27T10:53:51-07:00,6.6339747905731,2,versionA_stim.csv,READVersionB.csv,"Read Version B","Dissertation, read only version B",EARTH,GROUND,Study2,S,144,119,Study,User,-,,Study/JOL,"Study Phase",6409,,,-1,-1,,,,1
982346DJ,fd2iyxikvm,Nick_Dissertation_EX1,1,20,2020-08-27T10:53:58-07:00,6.3037421703339,2,versionA_stim.csv,READVersionB.csv,"Read Version B","Dissertation, read only version B",Shell,SHAKE,Study2,U,163,103,Study,User,-,,Study/JOL,"Study Phase",6087,,,-1,-1,,,,1
982346DJ,fd2iyxikvm,Nick_Dissertation_EX1,1,21,2020-08-27T10:54:06-07:00,8.4558498859406,2,versionA_stim.csv,READVersionB.csv,"Read Version B","Dissertation, read only version B",GLASS,BREAKABLE,Study2,B,127,136,Study,User,-,,Study/JOL,"Study Phase",8230,,,-1,-1,,,,1
982346DJ,fd2iyxikvm,Nick_Dissertation_EX1,1,22,2020-08-27T10:54:12-07:00,6.3697800636292,2,versionA_stim.csv,READVersionB.csv,"Read Version B","Dissertation, read only version B",CACTUS,PLANT,Study2,F,98,146,Study,User,-,,Study/JOL,"Study Phase",6151,,,-1,-1,,,,1
982346DJ,fd2iyxikvm,Nick_Dissertation_EX1,1,23,2020-08-27T10:54:20-07:00,7.3772029876709,2,versionA_stim.csv,READVersionB.csv,"Read Version B","Dissertation, read only version B",SHEARS,SCISSORS,Study2,F,112,129,Study,User,-,,Study/JOL,"Study Phase",7144,,,-1,-1,,,,1
982346DJ,fd2iyxikvm,Nick_Dissertation_EX1,1,24,2020-08-27T10:54:26-07:00,6.1804718971252,2,versionA_stim.csv,READVersionB.csv,"Read Version B","Dissertation, read only version B",GONE,AWAY,Study2,S,142,154,Study,User,-,,Study/JOL,"Study Phase",5950,,,-1,-1,,,,1
982346DJ,fd2iyxikvm,Nick_Dissertation_EX1,1,25,2020-08-27T10:54:34-07:00,7.7061641216278,2,versionA_stim.csv,READVersionB.csv,"Read Version B","Dissertation, read only version B",BAD,VILLAIN,Study2,B,118,171,Study,User,-,,Study/JOL,"Study Phase",7474,,,-1,-1,,,,1
982346DJ,fd2iyxikvm,Nick_Dissertation_EX1,1,26,2020-08-27T10:54:41-07:00,7.758250951767,2,versionA_stim.csv,READVersionB.csv,"Read Version B","Dissertation, read only version B",LISTEN,FICTION,Study2,U,164,141,Study,User,-,,Study/JOL,"Study Phase",7534,,,-1,-1,,,,1
982346DJ,fd2iyxikvm,Nick_Dissertation_EX1,1,27,2020-08-27T10:54:49-07:00,7.5371980667114,2,versionA_stim.csv,READVersionB.csv,"Read Version B","Dissertation, read only version B",TANTRUM,TEMPER,Study2,S,154,125,Study,User,-,,Study/JOL,"Study Phase",7309,,,-1,-1,,,,1
982346DJ,fd2iyxikvm,Nick_Dissertation_EX1,1,28,2020-08-27T10:54:55-07:00,6.0715100765228,2,versionA_stim.csv,READVersionB.csv,"Read Version B","Dissertation, read only version B",RAZOR,SHAVE,Study2,S,136,127,Study,User,-,,Study/JOL,"Study Phase",5851,,,-1,-1,,,,1
982346DJ,fd2iyxikvm,Nick_Dissertation_EX1,1,29,2020-08-27T10:55:01-07:00,6.2261970043182,2,versionA_stim.csv,READVersionB.csv,"Read Version B","Dissertation, read only version B",FUZZY,BANG,Study2,U,168,175,Study,User,-,,Study/JOL,"Study Phase",5993,,,-1,-1,,,,1
982346DJ,fd2iyxikvm,Nick_Dissertation_EX1,1,30,2020-08-27T10:55:09-07:00,7.8299248218536,2,versionA_stim.csv,READVersionB.csv,"Read Version B","Dissertation, read only version B",JUSTICE,MAROON,Study2,U,156,161,Study,User,-,,Study/JOL,"Study Phase",7604,,,-1,-1,,,,1
982346DJ,fd2iyxikvm,Nick_Dissertation_EX1,1,31,2020-08-27T10:55:14-07:00,5.0706861019135,2,versionA_stim.csv,READVersionB.csv,"Read Version B","Dissertation, read only version B",ROD,REEL,Study2,S,150,118,Study,User,-,,Study/JOL,"Study Phase",4845,,,-1,-1,,,,1
982346DJ,fd2iyxikvm,Nick_Dissertation_EX1,1,32,2020-08-27T10:55:20-07:00,6.0626809597015,2,versionA_stim.csv,READVersionB.csv,"Read Version B","Dissertation, read only version B",STAR,ACTRESS,Study2,B,120,128,Study,User,-,,Study/JOL,"Study Phase",5827,,,-1,-1,,,,1
982346DJ,fd2iyxikvm,Nick_Dissertation_EX1,1,33,2020-08-27T10:55:25-07:00,5.1469330787659,2,versionA_stim.csv,READVersionB.csv,"Read Version B","Dissertation, read only version B",LOAN,SIGN,Study2,U,171,139,Study,User,-,,Study/JOL,"Study Phase",4899,,,-1,-1,,,,1
982346DJ,fd2iyxikvm,Nick_Dissertation_EX1,1,34,2020-08-27T10:55:31-07:00,5.6713848114014,2,versionA_stim.csv,READVersionB.csv,"Read Version B","Dissertation, read only version B",MOAT,CLEAR,Study2,U,169,124,Study,User,-,,Study/JOL,"Study Phase",5446,,,-1,-1,,,,1
982346DJ,fd2iyxikvm,Nick_Dissertation_EX1,1,35,2020-08-27T10:55:38-07:00,6.8206701278687,2,versionA_stim.csv,READVersionB.csv,"Read Version B","Dissertation, read only version B",INCENSE,SMELL,Study2,F,110,140,Study,User,-,,Study/JOL,"Study Phase",6582,,,-1,-1,,,,1
982346DJ,fd2iyxikvm,Nick_Dissertation_EX1,1,36,2020-08-27T10:55:43-07:00,5.3839309215546,2,versionA_stim.csv,READVersionB.csv,"Read Version B","Dissertation, read only version B",LOUD,NOISE,Study2,S,152,172,Study,User,-,,Study/JOL,"Study Phase",5166,,,-1,-1,,,,1
982346DJ,fd2iyxikvm,Nick_Dissertation_EX1,1,37,2020-08-27T10:55:45-07:00,1.6792831420898,2,versionA_stim.csv,READVersionB.csv,"Read Version B","Dissertation, read only version B",SLEEP,NAP,Study2,B,134,115,Study,User,-,,Study/JOL,"Study Phase",1495,,,-1,-1,,,,1
982346DJ,fd2iyxikvm,Nick_Dissertation_EX1,1,38,2020-08-27T10:55:51-07:00,6.243588924408,2,versionA_stim.csv,READVersionB.csv,"Read Version B","Dissertation, read only version B",LEASE,TOIL,Study2,U,170,112,Study,User,-,,Study/JOL,"Study Phase",6014,,,-1,-1,,,,1
982346DJ,fd2iyxikvm,Nick_Dissertation_EX1,1,39,2020-08-27T10:55:53-07:00,2.1578650474548,2,versionA_stim.csv,READVersionB.csv,"Read Version B","Dissertation, read only version B",CHILL,COLD,Study2,F,114,159,Study,User,-,,Study/JOL,"Study Phase",1904,,,-1,-1,,,,1
982346DJ,fd2iyxikvm,Nick_Dissertation_EX1,1,40,2020-08-27T10:56:00-07:00,6.2089338302612,2,versionA_stim.csv,READVersionB.csv,"Read Version B","Dissertation, read only version B",BOTH,OUNCE,Study2,U,172,133,Study,User,-,,Study/JOL,"Study Phase",5975,,,-1,-1,,,,1
982346DJ,fd2iyxikvm,Nick_Dissertation_EX1,1,41,2020-08-27T10:56:05-07:00,5.8173680305481,2,versionA_stim.csv,READVersionB.csv,"Read Version B","Dissertation, read only version B",WATER,DRINK,Study2,S,143,150,Study,User,-,,Study/JOL,"Study Phase",5583,,,-1,-1,,,,1
982346DJ,fd2iyxikvm,Nick_Dissertation_EX1,1,42,2020-08-27T10:56:12-07:00,6.7600181102753,2,versionA_stim.csv,READVersionB.csv,"Read Version B","Dissertation, read only version B",SHOELACE,TIE,Study2,F,99,105,Study,User,-,,Study/JOL,"Study Phase",6518,,,-1,-1,,,,1
982346DJ,fd2iyxikvm,Nick_Dissertation_EX1,1,43,2020-08-27T10:56:20-07:00,8.1183750629425,2,versionA_stim.csv,READVersionB.csv,"Read Version B","Dissertation, read only version B",AFFECTION,LOVE,Study2,F,115,166,Study,User,-,,Study/JOL,"Study Phase",7896,,,-1,-1,,,,1
982346DJ,fd2iyxikvm,Nick_Dissertation_EX1,1,44,2020-08-27T10:56:28-07:00,7.7841639518738,2,versionA_stim.csv,READVersionB.csv,"Read Version B","Dissertation, read only version B",PLANE,AIRCRAFT,Study2,B,129,143,Study,User,-,,Study/JOL,"Study Phase",7582,,,-1,-1,,,,1
982346DJ,fd2iyxikvm,Nick_Dissertation_EX1,1,45,2020-08-27T10:56:33-07:00,5.3253819942474,2,versionA_stim.csv,READVersionB.csv,"Read Version B","Dissertation, read only version B",FURRY,DOG,Study2,F,102,162,Study,User,-,,Study/JOL,"Study Phase",5105,,,-1,-1,,,,1
982346DJ,fd2iyxikvm,Nick_Dissertation_EX1,1,46,2020-08-27T10:56:41-07:00,7.3304860591888,2,versionA_stim.csv,READVersionB.csv,"Read Version B","Dissertation, read only version B",VEHICLE,CHARM,Study2,U,160,151,Study,User,-,,Study/JOL,"Study Phase",7099,,,-1,-1,,,,1
982346DJ,fd2iyxikvm,Nick_Dissertation_EX1,1,47,2020-08-27T10:56:43-07:00,2.591460943222,2,versionA_stim.csv,READVersionB.csv,"Read Version B","Dissertation, read only version B",MIRROR,CHILDREN,Study2,U,174,97,Study,User,-,,Study/JOL,"Study Phase",2362,,,-1,-1,,,,1
982346DJ,fd2iyxikvm,Nick_Dissertation_EX1,1,48,2020-08-27T10:56:46-07:00,2.7099380493164,2,versionA_stim.csv,READVersionB.csv,"Read Version B","Dissertation, read only version B",GIVE,STEAK,Study2,U,158,158,Study,User,-,,Study/JOL,"Study Phase",2489,,,-1,-1,,,,1
982346DJ,fd2iyxikvm,Nick_Dissertation_EX1,1,49,2020-08-27T10:56:49-07:00,2.7058968544006,2,versionA_stim.csv,READVersionB.csv,"Read Version B","Dissertation, read only version B",EVEN,REVENGE,Study2,B,122,160,Study,User,-,,Study/JOL,"Study Phase",2476,,,-1,-1,,,,1
982346DJ,fd2iyxikvm,Nick_Dissertation_EX1,1,50,2020-08-27T10:56:51-07:00,2.6410009860992,2,versionA_stim.csv,READVersionB.csv,"Read Version B","Dissertation, read only version B",BEST,FAVORITE,Study2,B,125,148,Study,User,-,,Study/JOL,"Study Phase",2415,,,-1,-1,,,,1
982346DJ,fd2iyxikvm,Nick_Dissertation_EX1,1,51,2020-08-27T10:56:54-07:00,2.2948501110077,2,versionA_stim.csv,READVersionB.csv,"Read Version B","Dissertation, read only version B",SCALP,HEAD,Study2,F,105,116,Study,User,-,,Study/JOL,"Study Phase",2066,,,-1,-1,,,,1
982346DJ,fd2iyxikvm,Nick_Dissertation_EX1,1,52,2020-08-27T10:56:56-07:00,2.2641999721527,2,versionA_stim.csv,READVersionB.csv,"Read Version B","Dissertation, read only version B",LITTER,TRASH,Study2,F,103,155,Study,User,-,,Study/JOL,"Study Phase",2038,,,-1,-1,,,,1
982346DJ,fd2iyxikvm,Nick_Dissertation_EX1,1,53,2020-08-27T10:56:58-07:00,2.4788379669189,2,versionA_stim.csv,READVersionB.csv,"Read Version B","Dissertation, read only version B",DETECTIVE,MYSTERY,Study2,F,100,99,Study,User,-,,Study/JOL,"Study Phase",2252,,,-1,-1,,,,1
982346DJ,fd2iyxikvm,Nick_Dissertation_EX1,1,54,2020-08-27T10:57:00-07:00,1.9759240150452,2,versionA_stim.csv,READVersionB.csv,"Read Version B","Dissertation, read only version B",MEAT,OBTAIN,Study2,U,161,153,Study,User,-,,Study/JOL,"Study Phase",1785,,,-1,-1,,,,1
982346DJ,fd2iyxikvm,Nick_Dissertation_EX1,1,55,2020-08-27T10:57:03-07:00,2.703428030014,2,versionA_stim.csv,READVersionB.csv,"Read Version B","Dissertation, read only version B",TEMPERATURE,Morning,Study2,U,173,109,Study,User,-,,Study/JOL,"Study Phase",2469,,,-1,-1,,,,1
982346DJ,fd2iyxikvm,Nick_Dissertation_EX1,1,56,2020-08-27T10:57:05-07:00,1.6785669326782,2,versionA_stim.csv,READVersionB.csv,"Read Version B","Dissertation, read only version B",POP,BALLOON,Study2,B,123,176,Study,User,-,,Study/JOL,"Study Phase",1497,,,-1,-1,,,,1
982346DJ,fd2iyxikvm,Nick_Dissertation_EX1,1,57,2020-08-27T10:57:06-07:00,1.59228515625,2,versionA_stim.csv,READVersionB.csv,"Read Version B","Dissertation, read only version B",FISH,SARDINE,Study2,B,130,108,Study,User,-,,Study/JOL,"Study Phase",1403,,,-1,-1,,,,1
982346DJ,fd2iyxikvm,Nick_Dissertation_EX1,1,58,2020-08-27T10:57:08-07:00,1.7036838531494,2,versionA_stim.csv,READVersionB.csv,"Read Version B","Dissertation, read only version B",MULE,DONKEY,Study2,F,108,130,Study,User,-,,Study/JOL,"Study Phase",1525,,,-1,-1,,,,1
982346DJ,fd2iyxikvm,Nick_Dissertation_EX1,1,59,2020-08-27T10:57:10-07:00,1.6490790843964,2,versionA_stim.csv,READVersionB.csv,"Read Version B","Dissertation, read only version B",DOCUMENT,PAPER,Study2,F,109,131,Study,User,-,,Study/JOL,"Study Phase",1471,,,-1,-1,,,,1
982346DJ,fd2iyxikvm,Nick_Dissertation_EX1,1,60,2020-08-27T10:57:11-07:00,1.5108249187469,2,versionA_stim.csv,READVersionB.csv,"Read Version B","Dissertation, read only version B",SUN,TAN,Study2,S,155,169,Study,User,-,,Study/JOL,"Study Phase",1333,,,-1,-1,,,,1
982346DJ,fd2iyxikvm,Nick_Dissertation_EX1,1,61,2020-08-27T10:57:13-07:00,1.7601339817047,2,versionA_stim.csv,READVersionB.csv,"Read Version B","Dissertation, read only version B",MONEY,BANKER,Study2,B,132,114,Study,User,-,,Study/JOL,"Study Phase",1592,,,-1,-1,,,,1
982346DJ,fd2iyxikvm,Nick_Dissertation_EX1,1,62,2020-08-27T10:57:15-07:00,1.6002199649811,2,versionA_stim.csv,READVersionB.csv,"Read Version B","Dissertation, read only version B",ELEMENT,CARBON,Study2,S,141,101,Study,User,-,,Study/JOL,"Study Phase",1418,,,-1,-1,,,,1
982346DJ,fd2iyxikvm,Nick_Dissertation_EX1,1,63,2020-08-27T10:57:16-07:00,1.5516600608826,2,versionA_stim.csv,READVersionB.csv,"Read Version B","Dissertation, read only version B",ALONE,LONELY,Study2,S,145,157,Study,User,-,,Study/JOL,"Study Phase",1362,,,-1,-1,,,,1
982346DJ,fd2iyxikvm,Nick_Dissertation_EX1,1,64,2020-08-27T10:57:18-07:00,1.5523190498352,2,versionA_stim.csv,READVersionB.csv,"Read Version B","Dissertation, read only version B",RIGHTS,EQUAL,Study2,S,137,123,Study,User,-,,Study/JOL,"Study Phase",1377,,,-1,-1,,,,1
982346DJ,fd2iyxikvm,Nick_Dissertation_EX1,1,65,2020-08-27T10:57:19-07:00,1.5206210613251,2,versionA_stim.csv,READVersionB.csv,"Read Version B","Dissertation, read only version B",CHERRY,RED,Study2,F,104,134,Study,User,-,,Study/JOL,"Study Phase",1338,,,-1,-1,,,,1
982346DJ,fd2iyxikvm,Nick_Dissertation_EX1,1,66,2020-08-27T10:57:21-07:00,1.5191578865051,2,versionA_stim.csv,READVersionB.csv,"Read Version B","Dissertation, read only version B",MAZE,ELECTION,Study2,U,159,100,Study,User,-,,Study/JOL,"Study Phase",1234,,,-1,-1,,,,1
982346DJ,fd2iyxikvm,Nick_Dissertation_EX1,1,67,2020-08-27T10:57:22-07:00,1.664057970047,2,versionA_stim.csv,READVersionB.csv,"Read Version B","Dissertation, read only version B",THREAD,THIMBLE,Study2,B,121,152,Study,User,-,,Study/JOL,"Study Phase",1479,,,-1,-1,,,,1
982346DJ,fd2iyxikvm,Nick_Dissertation_EX1,1,68,2020-08-27T10:57:24-07:00,1.4498391151428,2,versionA_stim.csv,READVersionB.csv,"Read Version B","Dissertation, read only version B",CANDLE,WAX,Study2,S,139,106,Study,User,-,,Study/JOL,"Study Phase",1270,,,-1,-1,,,,1
982346DJ,fd2iyxikvm,Nick_Dissertation_EX1,1,69,2020-08-27T10:57:25-07:00,1.5662560462952,2,versionA_stim.csv,READVersionB.csv,"Read Version B","Dissertation, read only version B",DRIVER,CAR,Study2,F,106,173,Study,User,-,,Study/JOL,"Study Phase",1389,,,-1,-1,,,,1
982346DJ,fd2iyxikvm,Nick_Dissertation_EX1,1,70,2020-08-27T10:57:27-07:00,1.5675389766693,2,versionA_stim.csv,READVersionB.csv,"Read Version B","Dissertation, read only version B",STRETCH,CLOTH,Study2,U,157,102,Study,User,-,,Study/JOL,"Study Phase",1388,,,-1,-1,,,,1
982346DJ,fd2iyxikvm,Nick_Dissertation_EX1,1,71,2020-08-27T10:57:28-07:00,1.5131080150604,2,versionA_stim.csv,READVersionB.csv,"Read Version B","Dissertation, read only version B",MASON,JAR,Study2,S,138,113,Study,User,-,,Study/JOL,"Study Phase",1315,,,-1,-1,,,,1
982346DJ,fd2iyxikvm,Nick_Dissertation_EX1,1,72,2020-08-27T10:57:30-07:00,1.5749847888947,2,versionA_stim.csv,READVersionB.csv,"Read Version B","Dissertation, read only version B",NAME,HATE,Study2,U,167,168,Study,User,-,,Study/JOL,"Study Phase",1390,,,-1,-1,,,,1
982346DJ,fd2iyxikvm,Nick_Dissertation_EX1,1,73,2020-08-27T10:57:48-07:00,18.379054069519,2,versionA_stim.csv,READVersionB.csv,"Read Version B","Dissertation, read only version B",CAR,WINDSHIELD,Study2,B,117,98,Study,User,-,,Study/JOL,"Study Phase",18155,,,-1,-1,,,,1
982346DJ,fd2iyxikvm,Nick_Dissertation_EX1,1,74,2020-08-27T10:57:52-07:00,3.2227520942688,2,versionA_stim.csv,READVersionB.csv,"Read Version B","Dissertation, read only version B",CHOP,CUT,Study2,F,107,104,Study,User,-,,Study/JOL,"Study Phase",3000,,,-1,-1,,,,1
982346DJ,fd2iyxikvm,Nick_Dissertation_EX1,1,75,2020-08-27T10:58:16-07:00,24.185487031937,2,versionA_stim.csv,READVersionB.csv,"Read Version B","Dissertation, read only version B",FRUIT,STRAWBERRY,Study2,B,124,138,Study,User,-,,Study/JOL,"Study Phase",23958,,,-1,-1,,,,1
982346DJ,fd2iyxikvm,Nick_Dissertation_EX1,1,76,2020-08-27T10:58:25-07:00,9.3378989696503,2,versionA_stim.csv,READVersionB.csv,"Read Version B","Dissertation, read only version B",WRIST,BRACELET,Study2,S,140,142,Study,User,-,,Study/JOL,"Study Phase",9104,,,-1,-1,,,,1
982346DJ,fd2iyxikvm,Nick_Dissertation_EX1,1,77,2020-08-27T10:58:29-07:00,3.5199520587921,2,versionA_stim.csv,READVersionB.csv,"Read Version B","Dissertation, read only version B",FLEA,TICK,Study2,S,151,126,Study,User,-,,Study/JOL,"Study Phase",3294,,,-1,-1,,,,1
982346DJ,fd2iyxikvm,Nick_Dissertation_EX1,1,78,2020-08-27T10:58:32-07:00,3.0161049365997,2,versionA_stim.csv,READVersionB.csv,"Read Version B","Dissertation, read only version B",KEYS,JOKE,Study2,U,165,111,Study,User,-,,Study/JOL,"Study Phase",2780,,,-1,-1,,,,1
982346DJ,fd2iyxikvm,Nick_Dissertation_EX1,1,79,2020-08-27T10:58:35-07:00,3.284658908844,2,versionA_stim.csv,READVersionB.csv,"Read Version B","Dissertation, read only version B",FEUD,FIGHT,Study2,F,113,147,Study,User,-,,Study/JOL,"Study Phase",3053,,,-1,-1,,,,1
982346DJ,fd2iyxikvm,Nick_Dissertation_EX1,1,80,2020-08-27T10:58:37-07:00,2.1928050518036,2,versionA_stim.csv,READVersionB.csv,"Read Version B","Dissertation, read only version B",DRY,WET,Study2,S,146,174,Study,User,-,,Study/JOL,"Study Phase",1962,,,-1,-1,,,,1
982346DJ,fd2iyxikvm,Nick_Dissertation_EX1,1,81,2020-08-27T10:58:41-07:00,3.5357658863068,2,versionA_stim.csv,READVersionB.csv,"Read Version B","Dissertation, read only version B",FIGHT,BRAWL,Study2,B,135,132,Study,User,-,,Study/JOL,"Study Phase",3302,,,-1,-1,,,,1
982346DJ,fd2iyxikvm,Nick_Dissertation_EX1,1,82,2020-08-27T10:58:50-07:00,8.8318631649017,2,versionA_stim.csv,READVersionB.csv,"Read Version B","Dissertation, read only version B",TURN,FLIP,Study2,B,116,107,Study,User,-,,Study/JOL,"Study Phase",8597,,,-1,-1,,,,1
982346DJ,fd2iyxikvm,Nick_Dissertation_EX1,1,83,2020-08-27T10:58:52-07:00,2.4268419742584,2,versionA_stim.csv,READVersionB.csv,"Read Version B","Dissertation, read only version B",SAFETY,SEATBELT,Study2,S,147,110,Study,User,-,,Study/JOL,"Study Phase",2223,,,-1,-1,,,,1
982346DJ,fd2iyxikvm,Nick_Dissertation_EX1,1,84,2020-08-27T10:58:56-07:00,4.4678349494934,2,versionA_stim.csv,READVersionB.csv,"Read Version B","Dissertation, read only version B",CAKE,CLOTHES,Study2,U,166,145,Study,User,-,,Study/JOL,"Study Phase",4243,,,-1,-1,,,,1
982346DJ,fd2iyxikvm,Nick_Dissertation_EX1,1,85,2020-08-27T10:58:59-07:00,2.5587470531464,2,versionA_stim.csv,READVersionB.csv,"Read Version B","Dissertation, read only version B",CLUE,GAME,Study2,F,97,149,Study,User,-,,Study/JOL,"Study Phase",2349,,,-1,-1,,,,1
982346DJ,fd2iyxikvm,Nick_Dissertation_EX1,1,86,2020-08-27T10:59:01-07:00,2.1611878871918,2,versionA_stim.csv,READVersionB.csv,"Read Version B","Dissertation, read only version B",TRUTH,LIE,Study2,S,148,167,Study,User,-,,Study/JOL,"Study Phase",1908,,,-1,-1,,,,1
982346DJ,fd2iyxikvm,Nick_Dissertation_EX1,1,87,2020-08-27T10:59:03-07:00,2.2945430278778,2,versionA_stim.csv,READVersionB.csv,"Read Version B","Dissertation, read only version B",TOOL,SHED,BUFFER4,Buffer,178,180,Study,User,-,,Study/JOL,BUFFER2,2072,,,-1,-1,,,,1
982346DJ,fd2iyxikvm,Nick_Dissertation_EX1,1,88,2020-08-27T10:59:06-07:00,2.2329130172729,2,versionA_stim.csv,READVersionB.csv,"Read Version B","Dissertation, read only version B",DAYS,WEAKS,BUFFER4,Buffer,176,181,Study,User,-,,Study/JOL,BUFFER2,1995,,,-1,-1,,,,1
982346DJ,fd2iyxikvm,Nick_Dissertation_EX1,1,89,2020-08-27T10:59:08-07:00,2.4144439697266,2,versionA_stim.csv,READVersionB.csv,"Read Version B","Dissertation, read only version B",OCTOBER,SPOOKY,BUFFER4,Buffer,180,179,Study,User,-,,Study/JOL,BUFFER2,2184,,,-1,-1,,,,1
982346DJ,fd2iyxikvm,Nick_Dissertation_EX1,1,90,2020-08-27T10:59:10-07:00,2.1833081245422,2,versionA_stim.csv,READVersionB.csv,"Read Version B","Dissertation, read only version B",MONTH,YEAR,BUFFER4,Buffer,177,177,Study,User,-,,Study/JOL,BUFFER2,1953,,,-1,-1,,,,1
982346DJ,fd2iyxikvm,Nick_Dissertation_EX1,1,91,2020-08-27T10:59:39-07:00,28.91054391861,2,versionA_stim.csv,READVersionB.csv,"Read Version B","Dissertation, read only version B",SPRING,MARCH,BUFFER4,Buffer,179,178,Study,User,-,,Study/JOL,BUFFER2,28686,,,-1,-1,,,,1
982346DJ,fd2iyxikvm,Nick_Dissertation_EX1,1,92,2020-08-27T10:59:42-07:00,2.85187292099,2,versionA_stim.csv,READVersionB.csv,"Read Version B","Dissertation, read only version B",,,,,,0,Instruct,User,-,"You have completed this section. Please press Enter.",Filler_Instruction,Instruct2,2624,,,-1,-1,,,,1
982346DJ,fd2iyxikvm,Nick_Dissertation_EX1,1,93,2020-08-27T11:01:42-07:00,120.27118301392,2,versionA_stim.csv,READVersionB.csv,"Read Version B","Dissertation, read only version B",,,,,,0,FreeRecall,120,120,"Please list the 50 US states in alphabetical order. The task will automatically advance to the next screen after two minutes.",,Filler1,120031,"Alabama Alaska Arizona Arkansas California Colorado Connecticut Delaware Florida Georgia Hawaii Idaho Illinois Indiana Iowa Kansas Kentucky Louisiana Maine ",0,30824,119278,0,0,,1
982346DJ,fd2iyxikvm,Nick_Dissertation_EX1,1,94,2020-08-27T11:01:58-07:00,15.893462181091,2,versionA_stim.csv,READVersionB.csv,"Read Version B","Dissertation, read only version B",,,,,,0,Instruct,-,10,"You will now be presented with the first word from each of the previously studied item pairs. Please type the missing word. If you do not know the word, you may guess or press Enter to skip forward to the next pair.",,Instruct3,15637,,,-1,-1,,,,1
982346DJ,fd2iyxikvm,Nick_Dissertation_EX1,1,95,2020-08-27T11:02:05-07:00,6.3411388397217,2,versionA_stim.csv,READVersionB.csv,"Read Version B","Dissertation, read only version B",GLASS,BREAKABLE,Study2,B,127,136,Test,User,-,,Recall,Recall1,6109,Breakable,100,2850,5913,1,1,,1
982346DJ,fd2iyxikvm,Nick_Dissertation_EX1,1,96,2020-08-27T11:02:15-07:00,10.84992814064,2,versionA_stim.csv,READVersionB.csv,"Read Version B","Dissertation, read only version B",NAME,HATE,Study2,U,167,168,Test,User,-,,Recall,Recall1,10598,person,20,1692,2522,0,0,,1
982346DJ,fd2iyxikvm,Nick_Dissertation_EX1,1,97,2020-08-27T11:02:59-07:00,43.496131896973,2,versionA_stim.csv,READVersionB.csv,"Read Version B","Dissertation, read only version B",CAR,WINDSHIELD,Study2,B,117,98,Test,User,-,,Recall,Recall1,43254,"vehicle ",35.294117647059,41221,42889,0,0,,1
982346DJ,fd2iyxikvm,Nick_Dissertation_EX1,1,98,2020-08-27T11:03:04-07:00,5.192330121994,2,versionA_stim.csv,READVersionB.csv,"Read Version B","Dissertation, read only version B",SAFETY,SEATBELT,Study2,S,147,110,Test,User,-,,Recall,Recall1,4949,measures,37.5,3275,4801,0,0,,1
982346DJ,fd2iyxikvm,Nick_Dissertation_EX1,1,99,2020-08-27T11:03:15-07:00,10.636560916901,2,versionA_stim.csv,READVersionB.csv,"Read Version B","Dissertation, read only version B",SHOELACE,TIE,Study2,F,99,105,Test,User,-,,Recall,Recall1,10415,string,44.444444444444,8312,10196,0,0,,1
982346DJ,fd2iyxikvm,Nick_Dissertation_EX1,1,100,2020-08-27T11:03:20-07:00,4.8614659309387,2,versionA_stim.csv,READVersionB.csv,"Read Version B","Dissertation, read only version B",FEUD,FIGHT,Study2,F,113,147,Test,User,-,,Recall,Recall1,4589,fight,100,4004,4426,1,1,,1
982346DJ,fd2iyxikvm,Nick_Dissertation_EX1,1,101,2020-08-27T11:03:26-07:00,6.0281591415405,2,versionA_stim.csv,READVersionB.csv,"Read Version B","Dissertation, read only version B",EVEN,REVENGE,Study2,B,122,160,Test,User,-,,Recall,Recall1,5755,odd,0,5276,5618,0,0,,1
982346DJ,fd2iyxikvm,Nick_Dissertation_EX1,1,102,2020-08-27T11:03:28-07:00,2.5038800239563,2,versionA_stim.csv,READVersionB.csv,"Read Version B","Dissertation, read only version B",MEAT,OBTAIN,Study2,U,161,153,Test,User,-,,Recall,Recall1,2251,obtain,100,1194,1929,1,1,,1
982346DJ,fd2iyxikvm,Nick_Dissertation_EX1,1,103,2020-08-27T11:03:44-07:00,15.83108496666,2,versionA_stim.csv,READVersionB.csv,"Read Version B","Dissertation, read only version B",CRACKLE,ABLE,Study2,U,162,137,Test,User,-,,Recall,Recall1,15574,able,100,15029,15362,1,1,,1
982346DJ,fd2iyxikvm,Nick_Dissertation_EX1,1,104,2020-08-27T11:03:47-07:00,2.6303079128265,2,versionA_stim.csv,READVersionB.csv,"Read Version B","Dissertation, read only version B",MULE,DONKEY,Study2,F,108,130,Test,User,-,,Recall,Recall1,2367,donkey,100,1445,2060,1,1,,1
982346DJ,fd2iyxikvm,Nick_Dissertation_EX1,1,105,2020-08-27T11:03:49-07:00,2.9338629245758,2,versionA_stim.csv,READVersionB.csv,"Read Version B","Dissertation, read only version B",MONEY,BANKER,Study2,B,132,114,Test,User,-,,Recall,Recall1,2658,banker,100,1914,2495,1,1,,1
982346DJ,fd2iyxikvm,Nick_Dissertation_EX1,1,106,2020-08-27T11:04:18-07:00,28.669584989548,2,versionA_stim.csv,READVersionB.csv,"Read Version B","Dissertation, read only version B",PHONE,COMMUNICATION,Study2,S,149,170,Test,User,-,,Recall,Recall1,28441,bill,11.764705882353,27471,28157,0,0,,1
982346DJ,fd2iyxikvm,Nick_Dissertation_EX1,1,107,2020-08-27T11:04:20-07:00,2.2215721607208,2,versionA_stim.csv,READVersionB.csv,"Read Version B","Dissertation, read only version B",CACTUS,PLANT,Study2,F,98,146,Test,User,-,,Recall,Recall1,1955,plan,88.888888888889,1209,1719,0,1,,1
982346DJ,fd2iyxikvm,Nick_Dissertation_EX1,1,108,2020-08-27T11:04:36-07:00,15.817019939423,2,versionA_stim.csv,READVersionB.csv,"Read Version B","Dissertation, read only version B",DETECTIVE,MYSTERY,Study2,F,100,99,Test,User,-,,Recall,Recall1,15535,murder,46.153846153846,2749,15323,0,0,,1
982346DJ,fd2iyxikvm,Nick_Dissertation_EX1,1,109,2020-08-27T11:04:43-07:00,6.6047968864441,2,versionA_stim.csv,READVersionB.csv,"Read Version B","Dissertation, read only version B",Shell,SHAKE,Study2,U,163,103,Test,User,-,,Recall,Recall1,6350,shake,100,5700,6186,1,1,,1
982346DJ,fd2iyxikvm,Nick_Dissertation_EX1,1,110,2020-08-27T11:04:51-07:00,7.9716701507568,2,versionA_stim.csv,READVersionB.csv,"Read Version B","Dissertation, read only version B",MAIN,SCAR,Study2,U,175,117,Test,User,-,,Recall,Recall1,7694,event,0,7077,7506,0,0,,1
982346DJ,fd2iyxikvm,Nick_Dissertation_EX1,1,111,2020-08-27T11:04:57-07:00,5.9095208644867,2,versionA_stim.csv,READVersionB.csv,"Read Version B","Dissertation, read only version B",BASEBALL,LEAGUE,Study2,B,131,135,Test,User,-,,Recall,Recall1,5665,team,40,4991,5502,0,0,,1
982346DJ,fd2iyxikvm,Nick_Dissertation_EX1,1,112,2020-08-27T11:05:00-07:00,2.8560390472412,2,versionA_stim.csv,READVersionB.csv,"Read Version B","Dissertation, read only version B",ELEMENT,CARBON,Study2,S,141,101,Test,User,-,,Recall,Recall1,2528,"carbon ",100,1542,2404,1,1,,1
982346DJ,fd2iyxikvm,Nick_Dissertation_EX1,1,113,2020-08-27T11:05:06-07:00,6.8079280853271,2,versionA_stim.csv,READVersionB.csv,"Read Version B","Dissertation, read only version B",GONE,AWAY,Study2,S,142,154,Test,User,-,,Recall,Recall1,6479,away,100,5725,6274,1,1,,1
982346DJ,fd2iyxikvm,Nick_Dissertation_EX1,1,114,2020-08-27T11:05:10-07:00,3.357962846756,2,versionA_stim.csv,READVersionB.csv,"Read Version B","Dissertation, read only version B",JUSTICE,MAROON,Study2,U,156,161,Test,User,-,,Recall,Recall1,2763,peace,18.181818181818,2008,2678,0,0,,1
982346DJ,fd2iyxikvm,Nick_Dissertation_EX1,1,115,2020-08-27T11:05:15-07:00,5.4093852043152,2,versionA_stim.csv,READVersionB.csv,"Read Version B","Dissertation, read only version B",SHEARS,SCISSORS,Study2,F,112,129,Test,User,-,,Recall,Recall1,5142,scissors,100,3867,5025,1,1,,1
982346DJ,fd2iyxikvm,Nick_Dissertation_EX1,1,116,2020-08-27T11:05:18-07:00,3.2930128574371,2,versionA_stim.csv,READVersionB.csv,"Read Version B","Dissertation, read only version B",LITTER,TRASH,Study2,F,103,155,Test,User,-,,Recall,Recall1,2876,trash,100,1953,2662,1,1,,1
982346DJ,fd2iyxikvm,Nick_Dissertation_EX1,1,117,2020-08-27T11:05:25-07:00,6.1095011234283,2,versionA_stim.csv,READVersionB.csv,"Read Version B","Dissertation, read only version B",ADJOURN,END,Study2,F,101,156,Test,User,-,,Recall,Recall1,5287,end,100,4739,5057,1,1,,1
982346DJ,fd2iyxikvm,Nick_Dissertation_EX1,1,118,2020-08-27T11:05:39-07:00,14.524890899658,2,versionA_stim.csv,READVersionB.csv,"Read Version B","Dissertation, read only version B",FUZZY,BANG,Study2,U,168,175,Test,User,-,,Recall,Recall1,11989,bang,100,11475,11839,1,1,,1
982346DJ,fd2iyxikvm,Nick_Dissertation_EX1,1,119,2020-08-27T11:05:43-07:00,3.889053106308,2,versionA_stim.csv,READVersionB.csv,"Read Version B","Dissertation, read only version B",ALONE,LONELY,Study2,S,145,157,Test,User,-,,Recall,Recall1,3544,lonely,100,1406,3428,1,1,,1
982346DJ,fd2iyxikvm,Nick_Dissertation_EX1,1,120,2020-08-27T11:05:47-07:00,3.7854390144348,2,versionA_stim.csv,READVersionB.csv,"Read Version B","Dissertation, read only version B",DRIVER,CAR,Study2,F,106,173,Test,User,-,,Recall,Recall1,3460,liscense,18.181818181818,2130,3352,0,0,,1
982346DJ,fd2iyxikvm,Nick_Dissertation_EX1,1,121,2020-08-27T11:05:51-07:00,4.5434839725494,2,versionA_stim.csv,READVersionB.csv,"Read Version B","Dissertation, read only version B",TURN,FLIP,Study2,B,116,107,Test,User,-,,Recall,Recall1,4240,away,0,3262,3933,0,0,,1
982346DJ,fd2iyxikvm,Nick_Dissertation_EX1,1,122,2020-08-27T11:06:00-07:00,8.9931149482727,2,versionA_stim.csv,READVersionB.csv,"Read Version B","Dissertation, read only version B",CHERRY,RED,Study2,F,104,134,Test,User,-,,Recall,Recall1,8707,red,100,7489,8590,1,1,,1
982346DJ,fd2iyxikvm,Nick_Dissertation_EX1,1,123,2020-08-27T11:06:11-07:00,10.429125070572,2,versionA_stim.csv,READVersionB.csv,"Read Version B","Dissertation, read only version B",TRUTH,LIE,Study2,S,148,167,Test,User,-,,Recall,Recall1,10136,faithfu;,18.181818181818,8422,9786,0,0,,1
982346DJ,fd2iyxikvm,Nick_Dissertation_EX1,1,124,2020-08-27T11:06:21-07:00,10.204592943192,2,versionA_stim.csv,READVersionB.csv,"Read Version B","Dissertation, read only version B",TEMPERATURE,Morning,Study2,U,173,109,Test,User,-,,Recall,Recall1,9876,,0,-1,-1,0,0,,1
982346DJ,fd2iyxikvm,Nick_Dissertation_EX1,1,125,2020-08-27T11:06:37-07:00,15.754978895187,2,versionA_stim.csv,READVersionB.csv,"Read Version B","Dissertation, read only version B",BAD,VILLAIN,Study2,B,118,171,Test,User,-,,Recall,Recall1,15378,villian,85.714285714286,12937,15223,0,1,,1
982346DJ,fd2iyxikvm,Nick_Dissertation_EX1,1,126,2020-08-27T11:06:41-07:00,4.2433080673218,2,versionA_stim.csv,READVersionB.csv,"Read Version B","Dissertation, read only version B",DEAD,COFFIN,Study2,B,128,164,Test,User,-,,Recall,Recall1,3928,coffin,100,3110,3748,1,1,,1
982346DJ,fd2iyxikvm,Nick_Dissertation_EX1,1,127,2020-08-27T11:06:44-07:00,3.0597999095917,2,versionA_stim.csv,READVersionB.csv,"Read Version B","Dissertation, read only version B",STAR,ACTRESS,Study2,B,120,128,Test,User,-,,Recall,Recall1,2784,spangled,13.333333333333,1598,2676,0,0,,1
982346DJ,fd2iyxikvm,Nick_Dissertation_EX1,1,128,2020-08-27T11:06:46-07:00,2.4470372200012,2,versionA_stim.csv,READVersionB.csv,"Read Version B","Dissertation, read only version B",LOUD,NOISE,Study2,S,152,172,Test,User,-,,Recall,Recall1,2165,noise,100,1051,1672,1,1,,1
982346DJ,fd2iyxikvm,Nick_Dissertation_EX1,1,129,2020-08-27T11:06:53-07:00,6.1482179164886,2,versionA_stim.csv,READVersionB.csv,"Read Version B","Dissertation, read only version B",BEST,FAVORITE,Study2,B,125,148,Test,User,-,,Recall,Recall1,5803,good,16.666666666667,5299,5688,0,0,,1
982346DJ,fd2iyxikvm,Nick_Dissertation_EX1,1,130,2020-08-27T11:06:59-07:00,6.244215965271,2,versionA_stim.csv,READVersionB.csv,"Read Version B","Dissertation, read only version B",LEASE,TOIL,Study2,U,170,112,Test,User,-,,Recall,Recall1,5868,rent,25,1489,5720,0,0,,1
982346DJ,fd2iyxikvm,Nick_Dissertation_EX1,1,131,2020-08-27T11:07:01-07:00,1.989443063736,2,versionA_stim.csv,READVersionB.csv,"Read Version B","Dissertation, read only version B",LOAN,SIGN,Study2,U,171,139,Test,User,-,,Recall,Recall1,1692,money,22.222222222222,1082,1576,0,0,,1
982346DJ,fd2iyxikvm,Nick_Dissertation_EX1,1,132,2020-08-27T11:07:03-07:00,2.0515370368958,2,versionA_stim.csv,READVersionB.csv,"Read Version B","Dissertation, read only version B",DRY,WET,Study2,S,146,174,Test,User,-,,Recall,Recall1,1769,wet,100,1152,1486,1,1,,1
982346DJ,fd2iyxikvm,Nick_Dissertation_EX1,1,133,2020-08-27T11:07:06-07:00,3.0856139659882,2,versionA_stim.csv,READVersionB.csv,"Read Version B","Dissertation, read only version B",MIRROR,CHILDREN,Study2,U,174,97,Test,User,-,,Recall,Recall1,2806,chidlren,87.5,1085,2098,0,1,,1
982346DJ,fd2iyxikvm,Nick_Dissertation_EX1,1,134,2020-08-27T11:07:11-07:00,5.091826915741,2,versionA_stim.csv,READVersionB.csv,"Read Version B","Dissertation, read only version B",FISH,SARDINE,Study2,B,130,108,Test,User,-,,Recall,Recall1,4786,sardine,100,1791,4660,1,1,,1
982346DJ,fd2iyxikvm,Nick_Dissertation_EX1,1,135,2020-08-27T11:07:14-07:00,2.9461860656738,2,versionA_stim.csv,READVersionB.csv,"Read Version B","Dissertation, read only version B",STRETCH,CLOTH,Study2,U,157,102,Test,User,-,,Recall,Recall1,2662,band,0,2177,2504,0,0,,1
982346DJ,fd2iyxikvm,Nick_Dissertation_EX1,1,136,2020-08-27T11:07:16-07:00,2.2201020717621,2,versionA_stim.csv,READVersionB.csv,"Read Version B","Dissertation, read only version B",KEYS,JOKE,Study2,U,165,111,Test,User,-,,Recall,Recall1,1900,house,44.444444444444,1160,1766,0,0,,1
982346DJ,fd2iyxikvm,Nick_Dissertation_EX1,1,137,2020-08-27T11:07:18-07:00,1.9916648864746,2,versionA_stim.csv,READVersionB.csv,"Read Version B","Dissertation, read only version B",VEHICLE,CHARM,Study2,U,160,151,Test,User,-,,Recall,Recall1,1745,car,75,1303,1606,0,1,,1
982346DJ,fd2iyxikvm,Nick_Dissertation_EX1,1,138,2020-08-27T11:07:26-07:00,7.3831961154938,2,versionA_stim.csv,READVersionB.csv,"Read Version B","Dissertation, read only version B",EXTENSION,LONG,Study2,F,96,144,Test,User,-,,Recall,Recall1,6959,idk,0,6541,6778,0,0,,1
982346DJ,fd2iyxikvm,Nick_Dissertation_EX1,1,139,2020-08-27T11:07:28-07:00,2.6350879669189,2,versionA_stim.csv,READVersionB.csv,"Read Version B","Dissertation, read only version B",DOCUMENT,PAPER,Study2,F,109,131,Test,User,-,,Recall,Recall1,2266,paper,100,1176,2166,1,1,,1
982346DJ,fd2iyxikvm,Nick_Dissertation_EX1,1,140,2020-08-27T11:07:31-07:00,2.4137969017029,2,versionA_stim.csv,READVersionB.csv,"Read Version B","Dissertation, read only version B",OWN,HAVE,Study2,S,153,121,Test,User,-,,Recall,Recall1,2110,mine,25,1645,2011,0,0,,1
982346DJ,fd2iyxikvm,Nick_Dissertation_EX1,1,141,2020-08-27T11:07:34-07:00,3.1662619113922,2,versionA_stim.csv,READVersionB.csv,"Read Version B","Dissertation, read only version B",INCENSE,SMELL,Study2,F,110,140,Test,User,-,,Recall,Recall1,2818,smell,100,2177,2671,1,1,,1
982346DJ,fd2iyxikvm,Nick_Dissertation_EX1,1,142,2020-08-27T11:07:41-07:00,7.5751750469208,2,versionA_stim.csv,READVersionB.csv,"Read Version B","Dissertation, read only version B",FIGHT,BRAWL,Study2,B,135,132,Test,User,-,,Recall,Recall1,7250,war,25,6737,7095,0,0,,1
982346DJ,fd2iyxikvm,Nick_Dissertation_EX1,1,143,2020-08-27T11:07:44-07:00,3.0907180309296,2,versionA_stim.csv,READVersionB.csv,"Read Version B","Dissertation, read only version B",CAKE,CLOTHES,Study2,U,166,145,Test,User,-,,Recall,Recall1,2757,cookie,46.153846153846,1700,2603,0,0,,1
982346DJ,fd2iyxikvm,Nick_Dissertation_EX1,1,144,2020-08-27T11:07:47-07:00,2.5409450531006,2,versionA_stim.csv,READVersionB.csv,"Read Version B","Dissertation, read only version B",SUN,TAN,Study2,S,155,169,Test,User,-,,Recall,Recall1,2238,hot,33.333333333333,1732,2042,0,0,,1
982346DJ,fd2iyxikvm,Nick_Dissertation_EX1,1,145,2020-08-27T11:07:49-07:00,1.8124449253082,2,versionA_stim.csv,READVersionB.csv,"Read Version B","Dissertation, read only version B",RAZOR,SHAVE,Study2,S,136,127,Test,User,-,,Recall,Recall1,1538,shave,100,970,1391,1,1,,1
982346DJ,fd2iyxikvm,Nick_Dissertation_EX1,1,146,2020-08-27T11:07:52-07:00,3.5842411518097,2,versionA_stim.csv,READVersionB.csv,"Read Version B","Dissertation, read only version B",LISTEN,FICTION,Study2,U,164,141,Test,User,-,,Recall,Recall1,3289,hear,0,2807,3245,0,0,,1
982346DJ,fd2iyxikvm,Nick_Dissertation_EX1,1,147,2020-08-27T11:07:59-07:00,6.1744627952576,2,versionA_stim.csv,READVersionB.csv,"Read Version B","Dissertation, read only version B",BOTH,OUNCE,Study2,U,172,133,Test,User,-,,Recall,Recall1,5901,obtain,36.363636363636,5060,5729,0,0,,1
982346DJ,fd2iyxikvm,Nick_Dissertation_EX1,1,148,2020-08-27T11:08:01-07:00,2.2304410934448,2,versionA_stim.csv,READVersionB.csv,"Read Version B","Dissertation, read only version B",BIRD,PENGUIN,Study2,B,119,120,Test,User,-,,Recall,Recall1,1936,fly,0,1486,1806,0,0,,1
982346DJ,fd2iyxikvm,Nick_Dissertation_EX1,1,149,2020-08-27T11:08:03-07:00,1.9124739170074,2,versionA_stim.csv,READVersionB.csv,"Read Version B","Dissertation, read only version B",DINE,EAT,Study2,F,111,122,Test,User,-,,Recall,Recall1,1655,eat,100,1198,1516,1,1,,1
982346DJ,fd2iyxikvm,Nick_Dissertation_EX1,1,150,2020-08-27T11:08:07-07:00,4.4868102073669,2,versionA_stim.csv,READVersionB.csv,"Read Version B","Dissertation, read only version B",THREAD,THIMBLE,Study2,B,121,152,Test,User,-,,Recall,Recall1,4177,sew,20,3600,4063,0,0,,1
982346DJ,fd2iyxikvm,Nick_Dissertation_EX1,1,151,2020-08-27T11:08:11-07:00,3.9013288021088,2,versionA_stim.csv,READVersionB.csv,"Read Version B","Dissertation, read only version B",RIGHTS,EQUAL,Study2,S,137,123,Test,User,-,,Recall,Recall1,3580,liberty,16.666666666667,2315,3313,0,0,,1
982346DJ,fd2iyxikvm,Nick_Dissertation_EX1,1,152,2020-08-27T11:08:14-07:00,2.756019115448,2,versionA_stim.csv,READVersionB.csv,"Read Version B","Dissertation, read only version B",MOAT,CLEAR,Study2,U,169,124,Test,User,-,,Recall,Recall1,2454,goat,22.222222222222,1924,2306,0,0,,1
982346DJ,fd2iyxikvm,Nick_Dissertation_EX1,1,153,2020-08-27T11:08:16-07:00,2.38227891922,2,versionA_stim.csv,READVersionB.csv,"Read Version B","Dissertation, read only version B",CANDLE,WAX,Study2,S,139,106,Test,User,-,,Recall,Recall1,2075,light,0,1448,1950,0,0,,1
982346DJ,fd2iyxikvm,Nick_Dissertation_EX1,1,154,2020-08-27T11:08:20-07:00,3.6549170017242,2,versionA_stim.csv,READVersionB.csv,"Read Version B","Dissertation, read only version B",PLANE,AIRCRAFT,Study2,B,129,143,Test,User,-,,Recall,Recall1,3301,aircraft,100,979,3161,1,1,,1
982346DJ,fd2iyxikvm,Nick_Dissertation_EX1,1,155,2020-08-27T11:08:24-07:00,3.8799049854279,2,versionA_stim.csv,READVersionB.csv,"Read Version B","Dissertation, read only version B",SLEEP,NAP,Study2,B,134,115,Test,User,-,,Recall,Recall1,3522,tired,0,2721,3454,0,0,,1
982346DJ,fd2iyxikvm,Nick_Dissertation_EX1,1,156,2020-08-27T11:08:27-07:00,3.2269930839539,2,versionA_stim.csv,READVersionB.csv,"Read Version B","Dissertation, read only version B",FRUIT,STRAWBERRY,Study2,B,124,138,Test,User,-,,Recall,Recall1,3016,strawberry,100,966,2731,1,1,,1
982346DJ,fd2iyxikvm,Nick_Dissertation_EX1,1,157,2020-08-27T11:08:29-07:00,1.8414499759674,2,versionA_stim.csv,READVersionB.csv,"Read Version B","Dissertation, read only version B",SCALP,HEAD,Study2,F,105,116,Test,User,-,,Recall,Recall1,1601,head,100,941,1476,1,1,,1
982346DJ,fd2iyxikvm,Nick_Dissertation_EX1,1,158,2020-08-27T11:08:31-07:00,2.4706749916077,2,versionA_stim.csv,READVersionB.csv,"Read Version B","Dissertation, read only version B",FLEA,TICK,Study2,S,151,126,Test,User,-,,Recall,Recall1,2117,tick,100,1548,1930,1,1,,1
982346DJ,fd2iyxikvm,Nick_Dissertation_EX1,1,159,2020-08-27T11:08:38-07:00,7.0155560970306,2,versionA_stim.csv,READVersionB.csv,"Read Version B","Dissertation, read only version B",CLUE,GAME,Study2,F,97,149,Test,User,-,,Recall,Recall1,6706,hint,0,6247,6597,0,0,,1
982346DJ,fd2iyxikvm,Nick_Dissertation_EX1,1,160,2020-08-27T11:08:41-07:00,2.8255438804626,2,versionA_stim.csv,READVersionB.csv,"Read Version B","Dissertation, read only version B",CAT,PANTHER,Study2,B,126,165,Test,User,-,,Recall,Recall1,2031,dog,0,1694,1916,0,0,,1
982346DJ,fd2iyxikvm,Nick_Dissertation_EX1,1,161,2020-08-27T11:08:48-07:00,6.627916097641,2,versionA_stim.csv,READVersionB.csv,"Read Version B","Dissertation, read only version B",EARTH,GROUND,Study2,S,144,119,Test,User,-,,Recall,Recall1,6347,heath,0,5289,6119,0,0,,1
982346DJ,fd2iyxikvm,Nick_Dissertation_EX1,1,162,2020-08-27T11:08:50-07:00,2.5824120044708,2,versionA_stim.csv,READVersionB.csv,"Read Version B","Dissertation, read only version B",CHILL,COLD,Study2,F,114,159,Test,User,-,,Recall,Recall1,1912,cold,100,1053,1747,1,1,,1
982346DJ,fd2iyxikvm,Nick_Dissertation_EX1,1,163,2020-08-27T11:08:55-07:00,5.0482618808746,2,versionA_stim.csv,READVersionB.csv,"Read Version B","Dissertation, read only version B",POP,BALLOON,Study2,B,123,176,Test,User,-,,Recall,Recall1,4765,baloom,76.923076923077,1324,4585,0,1,,1
982346DJ,fd2iyxikvm,Nick_Dissertation_EX1,1,164,2020-08-27T11:08:58-07:00,2.2729239463806,2,versionA_stim.csv,READVersionB.csv,"Read Version B","Dissertation, read only version B",GIVE,STEAK,Study2,U,158,158,Test,User,-,,Recall,Recall1,1933,take,66.666666666667,1435,1786,0,0,,1
982346DJ,fd2iyxikvm,Nick_Dissertation_EX1,1,165,2020-08-27T11:09:01-07:00,3.0101170539856,2,versionA_stim.csv,READVersionB.csv,"Read Version B","Dissertation, read only version B",CHOP,CUT,Study2,F,107,104,Test,User,-,,Recall,Recall1,2698,down,0,1352,2470,0,0,,1
982346DJ,fd2iyxikvm,Nick_Dissertation_EX1,1,166,2020-08-27T11:09:05-07:00,3.9906809329987,2,versionA_stim.csv,READVersionB.csv,"Read Version B","Dissertation, read only version B",FURRY,DOG,Study2,F,102,162,Test,User,-,,Recall,Recall1,3692,dog,100,3330,3544,1,1,,1
982346DJ,fd2iyxikvm,Nick_Dissertation_EX1,1,167,2020-08-27T11:09:07-07:00,1.8815851211548,2,versionA_stim.csv,READVersionB.csv,"Read Version B","Dissertation, read only version B",MASON,JAR,Study2,S,138,113,Test,User,-,,Recall,Recall1,1666,jar,100,1329,1519,1,1,,1
982346DJ,fd2iyxikvm,Nick_Dissertation_EX1,1,168,2020-08-27T11:09:11-07:00,4.3582780361176,2,versionA_stim.csv,READVersionB.csv,"Read Version B","Dissertation, read only version B",ROD,REEL,Study2,S,150,118,Test,User,-,,Recall,Recall1,4060,reel,100,2899,3904,1,1,,1
982346DJ,fd2iyxikvm,Nick_Dissertation_EX1,1,169,2020-08-27T11:09:17-07:00,5.7136900424957,2,versionA_stim.csv,READVersionB.csv,"Read Version B","Dissertation, read only version B",AFFECTION,LOVE,Study2,F,115,166,Test,User,-,,Recall,Recall1,5430,love,100,4835,5329,1,1,,1
982346DJ,fd2iyxikvm,Nick_Dissertation_EX1,1,170,2020-08-27T11:09:21-07:00,4.1795508861542,2,versionA_stim.csv,READVersionB.csv,"Read Version B","Dissertation, read only version B",MAZE,ELECTION,Study2,U,159,100,Test,User,-,,Recall,Recall1,3837,trail,30.769230769231,2049,3601,0,0,,1
982346DJ,fd2iyxikvm,Nick_Dissertation_EX1,1,171,2020-08-27T11:09:23-07:00,1.9622521400452,2,versionA_stim.csv,READVersionB.csv,"Read Version B","Dissertation, read only version B",HONEST,TRUTHFUL,Study2,B,133,163,Test,User,-,,Recall,Recall1,1707,truth,76.923076923077,962,1415,0,1,,1
982346DJ,fd2iyxikvm,Nick_Dissertation_EX1,1,172,2020-08-27T11:09:29-07:00,6.7104539871216,2,versionA_stim.csv,READVersionB.csv,"Read Version B","Dissertation, read only version B",TANTRUM,TEMPER,Study2,S,154,125,Test,User,-,,Recall,Recall1,6416,temper,100,5558,6284,1,1,,1
982346DJ,fd2iyxikvm,Nick_Dissertation_EX1,1,173,2020-08-27T11:09:45-07:00,15.132682800293,2,versionA_stim.csv,READVersionB.csv,"Read Version B","Dissertation, read only version B",WRIST,BRACELET,Study2,S,140,142,Test,User,-,,Recall,Recall1,14860,,0,-1,-1,0,0,,1
982346DJ,fd2iyxikvm,Nick_Dissertation_EX1,1,174,2020-08-27T11:09:47-07:00,2.4449729919434,2,versionA_stim.csv,READVersionB.csv,"Read Version B","Dissertation, read only version B",WATER,DRINK,Study2,S,143,150,Test,User,-,,Recall,Recall1,2182,drink,100,1317,1923,1,1,,1
982346DJ,fd2iyxikvm,Nick_Dissertation_EX1,1,175,2020-08-27T11:10:02-07:00,15.06177520752,2,versionA_stim.csv,READVersionB.csv,"Read Version B","Dissertation, read only version B",,,,,,0,Instruct,-,10,"You will now be presented with a new set of word pairs. Please study each pair. Remember that your memory will be tested! When finished, press Enter to move to the next pair.",Initial_Instruct,Instruct4,14791,,,-1,-1,,,,1
982346DJ,fd2iyxikvm,Nick_Dissertation_EX1,1,176,2020-08-27T11:10:10-07:00,7.5529308319092,2,versionA_stim.csv,READVersionB.csv,"Read Version B","Dissertation, read only version B",SCARE,HIDE,BUFFER1,Buffer,4,6,Study,User,-,,Study/JOL,BUFFER3,7237,,,-1,-1,,,,1
982346DJ,fd2iyxikvm,Nick_Dissertation_EX1,1,177,2020-08-27T11:10:16-07:00,6.6352591514587,2,versionA_stim.csv,READVersionB.csv,"Read Version B","Dissertation, read only version B",TREES,GREEN,BUFFER1,Buffer,1,4,Study,User,-,,Study/JOL,BUFFER3,6298,,,-1,-1,,,,1
982346DJ,fd2iyxikvm,Nick_Dissertation_EX1,1,178,2020-08-27T11:10:24-07:00,7.3658888339996,2,versionA_stim.csv,READVersionB.csv,"Read Version B","Dissertation, read only version B",PEANUT,BUTTER,BUFFER1,Buffer,3,2,Study,User,-,,Study/JOL,BUFFER3,7019,,,-1,-1,,,,1
982346DJ,fd2iyxikvm,Nick_Dissertation_EX1,1,179,2020-08-27T11:10:30-07:00,6.5707151889801,2,versionA_stim.csv,READVersionB.csv,"Read Version B","Dissertation, read only version B",SPACE,JAM,BUFFER1,Buffer,5,5,Study,User,-,,Study/JOL,BUFFER3,6197,,,-1,-1,,,,1
982346DJ,fd2iyxikvm,Nick_Dissertation_EX1,1,180,2020-08-27T11:10:39-07:00,8.4775738716125,2,versionA_stim.csv,READVersionB.csv,"Read Version B","Dissertation, read only version B",BASEBALL,CATCHER,BUFFER1,Buffer,2,3,Study,User,-,,Study/JOL,BUFFER3,8144,,,-1,-1,,,,1
982346DJ,fd2iyxikvm,Nick_Dissertation_EX1,1,181,2020-08-27T11:11:37-07:00,58.011258125305,2,versionA_stim.csv,READVersionB.csv,"Read Version B","Dissertation, read only version B",DIGESTION,STOMACH,Study1,F,7,49,Study,User,-,,Study/JOL,"Study Phase2",57738,,,-1,-1,,,,1
982346DJ,fd2iyxikvm,Nick_Dissertation_EX1,1,182,2020-08-27T11:11:44-07:00,7.7334649562836,2,versionA_stim.csv,READVersionB.csv,"Read Version B","Dissertation, read only version B",CIRCLE,ROUND,Study1,S,65,38,Study,User,-,,Study/JOL,"Study Phase2",7454,,,-1,-1,,,,1
982346DJ,fd2iyxikvm,Nick_Dissertation_EX1,1,183,2020-08-27T11:11:50-07:00,5.881824016571,2,versionA_stim.csv,READVersionB.csv,"Read Version B","Dissertation, read only version B",HAPPY,CAR,Study1,U,77,48,Study,User,-,,Study/JOL,"Study Phase2",5613,,,-1,-1,,,,1
982346DJ,fd2iyxikvm,Nick_Dissertation_EX1,1,184,2020-08-27T11:11:56-07:00,5.7510130405426,2,versionA_stim.csv,READVersionB.csv,"Read Version B","Dissertation, read only version B",HERD,COW,Study1,F,22,47,Study,User,-,,Study/JOL,"Study Phase2",5420,,,-1,-1,,,,1
982346DJ,fd2iyxikvm,Nick_Dissertation_EX1,1,185,2020-08-27T11:12:02-07:00,5.8210108280182,2,versionA_stim.csv,READVersionB.csv,"Read Version B","Dissertation, read only version B",WORK,CHORE,Study1,B,39,77,Study,User,-,,Study/JOL,"Study Phase2",5462,,,-1,-1,,,,1
982346DJ,fd2iyxikvm,Nick_Dissertation_EX1,1,186,2020-08-27T11:12:04-07:00,2.3546049594879,2,versionA_stim.csv,READVersionB.csv,"Read Version B","Dissertation, read only version B",BEGIN,END,Study1,S,54,52,Study,User,-,,Study/JOL,"Study Phase2",1723,,,-1,-1,,,,1
982346DJ,fd2iyxikvm,Nick_Dissertation_EX1,1,187,2020-08-27T11:12:06-07:00,1.6837351322174,2,versionA_stim.csv,READVersionB.csv,"Read Version B","Dissertation, read only version B",FIRE,BLAZE,Study1,B,45,34,Study,User,-,,Study/JOL,"Study Phase2",1426,,,-1,-1,,,,1
982346DJ,fd2iyxikvm,Nick_Dissertation_EX1,1,188,2020-08-27T11:12:13-07:00,7.1112408638,2,versionA_stim.csv,READVersionB.csv,"Read Version B","Dissertation, read only version B",CLOTHES,ATTIRE,Study1,B,43,63,Study,User,-,,Study/JOL,"Study Phase2",6752,,,-1,-1,,,,1
982346DJ,fd2iyxikvm,Nick_Dissertation_EX1,1,189,2020-08-27T11:12:19-07:00,5.5664670467377,2,versionA_stim.csv,READVersionB.csv,"Read Version B","Dissertation, read only version B",ALLOW,TUCK,Study1,U,78,45,Study,User,-,,Study/JOL,"Study Phase2",5240,,,-1,-1,,,,1
982346DJ,fd2iyxikvm,Nick_Dissertation_EX1,1,190,2020-08-27T11:12:24-07:00,4.9285559654236,2,versionA_stim.csv,READVersionB.csv,"Read Version B","Dissertation, read only version B",SHOE,FOOT,Study1,S,60,41,Study,User,-,,Study/JOL,"Study Phase2",4614,,,-1,-1,,,,1
982346DJ,fd2iyxikvm,Nick_Dissertation_EX1,1,191,2020-08-27T11:12:31-07:00,7.2657361030579,2,versionA_stim.csv,READVersionB.csv,"Read Version B","Dissertation, read only version B",HUNGER,FAMINE,Study1,B,40,13,Study,User,-,,Study/JOL,"Study Phase2",7001,,,-1,-1,,,,1
982346DJ,fd2iyxikvm,Nick_Dissertation_EX1,1,192,2020-08-27T11:12:37-07:00,5.8629159927368,2,versionA_stim.csv,READVersionB.csv,"Read Version B","Dissertation, read only version B",DUE,ASSIGNMENT,Study1,S,46,15,Study,User,-,,Study/JOL,"Study Phase2",5572,,,-1,-1,,,,1
982346DJ,fd2iyxikvm,Nick_Dissertation_EX1,1,193,2020-08-27T11:12:45-07:00,8.6066989898682,2,versionA_stim.csv,READVersionB.csv,"Read Version B","Dissertation, read only version B",DISCOVER,FLOOR,Study1,U,71,19,Study,User,-,,Study/JOL,"Study Phase2",8276,,,-1,-1,,,,1
982346DJ,fd2iyxikvm,Nick_Dissertation_EX1,1,194,2020-08-27T11:12:52-07:00,7.1058518886566,2,versionA_stim.csv,READVersionB.csv,"Read Version B","Dissertation, read only version B",HYGIENE,CLEAN,Study1,F,17,61,Study,User,-,,Study/JOL,"Study Phase2",6718,,,-1,-1,,,,1
982346DJ,fd2iyxikvm,Nick_Dissertation_EX1,1,195,2020-08-27T11:12:58-07:00,5.8650300502777,2,versionA_stim.csv,READVersionB.csv,"Read Version B","Dissertation, read only version B",CASH,WOULD,Study1,U,83,37,Study,User,-,,Study/JOL,"Study Phase2",5394,,,-1,-1,,,,1
982346DJ,fd2iyxikvm,Nick_Dissertation_EX1,1,196,2020-08-27T11:13:05-07:00,6.7596461772919,2,versionA_stim.csv,READVersionB.csv,"Read Version B","Dissertation, read only version B",GEOLOGY,ROCK,Study1,F,19,58,Study,User,-,,Study/JOL,"Study Phase2",6291,,,-1,-1,,,,1
982346DJ,fd2iyxikvm,Nick_Dissertation_EX1,1,197,2020-08-27T11:13:07-07:00,1.5803627967834,2,versionA_stim.csv,READVersionB.csv,"Read Version B","Dissertation, read only version B",WAGE,MONEY,Study1,F,8,22,Study,User,-,,Study/JOL,"Study Phase2",1324,,,-1,-1,,,,1
982346DJ,fd2iyxikvm,Nick_Dissertation_EX1,1,198,2020-08-27T11:13:08-07:00,1.4661591053009,2,versionA_stim.csv,READVersionB.csv,"Read Version B","Dissertation, read only version B",SENTENCE,WORD,Study1,B,31,28,Study,User,-,,Study/JOL,"Study Phase2",1214,,,-1,-1,,,,1
982346DJ,fd2iyxikvm,Nick_Dissertation_EX1,1,199,2020-08-27T11:13:15-07:00,7.1109340190887,2,versionA_stim.csv,READVersionB.csv,"Read Version B","Dissertation, read only version B",SUGAR,RIDDLE,Study1,U,81,60,Study,User,-,,Study/JOL,"Study Phase2",6773,,,-1,-1,,,,1
982346DJ,fd2iyxikvm,Nick_Dissertation_EX1,1,200,2020-08-27T11:13:16-07:00,1.3259699344635,2,versionA_stim.csv,READVersionB.csv,"Read Version B","Dissertation, read only version B",CREDIT,CARD,Study1,F,23,62,Study,User,-,,Study/JOL,"Study Phase2",1016,,,-1,-1,,,,1
982346DJ,fd2iyxikvm,Nick_Dissertation_EX1,1,201,2020-08-27T11:13:25-07:00,8.6962139606476,2,versionA_stim.csv,READVersionB.csv,"Read Version B","Dissertation, read only version B",ORCHID,FLOWER,Study1,F,24,67,Study,User,-,,Study/JOL,"Study Phase2",8359,,,-1,-1,,,,1
982346DJ,fd2iyxikvm,Nick_Dissertation_EX1,1,202,2020-08-27T11:13:27-07:00,1.7871329784393,2,versionA_stim.csv,READVersionB.csv,"Read Version B","Dissertation, read only version B",DISCUSSION,TALK,Study1,F,21,83,Study,User,-,,Study/JOL,"Study Phase2",1503,,,-1,-1,,,,1
982346DJ,fd2iyxikvm,Nick_Dissertation_EX1,1,203,2020-08-27T11:13:28-07:00,1.179740190506,2,versionA_stim.csv,READVersionB.csv,"Read Version B","Dissertation, read only version B",STRONG,ACCIDENT,Study1,U,80,54,Study,User,-,,Study/JOL,"Study Phase2",926,,,-1,-1,,,,1
982346DJ,fd2iyxikvm,Nick_Dissertation_EX1,1,204,2020-08-27T11:13:29-07:00,0.6102499961853,2,versionA_stim.csv,READVersionB.csv,"Read Version B","Dissertation, read only version B",ARTERY,BRONZE,Study1,U,74,55,Study,User,-,,Study/JOL,"Study Phase2",387,,,-1,-1,,,,1
982346DJ,fd2iyxikvm,Nick_Dissertation_EX1,1,205,2020-08-27T11:13:29-07:00,0.57781481742859,2,versionA_stim.csv,READVersionB.csv,"Read Version B","Dissertation, read only version B",BALL,RACKET,Study1,B,38,56,Study,User,-,,Study/JOL,"Study Phase2",357,,,-1,-1,,,,1
982346DJ,fd2iyxikvm,Nick_Dissertation_EX1,1,206,2020-08-27T11:13:30-07:00,0.57933402061462,2,versionA_stim.csv,READVersionB.csv,"Read Version B","Dissertation, read only version B",DEATH,BUSINESS,Study1,U,72,35,Study,User,-,,Study/JOL,"Study Phase2",361,,,-1,-1,,,,1
982346DJ,fd2iyxikvm,Nick_Dissertation_EX1,1,207,2020-08-27T11:13:31-07:00,0.59361505508423,2,versionA_stim.csv,READVersionB.csv,"Read Version B","Dissertation, read only version B",POP,SODA,Study1,S,56,33,Study,User,-,,Study/JOL,"Study Phase2",402,,,-1,-1,,,,1
982346DJ,fd2iyxikvm,Nick_Dissertation_EX1,1,208,2020-08-27T11:13:31-07:00,0.58037495613098,2,versionA_stim.csv,READVersionB.csv,"Read Version B","Dissertation, read only version B",BITTER,COLD,Study1,F,12,74,Study,User,-,,Study/JOL,"Study Phase2",334,,,-1,-1,,,,1
982346DJ,fd2iyxikvm,Nick_Dissertation_EX1,1,209,2020-08-27T11:13:32-07:00,0.60007214546204,2,versionA_stim.csv,READVersionB.csv,"Read Version B","Dissertation, read only version B",SLEEP,DROWSY,Study1,B,41,40,Study,User,-,,Study/JOL,"Study Phase2",351,,,-1,-1,,,,1
982346DJ,fd2iyxikvm,Nick_Dissertation_EX1,1,210,2020-08-27T11:13:32-07:00,0.63736891746521,2,versionA_stim.csv,READVersionB.csv,"Read Version B","Dissertation, read only version B",FULL,ENOUGH,Study1,B,26,39,Study,User,-,,Study/JOL,"Study Phase2",358,,,-1,-1,,,,1
982346DJ,fd2iyxikvm,Nick_Dissertation_EX1,1,211,2020-08-27T11:13:33-07:00,0.63681507110596,2,versionA_stim.csv,READVersionB.csv,"Read Version B","Dissertation, read only version B",KING,VASE,Study1,U,85,65,Study,User,-,,Study/JOL,"Study Phase2",370,,,-1,-1,,,,1
982346DJ,fd2iyxikvm,Nick_Dissertation_EX1,1,212,2020-08-27T11:13:34-07:00,0.66540694236755,2,versionA_stim.csv,READVersionB.csv,"Read Version B","Dissertation, read only version B",TRIAL,JURY,Study1,S,50,42,Study,User,-,,Study/JOL,"Study Phase2",357,,,-1,-1,,,,1
982346DJ,fd2iyxikvm,Nick_Dissertation_EX1,1,213,2020-08-27T11:13:34-07:00,0.58913707733154,2,versionA_stim.csv,READVersionB.csv,"Read Version B","Dissertation, read only version B",NUMBER,AMOUNT,Study1,S,47,75,Study,User,-,,Study/JOL,"Study Phase2",274,,,-1,-1,,,,1
982346DJ,fd2iyxikvm,Nick_Dissertation_EX1,1,214,2020-08-27T11:13:36-07:00,1.8616728782654,2,versionA_stim.csv,READVersionB.csv,"Read Version B","Dissertation, read only version B",WINE,CHEESE,Study1,S,57,78,Study,User,-,,Study/JOL,"Study Phase2",945,,,-1,-1,,,,1
982346DJ,fd2iyxikvm,Nick_Dissertation_EX1,1,215,2020-08-27T11:13:37-07:00,0.84429693222046,2,versionA_stim.csv,READVersionB.csv,"Read Version B","Dissertation, read only version B",BLOW,WIND,Study1,S,55,32,Study,User,-,,Study/JOL,"Study Phase2",525,,,-1,-1,,,,1
982346DJ,fd2iyxikvm,Nick_Dissertation_EX1,1,216,2020-08-27T11:13:38-07:00,0.76757097244263,2,versionA_stim.csv,READVersionB.csv,"Read Version B","Dissertation, read only version B",KIDNEY,LIVER,Study1,S,53,86,Study,User,-,,Study/JOL,"Study Phase2",461,,,-1,-1,,,,1
982346DJ,fd2iyxikvm,Nick_Dissertation_EX1,1,217,2020-08-27T11:13:39-07:00,0.81421518325806,2,versionA_stim.csv,READVersionB.csv,"Read Version B","Dissertation, read only version B",PAST,FUTURE,Study1,S,61,71,Study,User,-,,Study/JOL,"Study Phase2",522,,,-1,-1,,,,1
982346DJ,fd2iyxikvm,Nick_Dissertation_EX1,1,218,2020-08-27T11:13:39-07:00,0.89995288848877,2,versionA_stim.csv,READVersionB.csv,"Read Version B","Dissertation, read only version B",MEANING,DEFINITION,Study1,S,62,25,Study,User,-,,Study/JOL,"Study Phase2",555,,,-1,-1,,,,1
982346DJ,fd2iyxikvm,Nick_Dissertation_EX1,1,219,2020-08-27T11:13:40-07:00,0.82492995262146,2,versionA_stim.csv,READVersionB.csv,"Read Version B","Dissertation, read only version B",LOCATION,SITE,Study1,S,48,72,Study,User,-,,Study/JOL,"Study Phase2",526,,,-1,-1,,,,1
982346DJ,fd2iyxikvm,Nick_Dissertation_EX1,1,220,2020-08-27T11:13:41-07:00,0.83400702476501,2,versionA_stim.csv,READVersionB.csv,"Read Version B","Dissertation, read only version B",GRILL,BAR,Study1,S,52,7,Study,User,-,,Study/JOL,"Study Phase2",599,,,-1,-1,,,,1
982346DJ,fd2iyxikvm,Nick_Dissertation_EX1,1,221,2020-08-27T11:13:42-07:00,0.93635296821594,2,versionA_stim.csv,READVersionB.csv,"Read Version B","Dissertation, read only version B",PUSHER,CLUTTER,Study1,U,66,18,Study,User,-,,Study/JOL,"Study Phase2",670,,,-1,-1,,,,1
982346DJ,fd2iyxikvm,Nick_Dissertation_EX1,1,222,2020-08-27T11:13:42-07:00,0.30301117897034,2,versionA_stim.csv,READVersionB.csv,"Read Version B","Dissertation, read only version B",HONEY,BEE,Study1,S,63,50,Study,User,-,,Study/JOL,"Study Phase2",55,,,-1,-1,,,,1
982346DJ,fd2iyxikvm,Nick_Dissertation_EX1,1,223,2020-08-27T11:13:43-07:00,0.37335801124573,2,versionA_stim.csv,READVersionB.csv,"Read Version B","Dissertation, read only version B",DARK,CAVE,Study1,B,28,70,Study,User,-,,Study/JOL,"Study Phase2",183,,,-1,-1,,,,1
982346DJ,fd2iyxikvm,Nick_Dissertation_EX1,1,224,2020-08-27T11:13:43-07:00,0.40142393112183,2,versionA_stim.csv,READVersionB.csv,"Read Version B","Dissertation, read only version B",ARCHITECTURE,DESIGN,Study1,S,51,27,Study,User,-,,Study/JOL,"Study Phase2",206,,,-1,-1,,,,1
982346DJ,fd2iyxikvm,Nick_Dissertation_EX1,1,225,2020-08-27T11:13:43-07:00,0.39868807792664,2,versionA_stim.csv,READVersionB.csv,"Read Version B","Dissertation, read only version B",MATH,DIVISION,Study1,B,33,21,Study,User,-,,Study/JOL,"Study Phase2",142,,,-1,-1,,,,1
982346DJ,fd2iyxikvm,Nick_Dissertation_EX1,1,226,2020-08-27T11:13:44-07:00,0.38192701339722,2,versionA_stim.csv,READVersionB.csv,"Read Version B","Dissertation, read only version B",TUNA,FISH,Study1,F,25,82,Study,User,-,,Study/JOL,"Study Phase2",134,,,-1,-1,,,,1
982346DJ,fd2iyxikvm,Nick_Dissertation_EX1,1,227,2020-08-27T11:13:44-07:00,0.4034059047699,2,versionA_stim.csv,READVersionB.csv,"Read Version B","Dissertation, read only version B",SMELL,STENCH,Study1,B,42,14,Study,User,-,,Study/JOL,"Study Phase2",96,,,-1,-1,,,,1
982346DJ,fd2iyxikvm,Nick_Dissertation_EX1,1,228,2020-08-27T11:13:45-07:00,0.33904910087585,2,versionA_stim.csv,READVersionB.csv,"Read Version B","Dissertation, read only version B",HIDE,SICK,Study1,U,84,53,Study,User,-,,Study/JOL,"Study Phase2",44,,,-1,-1,,,,1
982346DJ,fd2iyxikvm,Nick_Dissertation_EX1,1,229,2020-08-27T11:13:46-07:00,1.0362899303436,2,versionA_stim.csv,READVersionB.csv,"Read Version B","Dissertation, read only version B",LETTUCE,SALAD,Study1,S,59,80,Study,User,-,,Study/JOL,"Study Phase2",747,,,-1,-1,,,,1
982346DJ,fd2iyxikvm,Nick_Dissertation_EX1,1,230,2020-08-27T11:13:46-07:00,0.84860587120056,2,versionA_stim.csv,READVersionB.csv,"Read Version B","Dissertation, read only version B",REVOLUTION,WAR,Study1,F,20,69,Study,User,-,,Study/JOL,"Study Phase2",549,,,-1,-1,,,,1
982346DJ,fd2iyxikvm,Nick_Dissertation_EX1,1,231,2020-08-27T11:13:47-07:00,0.73671507835388,2,versionA_stim.csv,READVersionB.csv,"Read Version B","Dissertation, read only version B",VALLEY,ADD,Study1,U,82,9,Study,User,-,,Study/JOL,"Study Phase2",413,,,-1,-1,,,,1
982346DJ,fd2iyxikvm,Nick_Dissertation_EX1,1,232,2020-08-27T11:13:48-07:00,0.71607804298401,2,versionA_stim.csv,READVersionB.csv,"Read Version B","Dissertation, read only version B",HORNET,STING,Study1,F,11,85,Study,User,-,,Study/JOL,"Study Phase2",417,,,-1,-1,,,,1
982346DJ,fd2iyxikvm,Nick_Dissertation_EX1,1,233,2020-08-27T11:13:49-07:00,0.62414598464966,2,versionA_stim.csv,READVersionB.csv,"Read Version B","Dissertation, read only version B",DELINQUENT,BAD,Study1,F,6,66,Study,User,-,,Study/JOL,"Study Phase2",335,,,-1,-1,,,,1
982346DJ,fd2iyxikvm,Nick_Dissertation_EX1,1,234,2020-08-27T11:13:49-07:00,0.65085792541504,2,versionA_stim.csv,READVersionB.csv,"Read Version B","Dissertation, read only version B",TAKE,SEIZE,Study1,B,29,20,Study,User,-,,Study/JOL,"Study Phase2",397,,,-1,-1,,,,1
982346DJ,fd2iyxikvm,Nick_Dissertation_EX1,1,235,2020-08-27T11:13:50-07:00,0.66468596458435,2,versionA_stim.csv,READVersionB.csv,"Read Version B","Dissertation, read only version B",SOON,BELT,Study1,U,70,46,Study,User,-,,Study/JOL,"Study Phase2",431,,,-1,-1,,,,1
982346DJ,fd2iyxikvm,Nick_Dissertation_EX1,1,236,2020-08-27T11:13:51-07:00,0.6910240650177,2,versionA_stim.csv,READVersionB.csv,"Read Version B","Dissertation, read only version B",BABY,CHILD,Study1,S,64,81,Study,User,-,,Study/JOL,"Study Phase2",442,,,-1,-1,,,,1
982346DJ,fd2iyxikvm,Nick_Dissertation_EX1,1,237,2020-08-27T11:13:51-07:00,0.66614103317261,2,versionA_stim.csv,READVersionB.csv,"Read Version B","Dissertation, read only version B",DRINK,SIP,Study1,B,27,16,Study,User,-,,Study/JOL,"Study Phase2",408,,,-1,-1,,,,1
982346DJ,fd2iyxikvm,Nick_Dissertation_EX1,1,238,2020-08-27T11:13:52-07:00,0.62883806228638,2,versionA_stim.csv,READVersionB.csv,"Read Version B","Dissertation, read only version B",CHISEL,HAMMER,Study1,F,9,31,Study,User,-,,Study/JOL,"Study Phase2",375,,,-1,-1,,,,1
982346DJ,fd2iyxikvm,Nick_Dissertation_EX1,1,239,2020-08-27T11:13:52-07:00,0.62326097488403,2,versionA_stim.csv,READVersionB.csv,"Read Version B","Dissertation, read only version B",FIX,HAND,Study1,U,75,73,Study,User,-,,Study/JOL,"Study Phase2",365,,,-1,-1,,,,1
982346DJ,fd2iyxikvm,Nick_Dissertation_EX1,1,240,2020-08-27T11:13:53-07:00,0.61629605293274,2,versionA_stim.csv,READVersionB.csv,"Read Version B","Dissertation, read only version B",HEIGHT,GROWTH,Study1,B,30,17,Study,User,-,,Study/JOL,"Study Phase2",350,,,-1,-1,,,,1
982346DJ,fd2iyxikvm,Nick_Dissertation_EX1,1,241,2020-08-27T11:13:54-07:00,0.59083199501038,2,versionA_stim.csv,READVersionB.csv,"Read Version B","Dissertation, read only version B",WAY,OUT,Study1,F,16,76,Study,User,-,,Study/JOL,"Study Phase2",344,,,-1,-1,,,,1
982346DJ,fd2iyxikvm,Nick_Dissertation_EX1,1,242,2020-08-27T11:13:54-07:00,0.63144397735596,2,versionA_stim.csv,READVersionB.csv,"Read Version B","Dissertation, read only version B",LAW,ATTORNEY,Study1,B,34,68,Study,User,-,,Study/JOL,"Study Phase2",387,,,-1,-1,,,,1
982346DJ,fd2iyxikvm,Nick_Dissertation_EX1,1,243,2020-08-27T11:13:55-07:00,0.6512758731842,2,versionA_stim.csv,READVersionB.csv,"Read Version B","Dissertation, read only version B",DEBATE,SIGHT,Study1,U,73,11,Study,User,-,,Study/JOL,"Study Phase2",429,,,-1,-1,,,,1
982346DJ,fd2iyxikvm,Nick_Dissertation_EX1,1,244,2020-08-27T11:13:56-07:00,0.64081597328186,2,versionA_stim.csv,READVersionB.csv,"Read Version B","Dissertation, read only version B",LIFT,WOMAN,Study1,U,69,84,Study,User,-,,Study/JOL,"Study Phase2",359,,,-1,-1,,,,1
982346DJ,fd2iyxikvm,Nick_Dissertation_EX1,1,245,2020-08-27T11:13:56-07:00,0.62036919593811,2,versionA_stim.csv,READVersionB.csv,"Read Version B","Dissertation, read only version B",EDITOR,NEWS,Study1,F,10,51,Study,User,-,,Study/JOL,"Study Phase2",312,,,-1,-1,,,,1
982346DJ,fd2iyxikvm,Nick_Dissertation_EX1,1,246,2020-08-27T11:13:57-07:00,0.59460997581482,2,versionA_stim.csv,READVersionB.csv,"Read Version B","Dissertation, read only version B",PAW,DOG,Study1,F,15,79,Study,User,-,,Study/JOL,"Study Phase2",245,,,-1,-1,,,,1
982346DJ,fd2iyxikvm,Nick_Dissertation_EX1,1,247,2020-08-27T11:13:57-07:00,0.58742499351501,2,versionA_stim.csv,READVersionB.csv,"Read Version B","Dissertation, read only version B",KEY,LATCH,Study1,B,36,36,Study,User,-,,Study/JOL,"Study Phase2",236,,,-1,-1,,,,1
982346DJ,fd2iyxikvm,Nick_Dissertation_EX1,1,248,2020-08-27T11:13:58-07:00,0.54992198944092,2,versionA_stim.csv,READVersionB.csv,"Read Version B","Dissertation, read only version B",DIETARY,SACKING,Study1,U,67,57,Study,User,-,,Study/JOL,"Study Phase2",240,,,-1,-1,,,,1
982346DJ,fd2iyxikvm,Nick_Dissertation_EX1,1,249,2020-08-27T11:13:59-07:00,0.65314197540283,2,versionA_stim.csv,READVersionB.csv,"Read Version B","Dissertation, read only version B",BUG,WASP,Study1,B,32,59,Study,User,-,,Study/JOL,"Study Phase2",295,,,-1,-1,,,,1
982346DJ,fd2iyxikvm,Nick_Dissertation_EX1,1,250,2020-08-27T11:13:59-07:00,0.53788685798645,2,versionA_stim.csv,READVersionB.csv,"Read Version B","Dissertation, read only version B",PLANE,PILOT,Study1,B,44,26,Study,User,-,,Study/JOL,"Study Phase2",209,,,-1,-1,,,,1
982346DJ,fd2iyxikvm,Nick_Dissertation_EX1,1,251,2020-08-27T11:14:00-07:00,0.6232271194458,2,versionA_stim.csv,READVersionB.csv,"Read Version B","Dissertation, read only version B",BATHROOM,TOILET,Study1,S,58,29,Study,User,-,,Study/JOL,"Study Phase2",287,,,-1,-1,,,,1
982346DJ,fd2iyxikvm,Nick_Dissertation_EX1,1,252,2020-08-27T11:14:00-07:00,0.59076905250549,2,versionA_stim.csv,READVersionB.csv,"Read Version B","Dissertation, read only version B",BRIDGE,WATER,Study1,F,18,24,Study,User,-,,Study/JOL,"Study Phase2",273,,,-1,-1,,,,1
982346DJ,fd2iyxikvm,Nick_Dissertation_EX1,1,253,2020-08-27T11:14:01-07:00,0.60877394676208,2,versionA_stim.csv,READVersionB.csv,"Read Version B","Dissertation, read only version B",MACHINE,POSITION,Study1,U,76,43,Study,User,-,,Study/JOL,"Study Phase2",340,,,-1,-1,,,,1
982346DJ,fd2iyxikvm,Nick_Dissertation_EX1,1,254,2020-08-27T11:14:02-07:00,0.59013986587524,2,versionA_stim.csv,READVersionB.csv,"Read Version B","Dissertation, read only version B",ART,LION,Study1,U,79,44,Study,User,-,,Study/JOL,"Study Phase2",369,,,-1,-1,,,,1
982346DJ,fd2iyxikvm,Nick_Dissertation_EX1,1,255,2020-08-27T11:14:02-07:00,0.55101919174194,2,versionA_stim.csv,READVersionB.csv,"Read Version B","Dissertation, read only version B",HOT,CHILI,Study1,B,37,10,Study,User,-,,Study/JOL,"Study Phase2",337,,,-1,-1,,,,1
982346DJ,fd2iyxikvm,Nick_Dissertation_EX1,1,256,2020-08-27T11:14:03-07:00,0.56502485275269,2,versionA_stim.csv,READVersionB.csv,"Read Version B","Dissertation, read only version B",SWAN,BIRD,Study1,F,14,64,Study,User,-,,Study/JOL,"Study Phase2",354,,,-1,-1,,,,1
982346DJ,fd2iyxikvm,Nick_Dissertation_EX1,1,257,2020-08-27T11:14:03-07:00,0.60182213783264,2,versionA_stim.csv,READVersionB.csv,"Read Version B","Dissertation, read only version B",GREAT,FANTASTIC,Study1,B,35,23,Study,User,-,,Study/JOL,"Study Phase2",337,,,-1,-1,,,,1
982346DJ,fd2iyxikvm,Nick_Dissertation_EX1,1,258,2020-08-27T11:14:04-07:00,0.57650303840637,2,versionA_stim.csv,READVersionB.csv,"Read Version B","Dissertation, read only version B",DUMP,WASTE,Study1,S,49,12,Study,User,-,,Study/JOL,"Study Phase2",229,,,-1,-1,,,,1
982346DJ,fd2iyxikvm,Nick_Dissertation_EX1,1,259,2020-08-27T11:14:04-07:00,0.56533694267273,2,versionA_stim.csv,READVersionB.csv,"Read Version B","Dissertation, read only version B",ROOT,PLANT,Study1,F,13,8,Study,User,-,,Study/JOL,"Study Phase2",278,,,-1,-1,,,,1
982346DJ,fd2iyxikvm,Nick_Dissertation_EX1,1,260,2020-08-27T11:14:05-07:00,0.55311393737793,2,versionA_stim.csv,READVersionB.csv,"Read Version B","Dissertation, read only version B",PARK,HUNGRY,Study1,U,68,30,Study,User,-,,Study/JOL,"Study Phase2",342,,,-1,-1,,,,1
982346DJ,fd2iyxikvm,Nick_Dissertation_EX1,1,261,2020-08-27T11:14:06-07:00,0.57594299316406,2,versionA_stim.csv,READVersionB.csv,"Read Version B","Dissertation, read only version B",MALT,CHOCOLATE,BUFFER2,Buffer,88,90,Study,User,-,,Study/JOL,BUFFER4,285,,,-1,-1,,,,1
982346DJ,fd2iyxikvm,Nick_Dissertation_EX1,1,262,2020-08-27T11:14:06-07:00,0.83239507675171,2,versionA_stim.csv,READVersionB.csv,"Read Version B","Dissertation, read only version B",GEESE,GOOSE,BUFFER2,Buffer,86,88,Study,User,-,,Study/JOL,BUFFER4,509,,,-1,-1,,,,1
982346DJ,fd2iyxikvm,Nick_Dissertation_EX1,1,263,2020-08-27T11:14:07-07:00,0.72852492332458,2,versionA_stim.csv,READVersionB.csv,"Read Version B","Dissertation, read only version B",SHERRIF,POLICE,BUFFER2,Buffer,87,89,Study,User,-,,Study/JOL,BUFFER4,381,,,-1,-1,,,,1
982346DJ,fd2iyxikvm,Nick_Dissertation_EX1,1,264,2020-08-27T11:14:08-07:00,0.66222095489502,2,versionA_stim.csv,READVersionB.csv,"Read Version B","Dissertation, read only version B",THING,STUFF,BUFFER2,Buffer,90,87,Study,User,-,,Study/JOL,BUFFER4,313,,,-1,-1,,,,1
982346DJ,fd2iyxikvm,Nick_Dissertation_EX1,1,265,2020-08-27T11:14:08-07:00,0.57398509979248,2,versionA_stim.csv,READVersionB.csv,"Read Version B","Dissertation, read only version B",MOON,SPACE,BUFFER2,Buffer,89,91,Study,User,-,,Study/JOL,BUFFER4,273,,,-1,-1,,,,1
982346DJ,fd2iyxikvm,Nick_Dissertation_EX1,1,266,2020-08-27T11:14:09-07:00,0.60580897331238,2,versionA_stim.csv,READVersionB.csv,"Read Version B","Dissertation, read only version B",,,,,,0,Instruct,User,-,"You have completed this section. Please press Enter.",Filler_Instruction,Instruct5,315,,,-1,-1,,,,1
982346DJ,fd2iyxikvm,Nick_Dissertation_EX1,1,267,2020-08-27T11:16:09-07:00,120.44482803345,2,versionA_stim.csv,READVersionB.csv,"Read Version B","Dissertation, read only version B",,,,,,0,FreeRecall,120,120,"Please list the 50 US states in reverse alphabetical order (z - a). The task will automatically advance to the next screen after two minutes.",,Filler2,120009,"Wyoming Wisconsin West Virginia Washington Virginia Vermont Utah Texas Tennessee South Dakota South Carolina Rhode Island Pennsylvania Oregon Oklahoma Ohio North Dakota North Carolina New York New Mexico New Jersey New Hampshire Nevada Nebraska Montana ",0,18319,118970,0,0,,1
982346DJ,fd2iyxikvm,Nick_Dissertation_EX1,1,268,2020-08-27T11:16:22-07:00,12.501075983047,2,versionA_stim.csv,READVersionB.csv,"Read Version B","Dissertation, read only version B",,,,,,0,Instruct,-,10,"You will now be presented with the first word from each of the previously studied item pairs. Please type the missing word. If you do not know the word, you may guess or press Enter to skip forward to the next pair.",,Instruct6,12173,,,-1,-1,,,,1
982346DJ,fd2iyxikvm,Nick_Dissertation_EX1,1,269,2020-08-27T11:16:25-07:00,3.3459990024567,2,versionA_stim.csv,READVersionB.csv,"Read Version B","Dissertation, read only version B",KEY,LATCH,Study1,B,36,36,Test,User,-,,Recall,Recall2,2974,chain,40,2381,2787,0,0,,1
982346DJ,fd2iyxikvm,Nick_Dissertation_EX1,1,270,2020-08-27T11:16:27-07:00,1.6300959587097,2,versionA_stim.csv,READVersionB.csv,"Read Version B","Dissertation, read only version B",BEGIN,END,Study1,S,54,52,Test,User,-,,Recall,Recall2,1330,end,100,913,1184,1,1,,1
982346DJ,fd2iyxikvm,Nick_Dissertation_EX1,1,271,2020-08-27T11:16:28-07:00,1.5502610206604,2,versionA_stim.csv,READVersionB.csv,"Read Version B","Dissertation, read only version B",CHISEL,HAMMER,Study1,F,9,31,Test,User,-,,Recall,Recall2,1327,,0,-1,-1,0,0,,1
982346DJ,fd2iyxikvm,Nick_Dissertation_EX1,1,272,2020-08-27T11:16:31-07:00,2.2129480838776,2,versionA_stim.csv,READVersionB.csv,"Read Version B","Dissertation, read only version B",BRIDGE,WATER,Study1,F,18,24,Test,User,-,,Recall,Recall2,1907,cross,20,1177,1832,0,0,,1
982346DJ,fd2iyxikvm,Nick_Dissertation_EX1,1,273,2020-08-27T11:16:33-07:00,1.9400188922882,2,versionA_stim.csv,READVersionB.csv,"Read Version B","Dissertation, read only version B",CIRCLE,ROUND,Study1,S,65,38,Test,User,-,,Recall,Recall2,1752,round,100,1071,1612,1,1,,1
982346DJ,fd2iyxikvm,Nick_Dissertation_EX1,1,274,2020-08-27T11:16:36-07:00,3.088730096817,2,versionA_stim.csv,READVersionB.csv,"Read Version B","Dissertation, read only version B",DRINK,SIP,Study1,B,27,16,Test,User,-,,Recall,Recall2,2827,pop,33.333333333333,2162,2544,0,0,,1
982346DJ,fd2iyxikvm,Nick_Dissertation_EX1,1,275,2020-08-27T11:16:38-07:00,2.6717438697815,2,versionA_stim.csv,READVersionB.csv,"Read Version B","Dissertation, read only version B",TRIAL,JURY,Study1,S,50,42,Test,User,-,,Recall,Recall2,2354,run,28.571428571429,1057,2102,0,0,,1
982346DJ,fd2iyxikvm,Nick_Dissertation_EX1,1,276,2020-08-27T11:16:40-07:00,1.9048271179199,2,versionA_stim.csv,READVersionB.csv,"Read Version B","Dissertation, read only version B",FIX,HAND,Study1,U,75,73,Test,User,-,,Recall,Recall2,1669,,0,-1,-1,0,0,,1
982346DJ,fd2iyxikvm,Nick_Dissertation_EX1,1,277,2020-08-27T11:16:42-07:00,1.7437179088593,2,versionA_stim.csv,READVersionB.csv,"Read Version B","Dissertation, read only version B",WAGE,MONEY,Study1,F,8,22,Test,User,-,,Recall,Recall2,1520,money,100,878,1396,1,1,,1
982346DJ,fd2iyxikvm,Nick_Dissertation_EX1,1,278,2020-08-27T11:16:48-07:00,6.0000259876251,2,versionA_stim.csv,READVersionB.csv,"Read Version B","Dissertation, read only version B",SLEEP,DROWSY,Study1,B,41,40,Test,User,-,,Recall,Recall2,5725,in,0,5307,5504,0,0,,1
982346DJ,fd2iyxikvm,Nick_Dissertation_EX1,1,279,2020-08-27T11:16:51-07:00,3.4080440998077,2,versionA_stim.csv,READVersionB.csv,"Read Version B","Dissertation, read only version B",WAY,OUT,Study1,F,16,76,Test,User,-,,Recall,Recall2,3120,,0,-1,-1,0,0,,1
982346DJ,fd2iyxikvm,Nick_Dissertation_EX1,1,280,2020-08-27T11:16:57-07:00,5.1773569583893,2,versionA_stim.csv,READVersionB.csv,"Read Version B","Dissertation, read only version B",EDITOR,NEWS,Study1,F,10,51,Test,User,-,,Recall,Recall2,4934,author,0,2110,4763,0,0,,1
982346DJ,fd2iyxikvm,Nick_Dissertation_EX1,1,281,2020-08-27T11:16:59-07:00,2.686665058136,2,versionA_stim.csv,READVersionB.csv,"Read Version B","Dissertation, read only version B",DIGESTION,STOMACH,Study1,F,7,49,Test,User,-,,Recall,Recall2,2394,stomach,100,1321,2031,1,1,,1
982346DJ,fd2iyxikvm,Nick_Dissertation_EX1,1,282,2020-08-27T11:17:01-07:00,2.0263249874115,2,versionA_stim.csv,READVersionB.csv,"Read Version B","Dissertation, read only version B",HORNET,STING,Study1,F,11,85,Test,User,-,,Recall,Recall2,1805,sting,100,1132,1593,1,1,,1
982346DJ,fd2iyxikvm,Nick_Dissertation_EX1,1,283,2020-08-27T11:17:05-07:00,3.3205969333649,2,versionA_stim.csv,READVersionB.csv,"Read Version B","Dissertation, read only version B",DIETARY,SACKING,Study1,U,67,57,Test,User,-,,Recall,Recall2,3041,diet,18.181818181818,2504,2918,0,0,,1
982346DJ,fd2iyxikvm,Nick_Dissertation_EX1,1,284,2020-08-27T11:17:07-07:00,2.031406879425,2,versionA_stim.csv,READVersionB.csv,"Read Version B","Dissertation, read only version B",BUG,WASP,Study1,B,32,59,Test,User,-,,Recall,Recall2,1764,,0,-1,-1,0,0,,1
982346DJ,fd2iyxikvm,Nick_Dissertation_EX1,1,285,2020-08-27T11:17:12-07:00,5.1661801338196,2,versionA_stim.csv,READVersionB.csv,"Read Version B","Dissertation, read only version B",GEOLOGY,ROCK,Study1,F,19,58,Test,User,-,,Recall,Recall2,4837,rock,100,4204,4593,1,1,,1
982346DJ,fd2iyxikvm,Nick_Dissertation_EX1,1,286,2020-08-27T11:17:14-07:00,2.529443025589,2,versionA_stim.csv,READVersionB.csv,"Read Version B","Dissertation, read only version B",HEIGHT,GROWTH,Study1,B,30,17,Test,User,-,,Recall,Recall2,2246,tall,20,1397,2075,0,0,,1
982346DJ,fd2iyxikvm,Nick_Dissertation_EX1,1,287,2020-08-27T11:17:18-07:00,3.4477000236511,2,versionA_stim.csv,READVersionB.csv,"Read Version B","Dissertation, read only version B",HIDE,SICK,Study1,U,84,53,Test,User,-,,Recall,Recall2,3087,,0,-1,-1,0,0,,1
982346DJ,fd2iyxikvm,Nick_Dissertation_EX1,1,288,2020-08-27T11:17:21-07:00,2.7237119674683,2,versionA_stim.csv,READVersionB.csv,"Read Version B","Dissertation, read only version B",LAW,ATTORNEY,Study1,B,34,68,Test,User,-,,Recall,Recall2,2342,ordr,33.333333333333,1372,2178,0,0,,1
982346DJ,fd2iyxikvm,Nick_Dissertation_EX1,1,289,2020-08-27T11:17:26-07:00,5.0325260162354,2,versionA_stim.csv,READVersionB.csv,"Read Version B","Dissertation, read only version B",ALLOW,TUCK,Study1,U,78,45,Test,User,-,,Recall,Recall2,4671,tuck,100,3973,4451,1,1,,1
982346DJ,fd2iyxikvm,Nick_Dissertation_EX1,1,290,2020-08-27T11:17:28-07:00,2.0542778968811,2,versionA_stim.csv,READVersionB.csv,"Read Version B","Dissertation, read only version B",HERD,COW,Study1,F,22,47,Test,User,-,,Recall,Recall2,1736,cow,100,1149,1539,1,1,,1
982346DJ,fd2iyxikvm,Nick_Dissertation_EX1,1,291,2020-08-27T11:17:31-07:00,3.0977821350098,2,versionA_stim.csv,READVersionB.csv,"Read Version B","Dissertation, read only version B",ARTERY,BRONZE,Study1,U,74,55,Test,User,-,,Recall,Recall2,2748,,0,-1,-1,0,0,,1
982346DJ,fd2iyxikvm,Nick_Dissertation_EX1,1,292,2020-08-27T11:17:34-07:00,3.0517020225525,2,versionA_stim.csv,READVersionB.csv,"Read Version B","Dissertation, read only version B",HONEY,BEE,Study1,S,63,50,Test,User,-,,Recall,Recall2,2498,comb,28.571428571429,1695,2365,0,0,,1
982346DJ,fd2iyxikvm,Nick_Dissertation_EX1,1,293,2020-08-27T11:17:38-07:00,3.8226428031921,2,versionA_stim.csv,READVersionB.csv,"Read Version B","Dissertation, read only version B",MATH,DIVISION,Study1,B,33,21,Test,User,-,,Recall,Recall2,3452,add,18.181818181818,2649,3055,0,0,,1
982346DJ,fd2iyxikvm,Nick_Dissertation_EX1,1,294,2020-08-27T11:17:40-07:00,2.3066689968109,2,versionA_stim.csv,READVersionB.csv,"Read Version B","Dissertation, read only version B",BATHROOM,TOILET,Study1,S,58,29,Test,User,-,,Recall,Recall2,1839,sink,20,1244,1627,0,0,,1
982346DJ,fd2iyxikvm,Nick_Dissertation_EX1,1,295,2020-08-27T11:17:42-07:00,2.6005191802979,2,versionA_stim.csv,READVersionB.csv,"Read Version B","Dissertation, read only version B",TUNA,FISH,Study1,F,25,82,Test,User,-,,Recall,Recall2,2249,fihs,75,1704,2006,0,1,,1
982346DJ,fd2iyxikvm,Nick_Dissertation_EX1,1,296,2020-08-27T11:17:48-07:00,5.785826921463,2,versionA_stim.csv,READVersionB.csv,"Read Version B","Dissertation, read only version B",MEANING,DEFINITION,Study1,S,62,25,Test,User,-,,Recall,Recall2,5369,definition,100,1774,5179,1,1,,1
982346DJ,fd2iyxikvm,Nick_Dissertation_EX1,1,297,2020-08-27T11:17:51-07:00,2.7237849235535,2,versionA_stim.csv,READVersionB.csv,"Read Version B","Dissertation, read only version B",SOON,BELT,Study1,U,70,46,Test,User,-,,Recall,Recall2,2394,now,0,1793,2222,0,0,,1
982346DJ,fd2iyxikvm,Nick_Dissertation_EX1,1,298,2020-08-27T11:17:54-07:00,2.6475789546967,2,versionA_stim.csv,READVersionB.csv,"Read Version B","Dissertation, read only version B",DEATH,BUSINESS,Study1,U,72,35,Test,User,-,,Recall,Recall2,2375,coffin,28.571428571429,1558,2228,0,0,,1
982346DJ,fd2iyxikvm,Nick_Dissertation_EX1,1,299,2020-08-27T11:17:57-07:00,2.9116852283478,2,versionA_stim.csv,READVersionB.csv,"Read Version B","Dissertation, read only version B",VALLEY,ADD,Study1,U,82,9,Test,User,-,,Recall,Recall2,2589,,0,-1,-1,0,0,,1
982346DJ,fd2iyxikvm,Nick_Dissertation_EX1,1,300,2020-08-27T11:18:00-07:00,3.2548928260803,2,versionA_stim.csv,READVersionB.csv,"Read Version B","Dissertation, read only version B",BABY,CHILD,Study1,S,64,81,Test,User,-,,Recall,Recall2,2936,bed,25,2439,2822,0,0,,1
982346DJ,fd2iyxikvm,Nick_Dissertation_EX1,1,301,2020-08-27T11:18:02-07:00,1.9326341152191,2,versionA_stim.csv,READVersionB.csv,"Read Version B","Dissertation, read only version B",ARCHITECTURE,DESIGN,Study1,S,51,27,Test,User,-,,Recall,Recall2,1694,,0,-1,-1,0,0,,1
982346DJ,fd2iyxikvm,Nick_Dissertation_EX1,1,302,2020-08-27T11:18:12-07:00,10.697482824326,2,versionA_stim.csv,READVersionB.csv,"Read Version B","Dissertation, read only version B",SUGAR,RIDDLE,Study1,U,81,60,Test,User,-,,Recall,Recall2,10374,riddle,100,9573,10307,1,1,,1
982346DJ,fd2iyxikvm,Nick_Dissertation_EX1,1,303,2020-08-27T11:18:17-07:00,4.3844170570374,2,versionA_stim.csv,READVersionB.csv,"Read Version B","Dissertation, read only version B",HYGIENE,CLEAN,Study1,F,17,61,Test,User,-,,Recall,Recall2,4092,smell,20,2027,3937,0,0,,1
982346DJ,fd2iyxikvm,Nick_Dissertation_EX1,1,304,2020-08-27T11:18:19-07:00,1.8924660682678,2,versionA_stim.csv,READVersionB.csv,"Read Version B","Dissertation, read only version B",KIDNEY,LIVER,Study1,S,53,86,Test,User,-,,Recall,Recall2,1581,stone,20,964,1458,0,0,,1
982346DJ,fd2iyxikvm,Nick_Dissertation_EX1,1,305,2020-08-27T11:18:24-07:00,4.8791038990021,2,versionA_stim.csv,READVersionB.csv,"Read Version B","Dissertation, read only version B",TAKE,SEIZE,Study1,B,29,20,Test,User,-,,Recall,Recall2,4515,seize,100,3497,4397,1,1,,1
982346DJ,fd2iyxikvm,Nick_Dissertation_EX1,1,306,2020-08-27T11:18:25-07:00,1.8351430892944,2,versionA_stim.csv,READVersionB.csv,"Read Version B","Dissertation, read only version B",HAPPY,CAR,Study1,U,77,48,Test,User,-,,Recall,Recall2,1588,,0,-1,-1,0,0,,1
982346DJ,fd2iyxikvm,Nick_Dissertation_EX1,1,307,2020-08-27T11:18:28-07:00,2.2541460990906,2,versionA_stim.csv,READVersionB.csv,"Read Version B","Dissertation, read only version B",PUSHER,CLUTTER,Study1,U,66,18,Test,User,-,,Recall,Recall2,1922,,0,-1,-1,0,0,,1
982346DJ,fd2iyxikvm,Nick_Dissertation_EX1,1,308,2020-08-27T11:18:30-07:00,2.2241909503937,2,versionA_stim.csv,READVersionB.csv,"Read Version B","Dissertation, read only version B",REVOLUTION,WAR,Study1,F,20,69,Test,User,-,,Recall,Recall2,1945,watr,85.714285714286,1407,1838,0,1,,1
982346DJ,fd2iyxikvm,Nick_Dissertation_EX1,1,309,2020-08-27T11:18:32-07:00,2.4133689403534,2,versionA_stim.csv,READVersionB.csv,"Read Version B","Dissertation, read only version B",ROOT,PLANT,Study1,F,13,8,Test,User,-,,Recall,Recall2,2109,tree,22.222222222222,1395,1977,0,0,,1
982346DJ,fd2iyxikvm,Nick_Dissertation_EX1,1,310,2020-08-27T11:18:35-07:00,2.3012270927429,2,versionA_stim.csv,READVersionB.csv,"Read Version B","Dissertation, read only version B",GRILL,BAR,Study1,S,52,7,Test,User,-,,Recall,Recall2,2048,bar,100,1605,1884,1,1,,1
982346DJ,fd2iyxikvm,Nick_Dissertation_EX1,1,311,2020-08-27T11:18:40-07:00,5.7519578933716,2,versionA_stim.csv,READVersionB.csv,"Read Version B","Dissertation, read only version B",DISCOVER,FLOOR,Study1,U,71,19,Test,User,-,,Recall,Recall2,5440,found,40,3605,5323,0,0,,1
982346DJ,fd2iyxikvm,Nick_Dissertation_EX1,1,312,2020-08-27T11:18:42-07:00,2.0758230686188,2,versionA_stim.csv,READVersionB.csv,"Read Version B","Dissertation, read only version B",SMELL,STENCH,Study1,B,42,14,Test,User,-,,Recall,Recall2,1835,nose,20,1192,1751,0,0,,1
982346DJ,fd2iyxikvm,Nick_Dissertation_EX1,1,313,2020-08-27T11:18:44-07:00,1.9028680324554,2,versionA_stim.csv,READVersionB.csv,"Read Version B","Dissertation, read only version B",CREDIT,CARD,Study1,F,23,62,Test,User,-,,Recall,Recall2,1591,card,100,870,1476,1,1,,1
982346DJ,fd2iyxikvm,Nick_Dissertation_EX1,1,314,2020-08-27T11:18:47-07:00,2.7612400054932,2,versionA_stim.csv,READVersionB.csv,"Read Version B","Dissertation, read only version B",HUNGER,FAMINE,Study1,B,40,13,Test,User,-,,Recall,Recall2,2428,stomach,15.384615384615,1531,2193,0,0,,1
982346DJ,fd2iyxikvm,Nick_Dissertation_EX1,1,315,2020-08-27T11:18:51-07:00,3.7650279998779,2,versionA_stim.csv,READVersionB.csv,"Read Version B","Dissertation, read only version B",HOT,CHILI,Study1,B,37,10,Test,User,-,,Recall,Recall2,3462,cold,44.444444444444,1474,3335,0,0,,1
982346DJ,fd2iyxikvm,Nick_Dissertation_EX1,1,316,2020-08-27T11:18:54-07:00,3.0082449913025,2,versionA_stim.csv,READVersionB.csv,"Read Version B","Dissertation, read only version B",ART,LION,Study1,U,79,44,Test,User,-,,Recall,Recall2,2694,,0,-1,-1,0,0,,1
982346DJ,fd2iyxikvm,Nick_Dissertation_EX1,1,317,2020-08-27T11:18:58-07:00,3.7439699172974,2,versionA_stim.csv,READVersionB.csv,"Read Version B","Dissertation, read only version B",CLOTHES,ATTIRE,Study1,B,43,63,Test,User,-,,Recall,Recall2,3377,attire,100,2253,3251,1,1,,1
982346DJ,fd2iyxikvm,Nick_Dissertation_EX1,1,318,2020-08-27T11:19:03-07:00,4.9774379730225,2,versionA_stim.csv,READVersionB.csv,"Read Version B","Dissertation, read only version B",GREAT,FANTASTIC,Study1,B,35,23,Test,User,-,,Recall,Recall2,4680,,0,3429,3430,0,0,,1
982346DJ,fd2iyxikvm,Nick_Dissertation_EX1,1,319,2020-08-27T11:19:05-07:00,2.6395781040192,2,versionA_stim.csv,READVersionB.csv,"Read Version B","Dissertation, read only version B",LIFT,WOMAN,Study1,U,69,84,Test,User,-,,Recall,Recall2,2277,up,0,1699,1945,0,0,,1
982346DJ,fd2iyxikvm,Nick_Dissertation_EX1,1,320,2020-08-27T11:19:11-07:00,5.5523488521576,2,versionA_stim.csv,READVersionB.csv,"Read Version B","Dissertation, read only version B",BALL,RACKET,Study1,B,38,56,Test,User,-,,Recall,Recall2,5273,ball,20,4207,4941,0,0,,1
982346DJ,fd2iyxikvm,Nick_Dissertation_EX1,1,321,2020-08-27T11:19:13-07:00,2.4924809932709,2,versionA_stim.csv,READVersionB.csv,"Read Version B","Dissertation, read only version B",FULL,ENOUGH,Study1,B,26,39,Test,User,-,,Recall,Recall2,2187,hunger,16.666666666667,1441,2103,0,0,,1
982346DJ,fd2iyxikvm,Nick_Dissertation_EX1,1,322,2020-08-27T11:19:16-07:00,2.3361949920654,2,versionA_stim.csv,READVersionB.csv,"Read Version B","Dissertation, read only version B",KING,VASE,Study1,U,85,65,Test,User,-,,Recall,Recall2,2023,lion,0,1309,1843,0,0,,1
982346DJ,fd2iyxikvm,Nick_Dissertation_EX1,1,323,2020-08-27T11:19:18-07:00,2.6270711421967,2,versionA_stim.csv,READVersionB.csv,"Read Version B","Dissertation, read only version B",ORCHID,FLOWER,Study1,F,24,67,Test,User,-,,Recall,Recall2,2280,flower,100,1333,2140,1,1,,1
982346DJ,fd2iyxikvm,Nick_Dissertation_EX1,1,324,2020-08-27T11:19:21-07:00,2.2986459732056,2,versionA_stim.csv,READVersionB.csv,"Read Version B","Dissertation, read only version B",DARK,CAVE,Study1,B,28,70,Test,User,-,,Recall,Recall2,1850,light,0,1192,1678,0,0,,1
982346DJ,fd2iyxikvm,Nick_Dissertation_EX1,1,325,2020-08-27T11:19:23-07:00,2.0685029029846,2,versionA_stim.csv,READVersionB.csv,"Read Version B","Dissertation, read only version B",WORK,CHORE,Study1,B,39,77,Test,User,-,,Recall,Recall2,1830,money,40,1219,1689,0,0,,1
982346DJ,fd2iyxikvm,Nick_Dissertation_EX1,1,326,2020-08-27T11:19:24-07:00,1.77809715271,2,versionA_stim.csv,READVersionB.csv,"Read Version B","Dissertation, read only version B",POP,SODA,Study1,S,56,33,Test,User,-,,Recall,Recall2,1529,soda,100,964,1378,1,1,,1
982346DJ,fd2iyxikvm,Nick_Dissertation_EX1,1,327,2020-08-27T11:19:28-07:00,3.8743569850922,2,versionA_stim.csv,READVersionB.csv,"Read Version B","Dissertation, read only version B",WINE,CHEESE,Study1,S,57,78,Test,User,-,,Recall,Recall2,3497,glass,18.181818181818,1206,3356,0,0,,1
982346DJ,fd2iyxikvm,Nick_Dissertation_EX1,1,328,2020-08-27T11:19:32-07:00,3.3959560394287,2,versionA_stim.csv,READVersionB.csv,"Read Version B","Dissertation, read only version B",PAST,FUTURE,Study1,S,61,71,Test,User,-,,Recall,Recall2,3119,preseny,30.769230769231,1894,2948,0,0,,1
982346DJ,fd2iyxikvm,Nick_Dissertation_EX1,1,329,2020-08-27T11:19:34-07:00,2.6497488021851,2,versionA_stim.csv,READVersionB.csv,"Read Version B","Dissertation, read only version B",DISCUSSION,TALK,Study1,F,21,83,Test,User,-,,Recall,Recall2,2402,talk,100,1217,2135,1,1,,1
982346DJ,fd2iyxikvm,Nick_Dissertation_EX1,1,330,2020-08-27T11:19:36-07:00,1.7879900932312,2,versionA_stim.csv,READVersionB.csv,"Read Version B","Dissertation, read only version B",CASH,WOULD,Study1,U,83,37,Test,User,-,,Recall,Recall2,1542,money,20,893,1378,0,0,,1
982346DJ,fd2iyxikvm,Nick_Dissertation_EX1,1,331,2020-08-27T11:19:38-07:00,2.2936670780182,2,versionA_stim.csv,READVersionB.csv,"Read Version B","Dissertation, read only version B",MACHINE,POSITION,Study1,U,76,43,Test,User,-,,Recall,Recall2,1861,gun,18.181818181818,1420,1682,0,0,,1
982346DJ,fd2iyxikvm,Nick_Dissertation_EX1,1,332,2020-08-27T11:19:43-07:00,4.6679220199585,2,versionA_stim.csv,READVersionB.csv,"Read Version B","Dissertation, read only version B",SENTENCE,WORD,Study1,B,31,28,Test,User,-,,Recall,Recall2,4336,period,40,1430,4156,0,0,,1
982346DJ,fd2iyxikvm,Nick_Dissertation_EX1,1,333,2020-08-27T11:19:46-07:00,2.5469059944153,2,versionA_stim.csv,READVersionB.csv,"Read Version B","Dissertation, read only version B",PLANE,PILOT,Study1,B,44,26,Test,User,-,,Recall,Recall2,2232,crash,0,1414,2037,0,0,,1
982346DJ,fd2iyxikvm,Nick_Dissertation_EX1,1,334,2020-08-27T11:19:49-07:00,2.8761827945709,2,versionA_stim.csv,READVersionB.csv,"Read Version B","Dissertation, read only version B",LOCATION,SITE,Study1,S,48,72,Test,User,-,,Recall,Recall2,2586,here,25,2088,2454,0,0,,1
982346DJ,fd2iyxikvm,Nick_Dissertation_EX1,1,335,2020-08-27T11:19:53-07:00,4.0818331241608,2,versionA_stim.csv,READVersionB.csv,"Read Version B","Dissertation, read only version B",BLOW,WIND,Study1,S,55,32,Test,User,-,,Recall,Recall2,3765,flow,25,2731,3128,0,0,,1
982346DJ,fd2iyxikvm,Nick_Dissertation_EX1,1,336,2020-08-27T11:20:00-07:00,7.6122670173645,2,versionA_stim.csv,READVersionB.csv,"Read Version B","Dissertation, read only version B",STRONG,ACCIDENT,Study1,U,80,54,Test,User,-,,Recall,Recall2,7325,,0,-1,-1,0,0,,1
982346DJ,fd2iyxikvm,Nick_Dissertation_EX1,1,337,2020-08-27T11:20:02-07:00,1.9134480953217,2,versionA_stim.csv,READVersionB.csv,"Read Version B","Dissertation, read only version B",PAW,DOG,Study1,F,15,79,Test,User,-,,Recall,Recall2,1682,dog,100,1312,1549,1,1,,1
982346DJ,fd2iyxikvm,Nick_Dissertation_EX1,1,338,2020-08-27T11:20:05-07:00,2.631903886795,2,versionA_stim.csv,READVersionB.csv,"Read Version B","Dissertation, read only version B",DUMP,WASTE,Study1,S,49,12,Test,User,-,,Recall,Recall2,2350,trash,40,1285,2107,0,0,,1
982346DJ,fd2iyxikvm,Nick_Dissertation_EX1,1,339,2020-08-27T11:20:07-07:00,2.60755610466,2,versionA_stim.csv,READVersionB.csv,"Read Version B","Dissertation, read only version B",DEBATE,SIGHT,Study1,U,73,11,Test,User,-,,Recall,Recall2,2312,argue,20,1575,2133,0,0,,1
982346DJ,fd2iyxikvm,Nick_Dissertation_EX1,1,340,2020-08-27T11:20:11-07:00,3.2447869777679,2,versionA_stim.csv,READVersionB.csv,"Read Version B","Dissertation, read only version B",PARK,HUNGRY,Study1,U,68,30,Test,User,-,,Recall,Recall2,2956,parallel,14.285714285714,1592,2630,0,0,,1
982346DJ,fd2iyxikvm,Nick_Dissertation_EX1,1,341,2020-08-27T11:20:13-07:00,2.3756339550018,2,versionA_stim.csv,READVersionB.csv,"Read Version B","Dissertation, read only version B",DELINQUENT,BAD,Study1,F,6,66,Test,User,-,,Recall,Recall2,2071,,0,-1,-1,0,0,,1
982346DJ,fd2iyxikvm,Nick_Dissertation_EX1,1,342,2020-08-27T11:20:16-07:00,2.5996990203857,2,versionA_stim.csv,READVersionB.csv,"Read Version B","Dissertation, read only version B",FIRE,BLAZE,Study1,B,45,34,Test,User,-,,Recall,Recall2,2252,hot,0,1314,1657,0,0,,1
982346DJ,fd2iyxikvm,Nick_Dissertation_EX1,1,343,2020-08-27T11:20:19-07:00,3.2399349212646,2,versionA_stim.csv,READVersionB.csv,"Read Version B","Dissertation, read only version B",NUMBER,AMOUNT,Study1,S,47,75,Test,User,-,,Recall,Recall2,2911,game,40,1622,2788,0,0,,1
982346DJ,fd2iyxikvm,Nick_Dissertation_EX1,1,344,2020-08-27T11:20:21-07:00,2.080738067627,2,versionA_stim.csv,READVersionB.csv,"Read Version B","Dissertation, read only version B",SHOE,FOOT,Study1,S,60,41,Test,User,-,,Recall,Recall2,1803,strign,20,954,1624,0,0,,1
982346DJ,fd2iyxikvm,Nick_Dissertation_EX1,1,345,2020-08-27T11:20:24-07:00,3.5635788440704,2,versionA_stim.csv,READVersionB.csv,"Read Version B","Dissertation, read only version B",BITTER,COLD,Study1,F,12,74,Test,User,-,,Recall,Recall2,3273,battter,0,2289,3141,0,0,,1
982346DJ,fd2iyxikvm,Nick_Dissertation_EX1,1,346,2020-08-27T11:20:29-07:00,4.5277500152588,2,versionA_stim.csv,READVersionB.csv,"Read Version B","Dissertation, read only version B",DUE,ASSIGNMENT,Study1,S,46,15,Test,User,-,,Recall,Recall2,4221,date,28.571428571429,1077,4074,0,0,,1
982346DJ,fd2iyxikvm,Nick_Dissertation_EX1,1,347,2020-08-27T11:20:32-07:00,2.7990911006927,2,versionA_stim.csv,READVersionB.csv,"Read Version B","Dissertation, read only version B",SWAN,BIRD,Study1,F,14,64,Test,User,-,,Recall,Recall2,2486,swim,25,1766,2290,0,0,,1
982346DJ,fd2iyxikvm,Nick_Dissertation_EX1,1,348,2020-08-27T11:20:34-07:00,2.2243299484253,2,versionA_stim.csv,READVersionB.csv,"Read Version B","Dissertation, read only version B",LETTUCE,SALAD,Study1,S,59,80,Test,User,-,,Recall,Recall2,1888,tomato,18.181818181818,1064,1589,0,0,,1
982346DJ,fd2iyxikvm,Nick_Dissertation_EX1,1,349,2020-08-27T11:20:35-07:00,1.4748561382294,2,versionA_stim.csv,READVersionB.csv,"Read Version B","Dissertation, read only version B",,,,,,0,Instruct,User,-,"You have completed this section. Please press Enter.",,Instruct7,1261,,,-1,-1,,,,1
982346DJ,fd2iyxikvm,Nick_Dissertation_EX1,1,350,2020-08-27T11:20:37-07:00,1.8906989097595,2,versionA_stim.csv,READVersionB.csv,"Read Version B","Dissertation, read only version B",,,,,,0,Instruct,User,-,"The following screen will ask you a few questions abour your experience today. You must complete these questions to receive credit.",,Instruct8,1634,,,-1,-1,,,,1
