Username,ID,ExperimentName,Session,Trial,Date,TimeDif,"Condition Number","Stimuli File","Order File","Condition Description","Condition Notes",Stimuli*Cue,Stimuli*Answer,Stimuli*Shuffle,"Stimuli*Stimuli Notes",Stimuli*Value,Procedure*Item,"Procedure*Trial Type","Procedure*Max Time","Procedure*Min Time",Procedure*Text,"Procedure*Procedure Notes",Procedure*Shuffle,Response*RT,Response*Response,Response*Accuracy,Response*RTfirst,Response*RTlast,Response*strictAcc,Response*lenientAcc,Response*focus,Response*Focus
w980000_lf,5iqf61ok6f,Nick_Dissertation_EX1,1,1,2020-08-17T11:37:42-07:00,13.372410058975,1,versionA_stim.csv,READVersionA.csv,"Read Version A","Dissertation, read only version A",,,,,,0,Instruct,-,10,"Please study each of the following word pairs. Remember that your memory will be tested! When finished, press Enter to move to the next pair.",Initial_Instruct,Instruct1,13129,,,-1,-1,,,,1
w980000_lf,5iqf61ok6f,Nick_Dissertation_EX1,1,2,2020-08-17T11:37:47-07:00,4.3278388977051,1,versionA_stim.csv,READVersionA.csv,"Read Version A","Dissertation, read only version A",TREES,GREEN,BUFFER1,Buffer,1,2,Study,User,-,,Study/JOL,BUFFER,4071,,,-1,-1,,,,1
w980000_lf,5iqf61ok6f,Nick_Dissertation_EX1,1,3,2020-08-17T11:37:50-07:00,3.7945821285248,1,versionA_stim.csv,READVersionA.csv,"Read Version A","Dissertation, read only version A",SCARE,HIDE,BUFFER1,Buffer,4,6,Study,User,-,,Study/JOL,BUFFER,3437,,,-1,-1,,,,1
w980000_lf,5iqf61ok6f,Nick_Dissertation_EX1,1,4,2020-08-17T11:37:54-07:00,3.915874004364,1,versionA_stim.csv,READVersionA.csv,"Read Version A","Dissertation, read only version A",BASEBALL,CATCHER,BUFFER1,Buffer,2,5,Study,User,-,,Study/JOL,BUFFER,3660,,,-1,-1,,,,1
w980000_lf,5iqf61ok6f,Nick_Dissertation_EX1,1,5,2020-08-17T11:37:58-07:00,3.4078369140625,1,versionA_stim.csv,READVersionA.csv,"Read Version A","Dissertation, read only version A",PEANUT,BUTTER,BUFFER1,Buffer,3,3,Study,User,-,,Study/JOL,BUFFER,3110,,,-1,-1,,,,1
w980000_lf,5iqf61ok6f,Nick_Dissertation_EX1,1,6,2020-08-17T11:38:00-07:00,1.9225199222565,1,versionA_stim.csv,READVersionA.csv,"Read Version A","Dissertation, read only version A",SPACE,JAM,BUFFER1,Buffer,5,4,Study,User,-,,Study/JOL,BUFFER,1687,,,-1,-1,,,,1
w980000_lf,5iqf61ok6f,Nick_Dissertation_EX1,1,7,2020-08-17T11:38:03-07:00,2.9606051445007,1,versionA_stim.csv,READVersionA.csv,"Read Version A","Dissertation, read only version A",ROOT,PLANT,Study1,F,13,57,Study,User,-,,Study/JOL,"Study Phase",2655,,,-1,-1,,,,1
w980000_lf,5iqf61ok6f,Nick_Dissertation_EX1,1,8,2020-08-17T11:38:09-07:00,6.9512829780579,1,versionA_stim.csv,READVersionA.csv,"Read Version A","Dissertation, read only version A",SOON,BELT,Study1,U,70,72,Study,User,-,,Study/JOL,"Study Phase",6644,,,-1,-1,,,,1
w980000_lf,5iqf61ok6f,Nick_Dissertation_EX1,1,9,2020-08-17T11:38:13-07:00,3.7470710277557,1,versionA_stim.csv,READVersionA.csv,"Read Version A","Dissertation, read only version A",MACHINE,POSITION,Study1,U,76,31,Study,User,-,,Study/JOL,"Study Phase",3431,,,-1,-1,,,,1
w980000_lf,5iqf61ok6f,Nick_Dissertation_EX1,1,10,2020-08-17T11:38:16-07:00,3.0986800193787,1,versionA_stim.csv,READVersionA.csv,"Read Version A","Dissertation, read only version A",PARK,HUNGRY,Study1,U,68,69,Study,User,-,,Study/JOL,"Study Phase",2798,,,-1,-1,,,,1
w980000_lf,5iqf61ok6f,Nick_Dissertation_EX1,1,11,2020-08-17T11:38:20-07:00,3.781023979187,1,versionA_stim.csv,READVersionA.csv,"Read Version A","Dissertation, read only version A",DISCUSSION,TALK,Study1,F,21,84,Study,User,-,,Study/JOL,"Study Phase",3482,,,-1,-1,,,,1
w980000_lf,5iqf61ok6f,Nick_Dissertation_EX1,1,12,2020-08-17T11:38:23-07:00,3.0217609405518,1,versionA_stim.csv,READVersionA.csv,"Read Version A","Dissertation, read only version A",GREAT,FANTASTIC,Study1,B,35,78,Study,User,-,,Study/JOL,"Study Phase",2710,,,-1,-1,,,,1
w980000_lf,5iqf61ok6f,Nick_Dissertation_EX1,1,13,2020-08-17T11:38:25-07:00,2.3621470928192,1,versionA_stim.csv,READVersionA.csv,"Read Version A","Dissertation, read only version A",LOCATION,SITE,Study1,S,48,26,Study,User,-,,Study/JOL,"Study Phase",2056,,,-1,-1,,,,1
w980000_lf,5iqf61ok6f,Nick_Dissertation_EX1,1,14,2020-08-17T11:38:29-07:00,3.7613558769226,1,versionA_stim.csv,READVersionA.csv,"Read Version A","Dissertation, read only version A",HONEY,BEE,Study1,S,63,76,Study,User,-,,Study/JOL,"Study Phase",3405,,,-1,-1,,,,1
w980000_lf,5iqf61ok6f,Nick_Dissertation_EX1,1,15,2020-08-17T11:38:34-07:00,5.1064920425415,1,versionA_stim.csv,READVersionA.csv,"Read Version A","Dissertation, read only version A",PUSHER,CLUTTER,Study1,U,66,22,Study,User,-,,Study/JOL,"Study Phase",4773,,,-1,-1,,,,1
w980000_lf,5iqf61ok6f,Nick_Dissertation_EX1,1,16,2020-08-17T11:38:40-07:00,6.1304409503937,1,versionA_stim.csv,READVersionA.csv,"Read Version A","Dissertation, read only version A",BLOW,WIND,Study1,S,55,17,Study,User,-,,Study/JOL,"Study Phase",4812,,,-1,-1,,,,1
w980000_lf,5iqf61ok6f,Nick_Dissertation_EX1,1,17,2020-08-17T11:38:44-07:00,3.5093560218811,1,versionA_stim.csv,READVersionA.csv,"Read Version A","Dissertation, read only version A",TAKE,SEIZE,Study1,B,29,47,Study,User,-,,Study/JOL,"Study Phase",3177,,,-1,-1,,,,1
w980000_lf,5iqf61ok6f,Nick_Dissertation_EX1,1,18,2020-08-17T11:38:48-07:00,4.487368106842,1,versionA_stim.csv,READVersionA.csv,"Read Version A","Dissertation, read only version A",TRIAL,JURY,Study1,S,50,8,Study,User,-,,Study/JOL,"Study Phase",4189,,,-1,-1,,,,1
w980000_lf,5iqf61ok6f,Nick_Dissertation_EX1,1,19,2020-08-17T11:38:52-07:00,3.7623839378357,1,versionA_stim.csv,READVersionA.csv,"Read Version A","Dissertation, read only version A",BATHROOM,TOILET,Study1,S,58,12,Study,User,-,,Study/JOL,"Study Phase",3468,,,-1,-1,,,,1
w980000_lf,5iqf61ok6f,Nick_Dissertation_EX1,1,20,2020-08-17T11:38:54-07:00,1.9316608905792,1,versionA_stim.csv,READVersionA.csv,"Read Version A","Dissertation, read only version A",BEGIN,END,Study1,S,54,40,Study,User,-,,Study/JOL,"Study Phase",1669,,,-1,-1,,,,1
w980000_lf,5iqf61ok6f,Nick_Dissertation_EX1,1,21,2020-08-17T11:38:58-07:00,3.7658500671387,1,versionA_stim.csv,READVersionA.csv,"Read Version A","Dissertation, read only version A",LETTUCE,SALAD,Study1,S,59,77,Study,User,-,,Study/JOL,"Study Phase",3468,,,-1,-1,,,,1
w980000_lf,5iqf61ok6f,Nick_Dissertation_EX1,1,22,2020-08-17T11:39:03-07:00,5.1648790836334,1,versionA_stim.csv,READVersionA.csv,"Read Version A","Dissertation, read only version A",BITTER,COLD,Study1,F,12,39,Study,User,-,,Study/JOL,"Study Phase",4844,,,-1,-1,,,,1
w980000_lf,5iqf61ok6f,Nick_Dissertation_EX1,1,23,2020-08-17T11:39:07-07:00,4.0848159790039,1,versionA_stim.csv,READVersionA.csv,"Read Version A","Dissertation, read only version A",PLANE,PILOT,Study1,B,44,53,Study,User,-,,Study/JOL,"Study Phase",3766,,,-1,-1,,,,1
w980000_lf,5iqf61ok6f,Nick_Dissertation_EX1,1,24,2020-08-17T11:39:11-07:00,3.3465280532837,1,versionA_stim.csv,READVersionA.csv,"Read Version A","Dissertation, read only version A",HYGIENE,CLEAN,Study1,F,17,34,Study,User,-,,Study/JOL,"Study Phase",2971,,,-1,-1,,,,1
w980000_lf,5iqf61ok6f,Nick_Dissertation_EX1,1,25,2020-08-17T11:39:14-07:00,3.7523047924042,1,versionA_stim.csv,READVersionA.csv,"Read Version A","Dissertation, read only version A",HOT,CHILI,Study1,B,37,66,Study,User,-,,Study/JOL,"Study Phase",3449,,,-1,-1,,,,1
w980000_lf,5iqf61ok6f,Nick_Dissertation_EX1,1,26,2020-08-17T11:39:18-07:00,3.5341641902924,1,versionA_stim.csv,READVersionA.csv,"Read Version A","Dissertation, read only version A",GRILL,BAR,Study1,S,52,52,Study,User,-,,Study/JOL,"Study Phase",3137,,,-1,-1,,,,1
w980000_lf,5iqf61ok6f,Nick_Dissertation_EX1,1,27,2020-08-17T11:39:21-07:00,2.7053649425507,1,versionA_stim.csv,READVersionA.csv,"Read Version A","Dissertation, read only version A",TUNA,FISH,Study1,F,25,79,Study,User,-,,Study/JOL,"Study Phase",2385,,,-1,-1,,,,1
w980000_lf,5iqf61ok6f,Nick_Dissertation_EX1,1,28,2020-08-17T11:39:23-07:00,2.7071139812469,1,versionA_stim.csv,READVersionA.csv,"Read Version A","Dissertation, read only version A",DUMP,WASTE,Study1,S,49,44,Study,User,-,,Study/JOL,"Study Phase",2406,,,-1,-1,,,,1
w980000_lf,5iqf61ok6f,Nick_Dissertation_EX1,1,29,2020-08-17T11:39:26-07:00,3.1189889907837,1,versionA_stim.csv,READVersionA.csv,"Read Version A","Dissertation, read only version A",FIRE,BLAZE,Study1,B,45,43,Study,User,-,,Study/JOL,"Study Phase",2791,,,-1,-1,,,,1
w980000_lf,5iqf61ok6f,Nick_Dissertation_EX1,1,30,2020-08-17T11:39:29-07:00,2.4130570888519,1,versionA_stim.csv,READVersionA.csv,"Read Version A","Dissertation, read only version A",DRINK,SIP,Study1,B,27,7,Study,User,-,,Study/JOL,"Study Phase",2096,,,-1,-1,,,,1
w980000_lf,5iqf61ok6f,Nick_Dissertation_EX1,1,31,2020-08-17T11:39:32-07:00,3.519788980484,1,versionA_stim.csv,READVersionA.csv,"Read Version A","Dissertation, read only version A",FIX,HAND,Study1,U,75,19,Study,User,-,,Study/JOL,"Study Phase",2145,,,-1,-1,,,,1
w980000_lf,5iqf61ok6f,Nick_Dissertation_EX1,1,32,2020-08-17T11:39:35-07:00,3.0528769493103,1,versionA_stim.csv,READVersionA.csv,"Read Version A","Dissertation, read only version A",WINE,CHEESE,Study1,S,57,61,Study,User,-,,Study/JOL,"Study Phase",2725,,,-1,-1,,,,1
w980000_lf,5iqf61ok6f,Nick_Dissertation_EX1,1,33,2020-08-17T11:39:39-07:00,3.2595338821411,1,versionA_stim.csv,READVersionA.csv,"Read Version A","Dissertation, read only version A",KEY,LATCH,Study1,B,36,83,Study,User,-,,Study/JOL,"Study Phase",2950,,,-1,-1,,,,1
w980000_lf,5iqf61ok6f,Nick_Dissertation_EX1,1,34,2020-08-17T11:39:42-07:00,3.0238330364227,1,versionA_stim.csv,READVersionA.csv,"Read Version A","Dissertation, read only version A",CREDIT,CARD,Study1,F,23,68,Study,User,-,,Study/JOL,"Study Phase",2716,,,-1,-1,,,,1
w980000_lf,5iqf61ok6f,Nick_Dissertation_EX1,1,35,2020-08-17T11:39:44-07:00,2.7677550315857,1,versionA_stim.csv,READVersionA.csv,"Read Version A","Dissertation, read only version A",DARK,CAVE,Study1,B,28,20,Study,User,-,,Study/JOL,"Study Phase",2482,,,-1,-1,,,,1
w980000_lf,5iqf61ok6f,Nick_Dissertation_EX1,1,36,2020-08-17T11:39:48-07:00,3.1484379768372,1,versionA_stim.csv,READVersionA.csv,"Read Version A","Dissertation, read only version A",SMELL,STENCH,Study1,B,42,81,Study,User,-,,Study/JOL,"Study Phase",2830,,,-1,-1,,,,1
w980000_lf,5iqf61ok6f,Nick_Dissertation_EX1,1,37,2020-08-17T11:39:49-07:00,1.8043100833893,1,versionA_stim.csv,READVersionA.csv,"Read Version A","Dissertation, read only version A",WAY,OUT,Study1,F,16,32,Study,User,-,,Study/JOL,"Study Phase",1547,,,-1,-1,,,,1
w980000_lf,5iqf61ok6f,Nick_Dissertation_EX1,1,38,2020-08-17T11:39:51-07:00,2.0633289813995,1,versionA_stim.csv,READVersionA.csv,"Read Version A","Dissertation, read only version A",HORNET,STING,Study1,F,11,80,Study,User,-,,Study/JOL,"Study Phase",1825,,,-1,-1,,,,1
w980000_lf,5iqf61ok6f,Nick_Dissertation_EX1,1,39,2020-08-17T11:39:53-07:00,1.9035398960114,1,versionA_stim.csv,READVersionA.csv,"Read Version A","Dissertation, read only version A",ART,LION,Study1,U,79,18,Study,User,-,,Study/JOL,"Study Phase",1654,,,-1,-1,,,,1
w980000_lf,5iqf61ok6f,Nick_Dissertation_EX1,1,40,2020-08-17T11:39:56-07:00,2.833132982254,1,versionA_stim.csv,READVersionA.csv,"Read Version A","Dissertation, read only version A",ORCHID,FLOWER,Study1,F,24,55,Study,User,-,,Study/JOL,"Study Phase",2517,,,-1,-1,,,,1
w980000_lf,5iqf61ok6f,Nick_Dissertation_EX1,1,41,2020-08-17T11:39:58-07:00,1.9272730350494,1,versionA_stim.csv,READVersionA.csv,"Read Version A","Dissertation, read only version A",KIDNEY,LIVER,Study1,S,53,27,Study,User,-,,Study/JOL,"Study Phase",1684,,,-1,-1,,,,1
w980000_lf,5iqf61ok6f,Nick_Dissertation_EX1,1,42,2020-08-17T11:40:02-07:00,3.8156850337982,1,versionA_stim.csv,READVersionA.csv,"Read Version A","Dissertation, read only version A",LIFT,WOMAN,Study1,U,69,65,Study,User,-,,Study/JOL,"Study Phase",3512,,,-1,-1,,,,1
w980000_lf,5iqf61ok6f,Nick_Dissertation_EX1,1,43,2020-08-17T11:40:04-07:00,2.4058570861816,1,versionA_stim.csv,READVersionA.csv,"Read Version A","Dissertation, read only version A",LAW,ATTORNEY,Study1,B,34,49,Study,User,-,,Study/JOL,"Study Phase",2069,,,-1,-1,,,,1
w980000_lf,5iqf61ok6f,Nick_Dissertation_EX1,1,44,2020-08-17T11:40:08-07:00,4.197566986084,1,versionA_stim.csv,READVersionA.csv,"Read Version A","Dissertation, read only version A",KING,VASE,Study1,U,85,35,Study,User,-,,Study/JOL,"Study Phase",3873,,,-1,-1,,,,1
w980000_lf,5iqf61ok6f,Nick_Dissertation_EX1,1,45,2020-08-17T11:40:12-07:00,3.3978569507599,1,versionA_stim.csv,READVersionA.csv,"Read Version A","Dissertation, read only version A",CIRCLE,ROUND,Study1,S,65,9,Study,User,-,,Study/JOL,"Study Phase",3091,,,-1,-1,,,,1
w980000_lf,5iqf61ok6f,Nick_Dissertation_EX1,1,46,2020-08-17T11:40:15-07:00,3.2108471393585,1,versionA_stim.csv,READVersionA.csv,"Read Version A","Dissertation, read only version A",BRIDGE,WATER,Study1,F,18,38,Study,User,-,,Study/JOL,"Study Phase",2900,,,-1,-1,,,,1
w980000_lf,5iqf61ok6f,Nick_Dissertation_EX1,1,47,2020-08-17T11:40:18-07:00,2.6194889545441,1,versionA_stim.csv,READVersionA.csv,"Read Version A","Dissertation, read only version A",REVOLUTION,WAR,Study1,F,20,45,Study,User,-,,Study/JOL,"Study Phase",2295,,,-1,-1,,,,1
w980000_lf,5iqf61ok6f,Nick_Dissertation_EX1,1,48,2020-08-17T11:40:20-07:00,2.3229479789734,1,versionA_stim.csv,READVersionA.csv,"Read Version A","Dissertation, read only version A",SLEEP,DROWSY,Study1,B,41,30,Study,User,-,,Study/JOL,"Study Phase",2019,,,-1,-1,,,,1
w980000_lf,5iqf61ok6f,Nick_Dissertation_EX1,1,49,2020-08-17T11:40:23-07:00,2.6440908908844,1,versionA_stim.csv,READVersionA.csv,"Read Version A","Dissertation, read only version A",FULL,ENOUGH,Study1,B,26,15,Study,User,-,,Study/JOL,"Study Phase",2333,,,-1,-1,,,,1
w980000_lf,5iqf61ok6f,Nick_Dissertation_EX1,1,50,2020-08-17T11:40:24-07:00,1.6148300170898,1,versionA_stim.csv,READVersionA.csv,"Read Version A","Dissertation, read only version A",MATH,DIVISION,Study1,B,33,51,Study,User,-,,Study/JOL,"Study Phase",1356,,,-1,-1,,,,1
w980000_lf,5iqf61ok6f,Nick_Dissertation_EX1,1,51,2020-08-17T11:40:26-07:00,1.9801239967346,1,versionA_stim.csv,READVersionA.csv,"Read Version A","Dissertation, read only version A",DELINQUENT,BAD,Study1,F,6,86,Study,User,-,,Study/JOL,"Study Phase",1726,,,-1,-1,,,,1
w980000_lf,5iqf61ok6f,Nick_Dissertation_EX1,1,52,2020-08-17T11:40:28-07:00,1.8324899673462,1,versionA_stim.csv,READVersionA.csv,"Read Version A","Dissertation, read only version A",PAW,DOG,Study1,F,15,37,Study,User,-,,Study/JOL,"Study Phase",1579,,,-1,-1,,,,1
w980000_lf,5iqf61ok6f,Nick_Dissertation_EX1,1,53,2020-08-17T11:40:32-07:00,4.0664670467377,1,versionA_stim.csv,READVersionA.csv,"Read Version A","Dissertation, read only version A",DEBATE,SIGHT,Study1,U,73,28,Study,User,-,,Study/JOL,"Study Phase",3762,,,-1,-1,,,,1
w980000_lf,5iqf61ok6f,Nick_Dissertation_EX1,1,54,2020-08-17T11:40:34-07:00,2.2316470146179,1,versionA_stim.csv,READVersionA.csv,"Read Version A","Dissertation, read only version A",GEOLOGY,ROCK,Study1,F,19,82,Study,User,-,,Study/JOL,"Study Phase",1931,,,-1,-1,,,,1
w980000_lf,5iqf61ok6f,Nick_Dissertation_EX1,1,55,2020-08-17T11:40:36-07:00,1.8860819339752,1,versionA_stim.csv,READVersionA.csv,"Read Version A","Dissertation, read only version A",HUNGER,FAMINE,Study1,B,40,13,Study,User,-,,Study/JOL,"Study Phase",1651,,,-1,-1,,,,1
w980000_lf,5iqf61ok6f,Nick_Dissertation_EX1,1,56,2020-08-17T11:40:38-07:00,1.985053062439,1,versionA_stim.csv,READVersionA.csv,"Read Version A","Dissertation, read only version A",EDITOR,NEWS,Study1,F,10,16,Study,User,-,,Study/JOL,"Study Phase",1740,,,-1,-1,,,,1
w980000_lf,5iqf61ok6f,Nick_Dissertation_EX1,1,57,2020-08-17T11:40:41-07:00,2.9429371356964,1,versionA_stim.csv,READVersionA.csv,"Read Version A","Dissertation, read only version A",STRONG,ACCIDENT,Study1,U,80,42,Study,User,-,,Study/JOL,"Study Phase",2637,,,-1,-1,,,,1
w980000_lf,5iqf61ok6f,Nick_Dissertation_EX1,1,58,2020-08-17T11:40:44-07:00,2.6138508319855,1,versionA_stim.csv,READVersionA.csv,"Read Version A","Dissertation, read only version A",NUMBER,AMOUNT,Study1,S,47,73,Study,User,-,,Study/JOL,"Study Phase",2299,,,-1,-1,,,,1
w980000_lf,5iqf61ok6f,Nick_Dissertation_EX1,1,59,2020-08-17T11:40:46-07:00,2.3156521320343,1,versionA_stim.csv,READVersionA.csv,"Read Version A","Dissertation, read only version A",CHISEL,HAMMER,Study1,F,9,11,Study,User,-,,Study/JOL,"Study Phase",2001,,,-1,-1,,,,1
w980000_lf,5iqf61ok6f,Nick_Dissertation_EX1,1,60,2020-08-17T11:40:48-07:00,2.0925760269165,1,versionA_stim.csv,READVersionA.csv,"Read Version A","Dissertation, read only version A",HAPPY,CAR,Study1,U,77,29,Study,User,-,,Study/JOL,"Study Phase",1851,,,-1,-1,,,,1
w980000_lf,5iqf61ok6f,Nick_Dissertation_EX1,1,61,2020-08-17T11:40:51-07:00,2.8146178722382,1,versionA_stim.csv,READVersionA.csv,"Read Version A","Dissertation, read only version A",WORK,CHORE,Study1,B,39,14,Study,User,-,,Study/JOL,"Study Phase",2513,,,-1,-1,,,,1
w980000_lf,5iqf61ok6f,Nick_Dissertation_EX1,1,62,2020-08-17T11:40:54-07:00,2.9432461261749,1,versionA_stim.csv,READVersionA.csv,"Read Version A","Dissertation, read only version A",HIDE,SICK,Study1,U,84,71,Study,User,-,,Study/JOL,"Study Phase",2641,,,-1,-1,,,,1
w980000_lf,5iqf61ok6f,Nick_Dissertation_EX1,1,63,2020-08-17T11:40:57-07:00,2.8309669494629,1,versionA_stim.csv,READVersionA.csv,"Read Version A","Dissertation, read only version A",DISCOVER,FLOOR,Study1,U,71,33,Study,User,-,,Study/JOL,"Study Phase",2529,,,-1,-1,,,,1
w980000_lf,5iqf61ok6f,Nick_Dissertation_EX1,1,64,2020-08-17T11:40:59-07:00,2.4846570491791,1,versionA_stim.csv,READVersionA.csv,"Read Version A","Dissertation, read only version A",DEATH,BUSINESS,Study1,U,72,24,Study,User,-,,Study/JOL,"Study Phase",2170,,,-1,-1,,,,1
w980000_lf,5iqf61ok6f,Nick_Dissertation_EX1,1,65,2020-08-17T11:41:02-07:00,2.4960958957672,1,versionA_stim.csv,READVersionA.csv,"Read Version A","Dissertation, read only version A",SWAN,BIRD,Study1,F,14,70,Study,User,-,,Study/JOL,"Study Phase",2185,,,-1,-1,,,,1
w980000_lf,5iqf61ok6f,Nick_Dissertation_EX1,1,66,2020-08-17T11:41:07-07:00,4.9175429344177,1,versionA_stim.csv,READVersionA.csv,"Read Version A","Dissertation, read only version A",ARTERY,BRONZE,Study1,U,74,59,Study,User,-,,Study/JOL,"Study Phase",4596,,,-1,-1,,,,1
w980000_lf,5iqf61ok6f,Nick_Dissertation_EX1,1,67,2020-08-17T11:41:09-07:00,1.8025460243225,1,versionA_stim.csv,READVersionA.csv,"Read Version A","Dissertation, read only version A",PAST,FUTURE,Study1,S,61,56,Study,User,-,,Study/JOL,"Study Phase",1535,,,-1,-1,,,,1
w980000_lf,5iqf61ok6f,Nick_Dissertation_EX1,1,68,2020-08-17T11:41:11-07:00,2.6593971252441,1,versionA_stim.csv,READVersionA.csv,"Read Version A","Dissertation, read only version A",SUGAR,RIDDLE,Study1,U,81,58,Study,User,-,,Study/JOL,"Study Phase",2349,,,-1,-1,,,,1
w980000_lf,5iqf61ok6f,Nick_Dissertation_EX1,1,69,2020-08-17T11:41:14-07:00,2.4638788700104,1,versionA_stim.csv,READVersionA.csv,"Read Version A","Dissertation, read only version A",DIGESTION,STOMACH,Study1,F,7,25,Study,User,-,,Study/JOL,"Study Phase",2140,,,-1,-1,,,,1
w980000_lf,5iqf61ok6f,Nick_Dissertation_EX1,1,70,2020-08-17T11:41:16-07:00,2.2510509490967,1,versionA_stim.csv,READVersionA.csv,"Read Version A","Dissertation, read only version A",ALLOW,TUCK,Study1,U,78,63,Study,User,-,,Study/JOL,"Study Phase",1894,,,-1,-1,,,,1
w980000_lf,5iqf61ok6f,Nick_Dissertation_EX1,1,71,2020-08-17T11:41:18-07:00,1.9034090042114,1,versionA_stim.csv,READVersionA.csv,"Read Version A","Dissertation, read only version A",HERD,COW,Study1,F,22,85,Study,User,-,,Study/JOL,"Study Phase",1659,,,-1,-1,,,,1
w980000_lf,5iqf61ok6f,Nick_Dissertation_EX1,1,72,2020-08-17T11:41:19-07:00,1.5689129829407,1,versionA_stim.csv,READVersionA.csv,"Read Version A","Dissertation, read only version A",CASH,WOULD,Study1,U,83,21,Study,User,-,,Study/JOL,"Study Phase",1286,,,-1,-1,,,,1
w980000_lf,5iqf61ok6f,Nick_Dissertation_EX1,1,73,2020-08-17T11:41:21-07:00,1.7819972038269,1,versionA_stim.csv,READVersionA.csv,"Read Version A","Dissertation, read only version A",HEIGHT,GROWTH,Study1,B,30,75,Study,User,-,,Study/JOL,"Study Phase",1548,,,-1,-1,,,,1
w980000_lf,5iqf61ok6f,Nick_Dissertation_EX1,1,74,2020-08-17T11:41:23-07:00,1.7101249694824,1,versionA_stim.csv,READVersionA.csv,"Read Version A","Dissertation, read only version A",BUG,WASP,Study1,B,32,46,Study,User,-,,Study/JOL,"Study Phase",1462,,,-1,-1,,,,1
w980000_lf,5iqf61ok6f,Nick_Dissertation_EX1,1,75,2020-08-17T11:41:24-07:00,1.2633588314056,1,versionA_stim.csv,READVersionA.csv,"Read Version A","Dissertation, read only version A",BABY,CHILD,Study1,S,64,62,Study,User,-,,Study/JOL,"Study Phase",1025,,,-1,-1,,,,1
w980000_lf,5iqf61ok6f,Nick_Dissertation_EX1,1,76,2020-08-17T11:41:26-07:00,1.527360200882,1,versionA_stim.csv,READVersionA.csv,"Read Version A","Dissertation, read only version A",WAGE,MONEY,Study1,F,8,36,Study,User,-,,Study/JOL,"Study Phase",1294,,,-1,-1,,,,1
w980000_lf,5iqf61ok6f,Nick_Dissertation_EX1,1,77,2020-08-17T11:41:30-07:00,3.9014148712158,1,versionA_stim.csv,READVersionA.csv,"Read Version A","Dissertation, read only version A",DIETARY,SACKING,Study1,U,67,10,Study,User,-,,Study/JOL,"Study Phase",3592,,,-1,-1,,,,1
w980000_lf,5iqf61ok6f,Nick_Dissertation_EX1,1,78,2020-08-17T11:41:32-07:00,2.2521741390228,1,versionA_stim.csv,READVersionA.csv,"Read Version A","Dissertation, read only version A",VALLEY,ADD,Study1,U,82,50,Study,User,-,,Study/JOL,"Study Phase",1925,,,-1,-1,,,,1
w980000_lf,5iqf61ok6f,Nick_Dissertation_EX1,1,79,2020-08-17T11:41:34-07:00,2.2209899425507,1,versionA_stim.csv,READVersionA.csv,"Read Version A","Dissertation, read only version A",DUE,ASSIGNMENT,Study1,S,46,54,Study,User,-,,Study/JOL,"Study Phase",1894,,,-1,-1,,,,1
w980000_lf,5iqf61ok6f,Nick_Dissertation_EX1,1,80,2020-08-17T11:41:36-07:00,1.7356200218201,1,versionA_stim.csv,READVersionA.csv,"Read Version A","Dissertation, read only version A",SENTENCE,WORD,Study1,B,31,48,Study,User,-,,Study/JOL,"Study Phase",1492,,,-1,-1,,,,1
w980000_lf,5iqf61ok6f,Nick_Dissertation_EX1,1,81,2020-08-17T11:41:38-07:00,1.7877128124237,1,versionA_stim.csv,READVersionA.csv,"Read Version A","Dissertation, read only version A",CLOTHES,ATTIRE,Study1,B,43,67,Study,User,-,,Study/JOL,"Study Phase",1536,,,-1,-1,,,,1
w980000_lf,5iqf61ok6f,Nick_Dissertation_EX1,1,82,2020-08-17T11:41:39-07:00,1.4805240631104,1,versionA_stim.csv,READVersionA.csv,"Read Version A","Dissertation, read only version A",SHOE,FOOT,Study1,S,60,23,Study,User,-,,Study/JOL,"Study Phase",1215,,,-1,-1,,,,1
w980000_lf,5iqf61ok6f,Nick_Dissertation_EX1,1,83,2020-08-17T11:41:41-07:00,1.4738321304321,1,versionA_stim.csv,READVersionA.csv,"Read Version A","Dissertation, read only version A",POP,SODA,Study1,S,56,60,Study,User,-,,Study/JOL,"Study Phase",1219,,,-1,-1,,,,1
w980000_lf,5iqf61ok6f,Nick_Dissertation_EX1,1,84,2020-08-17T11:41:42-07:00,1.5941808223724,1,versionA_stim.csv,READVersionA.csv,"Read Version A","Dissertation, read only version A",MEANING,DEFINITION,Study1,S,62,64,Study,User,-,,Study/JOL,"Study Phase",1346,,,-1,-1,,,,1
w980000_lf,5iqf61ok6f,Nick_Dissertation_EX1,1,85,2020-08-17T11:41:44-07:00,1.7981820106506,1,versionA_stim.csv,READVersionA.csv,"Read Version A","Dissertation, read only version A",BALL,RACKET,Study1,B,38,41,Study,User,-,,Study/JOL,"Study Phase",1551,,,-1,-1,,,,1
w980000_lf,5iqf61ok6f,Nick_Dissertation_EX1,1,86,2020-08-17T11:41:46-07:00,1.646094083786,1,versionA_stim.csv,READVersionA.csv,"Read Version A","Dissertation, read only version A",ARCHITECTURE,DESIGN,Study1,S,51,74,Study,User,-,,Study/JOL,"Study Phase",1389,,,-1,-1,,,,1
w980000_lf,5iqf61ok6f,Nick_Dissertation_EX1,1,87,2020-08-17T11:41:47-07:00,1.5538060665131,1,versionA_stim.csv,READVersionA.csv,"Read Version A","Dissertation, read only version A",MALT,CHOCOLATE,BUFFER2,Buffer,88,88,Study,User,-,,Study/JOL,BUFFER2,1316,,,-1,-1,,,,1
w980000_lf,5iqf61ok6f,Nick_Dissertation_EX1,1,88,2020-08-17T11:41:48-07:00,1.3960399627686,1,versionA_stim.csv,READVersionA.csv,"Read Version A","Dissertation, read only version A",MOON,SPACE,BUFFER2,Buffer,89,90,Study,User,-,,Study/JOL,BUFFER2,1162,,,-1,-1,,,,1
w980000_lf,5iqf61ok6f,Nick_Dissertation_EX1,1,89,2020-08-17T11:41:50-07:00,1.2546949386597,1,versionA_stim.csv,READVersionA.csv,"Read Version A","Dissertation, read only version A",GEESE,GOOSE,BUFFER2,Buffer,86,91,Study,User,-,,Study/JOL,BUFFER2,1008,,,-1,-1,,,,1
w980000_lf,5iqf61ok6f,Nick_Dissertation_EX1,1,90,2020-08-17T11:41:51-07:00,1.3294820785522,1,versionA_stim.csv,READVersionA.csv,"Read Version A","Dissertation, read only version A",THING,STUFF,BUFFER2,Buffer,90,89,Study,User,-,,Study/JOL,BUFFER2,1075,,,-1,-1,,,,1
w980000_lf,5iqf61ok6f,Nick_Dissertation_EX1,1,91,2020-08-17T11:41:52-07:00,1.3777329921722,1,versionA_stim.csv,READVersionA.csv,"Read Version A","Dissertation, read only version A",SHERRIF,POLICE,BUFFER2,Buffer,87,87,Study,User,-,,Study/JOL,BUFFER2,1114,,,-1,-1,,,,1
w980000_lf,5iqf61ok6f,Nick_Dissertation_EX1,1,92,2020-08-17T11:41:55-07:00,2.3858258724213,1,versionA_stim.csv,READVersionA.csv,"Read Version A","Dissertation, read only version A",,,,,,0,Instruct,User,-,"You have completed this section. Please press Enter.",Filler_Instruction,Instruct2,2080,,,-1,-1,,,,1
w980000_lf,5iqf61ok6f,Nick_Dissertation_EX1,1,93,2020-08-17T11:43:55-07:00,120.30932617188,1,versionA_stim.csv,READVersionA.csv,"Read Version A","Dissertation, read only version A",,,,,,0,FreeRecall,120,120,"Please list the 50 US states in alphabetical order. The task will automatically advance to the next screen after two minutes.",,Filler1,120011,"Alaska Alabama Arkansas California Colorado Delaware Florida Georgia Idaho Illinois Kansas Kentucky Louisiana Maryland Massachusetts Minnesota Mississippi ",0,6249,117068,0,0,,1
w980000_lf,5iqf61ok6f,Nick_Dissertation_EX1,1,94,2020-08-17T11:44:07-07:00,11.43767285347,1,versionA_stim.csv,READVersionA.csv,"Read Version A","Dissertation, read only version A",,,,,,0,Instruct,-,10,"You will now be presented with the first word from each of the previously studied item pairs. Please type the missing word. If you do not know the word, you may guess or press Enter to skip forward to the next pair.",,Instruct3,11126,,,-1,-1,,,,1
w980000_lf,5iqf61ok6f,Nick_Dissertation_EX1,1,95,2020-08-17T11:44:15-07:00,8.2205641269684,1,versionA_stim.csv,READVersionA.csv,"Read Version A","Dissertation, read only version A",GEOLOGY,ROCK,Study1,F,19,82,Test,User,-,,Recall,Recall1,7925,ROCK,100,1353,6648,1,1,,1
w980000_lf,5iqf61ok6f,Nick_Dissertation_EX1,1,96,2020-08-17T11:44:19-07:00,3.8771200180054,1,versionA_stim.csv,READVersionA.csv,"Read Version A","Dissertation, read only version A",ROOT,PLANT,Study1,F,13,57,Test,User,-,,Recall,Recall1,3542,PLANT,100,1572,2231,1,1,,1
w980000_lf,5iqf61ok6f,Nick_Dissertation_EX1,1,97,2020-08-17T11:44:26-07:00,7.6819310188293,1,versionA_stim.csv,READVersionA.csv,"Read Version A","Dissertation, read only version A",SOON,BELT,Study1,U,70,72,Test,User,-,,Recall,Recall1,7383,TIME,25,2937,4628,0,0,,1
w980000_lf,5iqf61ok6f,Nick_Dissertation_EX1,1,98,2020-08-17T11:44:31-07:00,4.7325057983398,1,versionA_stim.csv,READVersionA.csv,"Read Version A","Dissertation, read only version A",BLOW,WIND,Study1,S,55,17,Test,User,-,,Recall,Recall1,4437,FISH,25,2948,3264,0,0,,1
w980000_lf,5iqf61ok6f,Nick_Dissertation_EX1,1,99,2020-08-17T11:44:37-07:00,6.1801691055298,1,versionA_stim.csv,READVersionA.csv,"Read Version A","Dissertation, read only version A",SLEEP,DROWSY,Study1,B,41,30,Test,User,-,,Recall,Recall1,5866,WAKE,20,3759,4193,0,0,,1
w980000_lf,5iqf61ok6f,Nick_Dissertation_EX1,1,100,2020-08-17T11:44:43-07:00,5.8107950687408,1,versionA_stim.csv,READVersionA.csv,"Read Version A","Dissertation, read only version A",GREAT,FANTASTIC,Study1,B,35,78,Test,User,-,,Recall,Recall1,5513,FANTASTIC,100,3260,4456,1,1,,1
w980000_lf,5iqf61ok6f,Nick_Dissertation_EX1,1,101,2020-08-17T11:44:48-07:00,4.7091569900513,1,versionA_stim.csv,READVersionA.csv,"Read Version A","Dissertation, read only version A",HYGIENE,CLEAN,Study1,F,17,34,Test,User,-,,Recall,Recall1,4411,SHOWER,18.181818181818,2653,3268,0,0,,1
w980000_lf,5iqf61ok6f,Nick_Dissertation_EX1,1,102,2020-08-17T11:44:52-07:00,3.9355490207672,1,versionA_stim.csv,READVersionA.csv,"Read Version A","Dissertation, read only version A",DIGESTION,STOMACH,Study1,F,7,25,Test,User,-,,Recall,Recall1,3630,FOOD,18.181818181818,2006,2400,0,0,,1
w980000_lf,5iqf61ok6f,Nick_Dissertation_EX1,1,103,2020-08-17T11:45:05-07:00,13.562763929367,1,versionA_stim.csv,READVersionA.csv,"Read Version A","Dissertation, read only version A",TAKE,SEIZE,Study1,B,29,47,Test,User,-,,Recall,Recall1,13259,HOLD,0,4934,12221,0,0,,1
w980000_lf,5iqf61ok6f,Nick_Dissertation_EX1,1,104,2020-08-17T11:45:12-07:00,6.9252450466156,1,versionA_stim.csv,READVersionA.csv,"Read Version A","Dissertation, read only version A",BABY,CHILD,Study1,S,64,62,Test,User,-,,Recall,Recall1,6600,CHILD,100,4965,5546,1,1,,1
w980000_lf,5iqf61ok6f,Nick_Dissertation_EX1,1,105,2020-08-17T11:45:17-07:00,5.1383678913116,1,versionA_stim.csv,READVersionA.csv,"Read Version A","Dissertation, read only version A",LOCATION,SITE,Study1,S,48,26,Test,User,-,,Recall,Recall1,4819,PLACE,22.222222222222,1380,2106,0,0,,1
w980000_lf,5iqf61ok6f,Nick_Dissertation_EX1,1,106,2020-08-17T11:45:20-07:00,2.8876819610596,1,versionA_stim.csv,READVersionA.csv,"Read Version A","Dissertation, read only version A",DISCUSSION,TALK,Study1,F,21,84,Test,User,-,,Recall,Recall1,2574,TALK,100,1119,1510,1,1,,1
w980000_lf,5iqf61ok6f,Nick_Dissertation_EX1,1,107,2020-08-17T11:45:29-07:00,8.6971080303192,1,versionA_stim.csv,READVersionA.csv,"Read Version A","Dissertation, read only version A",HIDE,SICK,Study1,U,84,71,Test,User,-,,Recall,Recall1,8371,SICK,100,6254,6676,1,1,,1
w980000_lf,5iqf61ok6f,Nick_Dissertation_EX1,1,108,2020-08-17T11:45:34-07:00,5.1172280311584,1,versionA_stim.csv,READVersionA.csv,"Read Version A","Dissertation, read only version A",SMELL,STENCH,Study1,B,42,81,Test,User,-,,Recall,Recall1,4819,NOSE,20,3340,3793,0,0,,1
w980000_lf,5iqf61ok6f,Nick_Dissertation_EX1,1,109,2020-08-17T11:45:39-07:00,4.5860180854797,1,versionA_stim.csv,READVersionA.csv,"Read Version A","Dissertation, read only version A",FIX,HAND,Study1,U,75,19,Test,User,-,,Recall,Recall1,4270,REPAIR,20,1868,3157,0,0,,1
w980000_lf,5iqf61ok6f,Nick_Dissertation_EX1,1,110,2020-08-17T11:45:43-07:00,3.9485878944397,1,versionA_stim.csv,READVersionA.csv,"Read Version A","Dissertation, read only version A",HUNGER,FAMINE,Study1,B,40,13,Test,User,-,,Recall,Recall1,3641,FAMINE,100,1654,2330,1,1,,1
w980000_lf,5iqf61ok6f,Nick_Dissertation_EX1,1,111,2020-08-17T11:45:50-07:00,7.7813091278076,1,versionA_stim.csv,READVersionA.csv,"Read Version A","Dissertation, read only version A",CREDIT,CARD,Study1,F,23,68,Test,User,-,,Recall,Recall1,7445,MONEY,0,4207,6174,0,0,,1
w980000_lf,5iqf61ok6f,Nick_Dissertation_EX1,1,112,2020-08-17T11:45:55-07:00,4.6378519535065,1,versionA_stim.csv,READVersionA.csv,"Read Version A","Dissertation, read only version A",PAW,DOG,Study1,F,15,37,Test,User,-,,Recall,Recall1,4314,DOG,100,2679,2955,1,1,,1
w980000_lf,5iqf61ok6f,Nick_Dissertation_EX1,1,113,2020-08-17T11:46:00-07:00,5.1298320293427,1,versionA_stim.csv,READVersionA.csv,"Read Version A","Dissertation, read only version A",HEIGHT,GROWTH,Study1,B,30,75,Test,User,-,,Recall,Recall1,4827,TALL,20,3169,3598,0,0,,1
w980000_lf,5iqf61ok6f,Nick_Dissertation_EX1,1,114,2020-08-17T11:46:06-07:00,5.5839009284973,1,versionA_stim.csv,READVersionA.csv,"Read Version A","Dissertation, read only version A",TRIAL,JURY,Study1,S,50,8,Test,User,-,,Recall,Recall1,5272,LAWYER,20,2546,3866,0,0,,1
w980000_lf,5iqf61ok6f,Nick_Dissertation_EX1,1,115,2020-08-17T11:46:10-07:00,4.201761007309,1,versionA_stim.csv,READVersionA.csv,"Read Version A","Dissertation, read only version A",ORCHID,FLOWER,Study1,F,24,55,Test,User,-,,Recall,Recall1,3865,FLOWER,100,956,2562,1,1,,1
w980000_lf,5iqf61ok6f,Nick_Dissertation_EX1,1,116,2020-08-17T11:46:13-07:00,3.4483859539032,1,versionA_stim.csv,READVersionA.csv,"Read Version A","Dissertation, read only version A",KING,VASE,Study1,U,85,35,Test,User,-,,Recall,Recall1,3142,VASE,100,1423,1907,1,1,,1
w980000_lf,5iqf61ok6f,Nick_Dissertation_EX1,1,117,2020-08-17T11:46:18-07:00,4.5117070674896,1,versionA_stim.csv,READVersionA.csv,"Read Version A","Dissertation, read only version A",SWAN,BIRD,Study1,F,14,70,Test,User,-,,Recall,Recall1,4179,BIRD,100,2221,2679,1,1,,1
w980000_lf,5iqf61ok6f,Nick_Dissertation_EX1,1,118,2020-08-17T11:46:32-07:00,14.282986879349,1,versionA_stim.csv,READVersionA.csv,"Read Version A","Dissertation, read only version A",DEATH,BUSINESS,Study1,U,72,24,Test,User,-,,Recall,Recall1,13970,,0,-1,-1,0,0,,1
w980000_lf,5iqf61ok6f,Nick_Dissertation_EX1,1,119,2020-08-17T11:46:36-07:00,3.4832100868225,1,versionA_stim.csv,READVersionA.csv,"Read Version A","Dissertation, read only version A",WAGE,MONEY,Study1,F,8,36,Test,User,-,,Recall,Recall1,3175,PAY,25,1571,1860,0,0,,1
w980000_lf,5iqf61ok6f,Nick_Dissertation_EX1,1,120,2020-08-17T11:46:44-07:00,8.3274960517883,1,versionA_stim.csv,READVersionA.csv,"Read Version A","Dissertation, read only version A",HORNET,STING,Study1,F,11,80,Test,User,-,,Recall,Recall1,8013,BUG,25,4681,6640,0,0,,1
w980000_lf,5iqf61ok6f,Nick_Dissertation_EX1,1,121,2020-08-17T11:46:50-07:00,5.8666379451752,1,versionA_stim.csv,READVersionA.csv,"Read Version A","Dissertation, read only version A",ART,LION,Study1,U,79,18,Test,User,-,,Recall,Recall1,5568,,0,-1,-1,0,0,,1
w980000_lf,5iqf61ok6f,Nick_Dissertation_EX1,1,122,2020-08-17T11:46:57-07:00,7.1001300811768,1,versionA_stim.csv,READVersionA.csv,"Read Version A","Dissertation, read only version A",ARCHITECTURE,DESIGN,Study1,S,51,74,Test,User,-,,Recall,Recall1,6783,BUILDING,28.571428571429,4136,5107,0,0,,1
w980000_lf,5iqf61ok6f,Nick_Dissertation_EX1,1,123,2020-08-17T11:47:00-07:00,3.1602129936218,1,versionA_stim.csv,READVersionA.csv,"Read Version A","Dissertation, read only version A",DIETARY,SACKING,Study1,U,67,10,Test,User,-,,Recall,Recall1,2843,FOOD,0,1347,1761,0,0,,1
w980000_lf,5iqf61ok6f,Nick_Dissertation_EX1,1,124,2020-08-17T11:47:06-07:00,5.7980999946594,1,versionA_stim.csv,READVersionA.csv,"Read Version A","Dissertation, read only version A",MEANING,DEFINITION,Study1,S,62,64,Test,User,-,,Recall,Recall1,5486,,0,-1,-1,0,0,,1
w980000_lf,5iqf61ok6f,Nick_Dissertation_EX1,1,125,2020-08-17T11:47:29-07:00,22.951925039291,1,versionA_stim.csv,READVersionA.csv,"Read Version A","Dissertation, read only version A",DEBATE,SIGHT,Study1,U,73,28,Test,User,-,,Recall,Recall1,22604,SIGHT,100,19578,21206,1,1,,1
w980000_lf,5iqf61ok6f,Nick_Dissertation_EX1,1,126,2020-08-17T11:47:32-07:00,3.5769839286804,1,versionA_stim.csv,READVersionA.csv,"Read Version A","Dissertation, read only version A",EDITOR,NEWS,Study1,F,10,16,Test,User,-,,Recall,Recall1,3253,NEWS,100,1417,1952,1,1,,1
w980000_lf,5iqf61ok6f,Nick_Dissertation_EX1,1,127,2020-08-17T11:47:39-07:00,6.2399139404297,1,versionA_stim.csv,READVersionA.csv,"Read Version A","Dissertation, read only version A",LETTUCE,SALAD,Study1,S,59,77,Test,User,-,,Recall,Recall1,5928,SALAD,100,4126,4760,1,1,,1
w980000_lf,5iqf61ok6f,Nick_Dissertation_EX1,1,128,2020-08-17T11:47:42-07:00,3.6528611183167,1,versionA_stim.csv,READVersionA.csv,"Read Version A","Dissertation, read only version A",CIRCLE,ROUND,Study1,S,65,9,Test,User,-,,Recall,Recall1,3346,SHAPE,0,1694,2253,0,0,,1
w980000_lf,5iqf61ok6f,Nick_Dissertation_EX1,1,129,2020-08-17T11:47:48-07:00,5.7609899044037,1,versionA_stim.csv,READVersionA.csv,"Read Version A","Dissertation, read only version A",ARTERY,BRONZE,Study1,U,74,59,Test,User,-,,Recall,Recall1,4449,BRONZE,100,2242,3235,1,1,,1
w980000_lf,5iqf61ok6f,Nick_Dissertation_EX1,1,130,2020-08-17T11:47:54-07:00,6.2553291320801,1,versionA_stim.csv,READVersionA.csv,"Read Version A","Dissertation, read only version A",DARK,CAVE,Study1,B,28,20,Test,User,-,,Recall,Recall1,5953,NIGHT,0,4374,4810,0,0,,1
w980000_lf,5iqf61ok6f,Nick_Dissertation_EX1,1,131,2020-08-17T11:48:00-07:00,5.485114812851,1,versionA_stim.csv,READVersionA.csv,"Read Version A","Dissertation, read only version A",DUMP,WASTE,Study1,S,49,44,Test,User,-,,Recall,Recall1,5190,LEAVE,20,3393,4062,0,0,,1
w980000_lf,5iqf61ok6f,Nick_Dissertation_EX1,1,132,2020-08-17T11:48:08-07:00,8.1084790229797,1,versionA_stim.csv,READVersionA.csv,"Read Version A","Dissertation, read only version A",HAPPY,CAR,Study1,U,77,29,Test,User,-,,Recall,Recall1,7794,CAR,100,6201,6576,1,1,,1
w980000_lf,5iqf61ok6f,Nick_Dissertation_EX1,1,133,2020-08-17T11:48:13-07:00,5.0141201019287,1,versionA_stim.csv,READVersionA.csv,"Read Version A","Dissertation, read only version A",DRINK,SIP,Study1,B,27,7,Test,User,-,,Recall,Recall1,4687,WATER,0,1694,2298,0,0,,1
w980000_lf,5iqf61ok6f,Nick_Dissertation_EX1,1,134,2020-08-17T11:48:16-07:00,2.7917139530182,1,versionA_stim.csv,READVersionA.csv,"Read Version A","Dissertation, read only version A",TUNA,FISH,Study1,F,25,79,Test,User,-,,Recall,Recall1,2468,FISH,100,1015,1345,1,1,,1
w980000_lf,5iqf61ok6f,Nick_Dissertation_EX1,1,135,2020-08-17T11:48:20-07:00,4.1831159591675,1,versionA_stim.csv,READVersionA.csv,"Read Version A","Dissertation, read only version A",DISCOVER,FLOOR,Study1,U,71,33,Test,User,-,,Recall,Recall1,3850,FIND,22.222222222222,2462,2725,0,0,,1
w980000_lf,5iqf61ok6f,Nick_Dissertation_EX1,1,136,2020-08-17T11:48:23-07:00,3.4997050762177,1,versionA_stim.csv,READVersionA.csv,"Read Version A","Dissertation, read only version A",LIFT,WOMAN,Study1,U,69,65,Test,User,-,,Recall,Recall1,3173,RAISE,20,1529,2067,0,0,,1
w980000_lf,5iqf61ok6f,Nick_Dissertation_EX1,1,137,2020-08-17T11:48:32-07:00,8.7546169757843,1,versionA_stim.csv,READVersionA.csv,"Read Version A","Dissertation, read only version A",BATHROOM,TOILET,Study1,S,58,12,Test,User,-,,Recall,Recall1,8443,SINK,20,6454,6897,0,0,,1
w980000_lf,5iqf61ok6f,Nick_Dissertation_EX1,1,138,2020-08-17T11:48:35-07:00,2.6532790660858,1,versionA_stim.csv,READVersionA.csv,"Read Version A","Dissertation, read only version A",HONEY,BEE,Study1,S,63,76,Test,User,-,,Recall,Recall1,2322,BEE,100,847,1237,1,1,,1
w980000_lf,5iqf61ok6f,Nick_Dissertation_EX1,1,139,2020-08-17T11:48:39-07:00,3.7974758148193,1,versionA_stim.csv,READVersionA.csv,"Read Version A","Dissertation, read only version A",SENTENCE,WORD,Study1,B,31,48,Test,User,-,,Recall,Recall1,3423,WORD,100,1633,2051,1,1,,1
w980000_lf,5iqf61ok6f,Nick_Dissertation_EX1,1,140,2020-08-17T11:48:44-07:00,5.8051609992981,1,versionA_stim.csv,READVersionA.csv,"Read Version A","Dissertation, read only version A",POP,SODA,Study1,S,56,60,Test,User,-,,Recall,Recall1,5448,SODA,100,2919,3372,1,1,,1
w980000_lf,5iqf61ok6f,Nick_Dissertation_EX1,1,141,2020-08-17T11:48:49-07:00,4.4203531742096,1,versionA_stim.csv,READVersionA.csv,"Read Version A","Dissertation, read only version A",DUE,ASSIGNMENT,Study1,S,46,54,Test,User,-,,Recall,Recall1,4073,DATE,28.571428571429,2344,2925,0,0,,1
w980000_lf,5iqf61ok6f,Nick_Dissertation_EX1,1,142,2020-08-17T11:48:53-07:00,4.13023686409,1,versionA_stim.csv,READVersionA.csv,"Read Version A","Dissertation, read only version A",MATH,DIVISION,Study1,B,33,51,Test,User,-,,Recall,Recall1,3807,DIVISION,100,1462,2489,1,1,,1
w980000_lf,5iqf61ok6f,Nick_Dissertation_EX1,1,143,2020-08-17T11:48:56-07:00,3.0548620223999,1,versionA_stim.csv,READVersionA.csv,"Read Version A","Dissertation, read only version A",BRIDGE,WATER,Study1,F,18,38,Test,User,-,,Recall,Recall1,2735,WATER,100,1006,1578,1,1,,1
w980000_lf,5iqf61ok6f,Nick_Dissertation_EX1,1,144,2020-08-17T11:49:01-07:00,5.3091559410095,1,versionA_stim.csv,READVersionA.csv,"Read Version A","Dissertation, read only version A",LAW,ATTORNEY,Study1,B,34,49,Test,User,-,,Recall,Recall1,5004,JURY,33.333333333333,3015,3437,0,0,,1
w980000_lf,5iqf61ok6f,Nick_Dissertation_EX1,1,145,2020-08-17T11:49:05-07:00,3.9035379886627,1,versionA_stim.csv,READVersionA.csv,"Read Version A","Dissertation, read only version A",DELINQUENT,BAD,Study1,F,6,86,Test,User,-,,Recall,Recall1,3575,BAD,100,1483,2320,1,1,,1
w980000_lf,5iqf61ok6f,Nick_Dissertation_EX1,1,146,2020-08-17T11:49:25-07:00,19.45765709877,1,versionA_stim.csv,READVersionA.csv,"Read Version A","Dissertation, read only version A",REVOLUTION,WAR,Study1,F,20,45,Test,User,-,,Recall,Recall1,19135,PEOPLE,0,17264,17963,0,0,,1
w980000_lf,5iqf61ok6f,Nick_Dissertation_EX1,1,147,2020-08-17T11:49:28-07:00,3.5233891010284,1,versionA_stim.csv,READVersionA.csv,"Read Version A","Dissertation, read only version A",GRILL,BAR,Study1,S,52,52,Test,User,-,,Recall,Recall1,3217,BAR,100,1544,1884,1,1,,1
w980000_lf,5iqf61ok6f,Nick_Dissertation_EX1,1,148,2020-08-17T11:49:32-07:00,4.2457149028778,1,versionA_stim.csv,READVersionA.csv,"Read Version A","Dissertation, read only version A",HERD,COW,Study1,F,22,85,Test,User,-,,Recall,Recall1,3922,SHEEP,0,2002,2581,0,0,,1
w980000_lf,5iqf61ok6f,Nick_Dissertation_EX1,1,149,2020-08-17T11:49:48-07:00,15.583990097046,1,versionA_stim.csv,READVersionA.csv,"Read Version A","Dissertation, read only version A",PARK,HUNGRY,Study1,U,68,69,Test,User,-,,Recall,Recall1,15252,WALK,0,7523,14151,0,0,,1
w980000_lf,5iqf61ok6f,Nick_Dissertation_EX1,1,150,2020-08-17T11:49:59-07:00,11.053406000137,1,versionA_stim.csv,READVersionA.csv,"Read Version A","Dissertation, read only version A",MACHINE,POSITION,Study1,U,76,31,Test,User,-,,Recall,Recall1,10746,MOVE,16.666666666667,8799,9602,0,0,,1
w980000_lf,5iqf61ok6f,Nick_Dissertation_EX1,1,151,2020-08-17T11:50:03-07:00,4.3254799842834,1,versionA_stim.csv,READVersionA.csv,"Read Version A","Dissertation, read only version A",ALLOW,TUCK,Study1,U,78,63,Test,User,-,,Recall,Recall1,4027,ACCESS,20,1702,2719,0,0,,1
w980000_lf,5iqf61ok6f,Nick_Dissertation_EX1,1,152,2020-08-17T11:50:08-07:00,4.3235540390015,1,versionA_stim.csv,READVersionA.csv,"Read Version A","Dissertation, read only version A",FULL,ENOUGH,Study1,B,26,15,Test,User,-,,Recall,Recall1,4019,,0,-1,-1,0,0,,1
w980000_lf,5iqf61ok6f,Nick_Dissertation_EX1,1,153,2020-08-17T11:50:11-07:00,3.6500968933105,1,versionA_stim.csv,READVersionA.csv,"Read Version A","Dissertation, read only version A",WINE,CHEESE,Study1,S,57,61,Test,User,-,,Recall,Recall1,3342,CHEESE,100,1386,2207,1,1,,1
w980000_lf,5iqf61ok6f,Nick_Dissertation_EX1,1,154,2020-08-17T11:50:19-07:00,7.2408380508423,1,versionA_stim.csv,READVersionA.csv,"Read Version A","Dissertation, read only version A",WAY,OUT,Study1,F,16,32,Test,User,-,,Recall,Recall1,6927,,0,-1,-1,0,0,,1
w980000_lf,5iqf61ok6f,Nick_Dissertation_EX1,1,155,2020-08-17T11:50:22-07:00,3.1125409603119,1,versionA_stim.csv,READVersionA.csv,"Read Version A","Dissertation, read only version A",BITTER,COLD,Study1,F,12,39,Test,User,-,,Recall,Recall1,2804,COLD,100,1230,1631,1,1,,1
w980000_lf,5iqf61ok6f,Nick_Dissertation_EX1,1,156,2020-08-17T11:50:31-07:00,9.5461330413818,1,versionA_stim.csv,READVersionA.csv,"Read Version A","Dissertation, read only version A",VALLEY,ADD,Study1,U,82,50,Test,User,-,,Recall,Recall1,9234,MEADOW,44.444444444444,7300,8013,0,0,,1
w980000_lf,5iqf61ok6f,Nick_Dissertation_EX1,1,157,2020-08-17T11:50:44-07:00,12.269618988037,1,versionA_stim.csv,READVersionA.csv,"Read Version A","Dissertation, read only version A",PUSHER,CLUTTER,Study1,U,66,22,Test,User,-,,Recall,Recall1,11959,UP,22.222222222222,10639,10825,0,0,,1
w980000_lf,5iqf61ok6f,Nick_Dissertation_EX1,1,158,2020-08-17T11:50:50-07:00,6.0995578765869,1,versionA_stim.csv,READVersionA.csv,"Read Version A","Dissertation, read only version A",NUMBER,AMOUNT,Study1,S,47,73,Test,User,-,,Recall,Recall1,5799,LETTER,16.666666666667,3841,4657,0,0,,1
w980000_lf,5iqf61ok6f,Nick_Dissertation_EX1,1,159,2020-08-17T11:50:54-07:00,4.4812581539154,1,versionA_stim.csv,READVersionA.csv,"Read Version A","Dissertation, read only version A",STRONG,ACCIDENT,Study1,U,80,42,Test,User,-,,Recall,Recall1,4161,ACCIDENT,100,1318,2746,1,1,,1
w980000_lf,5iqf61ok6f,Nick_Dissertation_EX1,1,160,2020-08-17T11:51:16-07:00,21.578982830048,1,versionA_stim.csv,READVersionA.csv,"Read Version A","Dissertation, read only version A",SUGAR,RIDDLE,Study1,U,81,58,Test,User,-,,Recall,Recall1,21267,SWEET,18.181818181818,19405,20091,0,0,,1
w980000_lf,5iqf61ok6f,Nick_Dissertation_EX1,1,161,2020-08-17T11:51:20-07:00,4.6582040786743,1,versionA_stim.csv,READVersionA.csv,"Read Version A","Dissertation, read only version A",CASH,WOULD,Study1,U,83,21,Test,User,-,,Recall,Recall1,4353,MONEY,20,2645,3213,0,0,,1
w980000_lf,5iqf61ok6f,Nick_Dissertation_EX1,1,162,2020-08-17T11:51:30-07:00,9.1757309436798,1,versionA_stim.csv,READVersionA.csv,"Read Version A","Dissertation, read only version A",PLANE,PILOT,Study1,B,44,53,Test,User,-,,Recall,Recall1,8873,PILOT,100,1358,7568,1,1,,1
w980000_lf,5iqf61ok6f,Nick_Dissertation_EX1,1,163,2020-08-17T11:51:35-07:00,5.3360390663147,1,versionA_stim.csv,READVersionA.csv,"Read Version A","Dissertation, read only version A",HOT,CHILI,Study1,B,37,66,Test,User,-,,Recall,Recall1,5000,CHILI,100,3152,3711,1,1,,1
w980000_lf,5iqf61ok6f,Nick_Dissertation_EX1,1,164,2020-08-17T11:51:41-07:00,6.4550061225891,1,versionA_stim.csv,READVersionA.csv,"Read Version A","Dissertation, read only version A",WORK,CHORE,Study1,B,39,14,Test,User,-,,Recall,Recall1,6139,CHORE,100,4562,5027,1,1,,1
w980000_lf,5iqf61ok6f,Nick_Dissertation_EX1,1,165,2020-08-17T11:51:47-07:00,5.3710558414459,1,versionA_stim.csv,READVersionA.csv,"Read Version A","Dissertation, read only version A",KIDNEY,LIVER,Study1,S,53,27,Test,User,-,,Recall,Recall1,5056,LIVER,100,1469,3694,1,1,,1
w980000_lf,5iqf61ok6f,Nick_Dissertation_EX1,1,166,2020-08-17T11:51:58-07:00,10.824253082275,1,versionA_stim.csv,READVersionA.csv,"Read Version A","Dissertation, read only version A",BUG,WASP,Study1,B,32,46,Test,User,-,,Recall,Recall1,10495,WASP,100,8834,9238,1,1,,1
w980000_lf,5iqf61ok6f,Nick_Dissertation_EX1,1,167,2020-08-17T11:52:00-07:00,2.8636710643768,1,versionA_stim.csv,READVersionA.csv,"Read Version A","Dissertation, read only version A",BEGIN,END,Study1,S,54,40,Test,User,-,,Recall,Recall1,2549,END,100,1208,1448,1,1,,1
w980000_lf,5iqf61ok6f,Nick_Dissertation_EX1,1,168,2020-08-17T11:52:05-07:00,4.9874129295349,1,versionA_stim.csv,READVersionA.csv,"Read Version A","Dissertation, read only version A",PAST,FUTURE,Study1,S,61,56,Test,User,-,,Recall,Recall1,4000,FUTURE,100,2166,2858,1,1,,1
w980000_lf,5iqf61ok6f,Nick_Dissertation_EX1,1,169,2020-08-17T11:52:10-07:00,4.9862549304962,1,versionA_stim.csv,READVersionA.csv,"Read Version A","Dissertation, read only version A",KEY,LATCH,Study1,B,36,83,Test,User,-,,Recall,Recall1,4661,LOCK,44.444444444444,3242,3614,0,0,,1
w980000_lf,5iqf61ok6f,Nick_Dissertation_EX1,1,170,2020-08-17T11:52:14-07:00,3.3568820953369,1,versionA_stim.csv,READVersionA.csv,"Read Version A","Dissertation, read only version A",CHISEL,HAMMER,Study1,F,9,11,Test,User,-,,Recall,Recall1,3051,HAMMER,100,1229,1881,1,1,,1
w980000_lf,5iqf61ok6f,Nick_Dissertation_EX1,1,171,2020-08-17T11:52:20-07:00,5.7579958438873,1,versionA_stim.csv,READVersionA.csv,"Read Version A","Dissertation, read only version A",CLOTHES,ATTIRE,Study1,B,43,67,Test,User,-,,Recall,Recall1,5453,SHIRT,36.363636363636,3787,4252,0,0,,1
w980000_lf,5iqf61ok6f,Nick_Dissertation_EX1,1,172,2020-08-17T11:52:29-07:00,9.7744030952454,1,versionA_stim.csv,READVersionA.csv,"Read Version A","Dissertation, read only version A",FIRE,BLAZE,Study1,B,45,43,Test,User,-,,Recall,Recall1,9450,WATER,40,7030,7602,0,0,,1
w980000_lf,5iqf61ok6f,Nick_Dissertation_EX1,1,173,2020-08-17T11:52:36-07:00,6.3678629398346,1,versionA_stim.csv,READVersionA.csv,"Read Version A","Dissertation, read only version A",BALL,RACKET,Study1,B,38,41,Test,User,-,,Recall,Recall1,6058,PLAY,20,2792,4541,0,0,,1
w980000_lf,5iqf61ok6f,Nick_Dissertation_EX1,1,174,2020-08-17T11:52:40-07:00,3.8638880252838,1,versionA_stim.csv,READVersionA.csv,"Read Version A","Dissertation, read only version A",SHOE,FOOT,Study1,S,60,23,Test,User,-,,Recall,Recall1,3547,FOOT,100,1469,1843,1,1,,1
w980000_lf,5iqf61ok6f,Nick_Dissertation_EX1,1,175,2020-08-17T11:52:51-07:00,10.97158408165,1,versionA_stim.csv,READVersionA.csv,"Read Version A","Dissertation, read only version A",,,,,,0,Instruct,-,10,"You will now be presented with a new set of word pairs. Please study each pair. Remember that your memory will be tested! When finished, press Enter to move to the next pair.",Initial_Instruct,Instruct4,10654,,,-1,-1,,,,1
w980000_lf,5iqf61ok6f,Nick_Dissertation_EX1,1,176,2020-08-17T11:52:54-07:00,3.4200148582458,1,versionA_stim.csv,READVersionA.csv,"Read Version A","Dissertation, read only version A",CAMP,ADVENTURE,BUFFER3,Buffer,95,93,Study,User,-,,Study/JOL,BUFFER3,3109,,,-1,-1,,,,1
w980000_lf,5iqf61ok6f,Nick_Dissertation_EX1,1,177,2020-08-17T11:52:59-07:00,5.0488321781158,1,versionA_stim.csv,READVersionA.csv,"Read Version A","Dissertation, read only version A",NOODLE,STRING,BUFFER3,Buffer,92,94,Study,User,-,,Study/JOL,BUFFER3,4731,,,-1,-1,,,,1
w980000_lf,5iqf61ok6f,Nick_Dissertation_EX1,1,178,2020-08-17T11:53:02-07:00,3.1621758937836,1,versionA_stim.csv,READVersionA.csv,"Read Version A","Dissertation, read only version A",CARROT,POTATO,BUFFER3,Buffer,91,96,Study,User,-,,Study/JOL,BUFFER3,2833,,,-1,-1,,,,1
w980000_lf,5iqf61ok6f,Nick_Dissertation_EX1,1,179,2020-08-17T11:53:08-07:00,6.0576939582825,1,versionA_stim.csv,READVersionA.csv,"Read Version A","Dissertation, read only version A",ICE,FROZEN,BUFFER3,Buffer,94,92,Study,User,-,,Study/JOL,BUFFER3,5745,,,-1,-1,,,,1
w980000_lf,5iqf61ok6f,Nick_Dissertation_EX1,1,180,2020-08-17T11:53:15-07:00,7.1947700977325,1,versionA_stim.csv,READVersionA.csv,"Read Version A","Dissertation, read only version A",SHRIMP,FISH,BUFFER3,Buffer,93,95,Study,User,-,,Study/JOL,BUFFER3,6860,,,-1,-1,,,,1
w980000_lf,5iqf61ok6f,Nick_Dissertation_EX1,1,181,2020-08-17T11:53:21-07:00,5.9902210235596,1,versionA_stim.csv,READVersionA.csv,"Read Version A","Dissertation, read only version A",CHOP,CUT,Study2,F,107,112,Study,User,-,,Study/JOL,"Study Phase2",5675,,,-1,-1,,,,1
w980000_lf,5iqf61ok6f,Nick_Dissertation_EX1,1,182,2020-08-17T11:53:28-07:00,6.1625528335571,1,versionA_stim.csv,READVersionA.csv,"Read Version A","Dissertation, read only version A",CRACKLE,ABLE,Study2,U,162,165,Study,User,-,,Study/JOL,"Study Phase2",5843,,,-1,-1,,,,1
w980000_lf,5iqf61ok6f,Nick_Dissertation_EX1,1,183,2020-08-17T11:53:32-07:00,4.2611680030823,1,versionA_stim.csv,READVersionA.csv,"Read Version A","Dissertation, read only version A",OWN,HAVE,Study2,S,153,147,Study,User,-,,Study/JOL,"Study Phase2",3933,,,-1,-1,,,,1
w980000_lf,5iqf61ok6f,Nick_Dissertation_EX1,1,184,2020-08-17T11:53:40-07:00,7.8495910167694,1,versionA_stim.csv,READVersionA.csv,"Read Version A","Dissertation, read only version A",GONE,AWAY,Study2,S,142,113,Study,User,-,,Study/JOL,"Study Phase2",7553,,,-1,-1,,,,1
w980000_lf,5iqf61ok6f,Nick_Dissertation_EX1,1,185,2020-08-17T11:53:46-07:00,6.1248672008514,1,versionA_stim.csv,READVersionA.csv,"Read Version A","Dissertation, read only version A",TRUTH,LIE,Study2,S,148,169,Study,User,-,,Study/JOL,"Study Phase2",5815,,,-1,-1,,,,1
w980000_lf,5iqf61ok6f,Nick_Dissertation_EX1,1,186,2020-08-17T11:53:53-07:00,7.1110439300537,1,versionA_stim.csv,READVersionA.csv,"Read Version A","Dissertation, read only version A",WRIST,BRACELET,Study2,S,140,164,Study,User,-,,Study/JOL,"Study Phase2",6780,,,-1,-1,,,,1
w980000_lf,5iqf61ok6f,Nick_Dissertation_EX1,1,187,2020-08-17T11:53:59-07:00,6.3255560398102,1,versionA_stim.csv,READVersionA.csv,"Read Version A","Dissertation, read only version A",PLANE,AIRCRAFT,Study2,B,129,163,Study,User,-,,Study/JOL,"Study Phase2",6023,,,-1,-1,,,,1
w980000_lf,5iqf61ok6f,Nick_Dissertation_EX1,1,188,2020-08-17T11:54:04-07:00,4.7117810249329,1,versionA_stim.csv,READVersionA.csv,"Read Version A","Dissertation, read only version A",CLUE,GAME,Study2,F,97,145,Study,User,-,,Study/JOL,"Study Phase2",4402,,,-1,-1,,,,1
w980000_lf,5iqf61ok6f,Nick_Dissertation_EX1,1,189,2020-08-17T11:54:09-07:00,5.3986477851868,1,versionA_stim.csv,READVersionA.csv,"Read Version A","Dissertation, read only version A",TURN,FLIP,Study2,B,116,136,Study,User,-,,Study/JOL,"Study Phase2",5081,,,-1,-1,,,,1
w980000_lf,5iqf61ok6f,Nick_Dissertation_EX1,1,190,2020-08-17T11:54:16-07:00,6.6207911968231,1,versionA_stim.csv,READVersionA.csv,"Read Version A","Dissertation, read only version A",SLEEP,NAP,Study2,B,134,130,Study,User,-,,Study/JOL,"Study Phase2",6302,,,-1,-1,,,,1
w980000_lf,5iqf61ok6f,Nick_Dissertation_EX1,1,191,2020-08-17T11:54:22-07:00,5.8403878211975,1,versionA_stim.csv,READVersionA.csv,"Read Version A","Dissertation, read only version A",THREAD,THIMBLE,Study2,B,121,125,Study,User,-,,Study/JOL,"Study Phase2",5516,,,-1,-1,,,,1
w980000_lf,5iqf61ok6f,Nick_Dissertation_EX1,1,192,2020-08-17T11:54:27-07:00,5.5646190643311,1,versionA_stim.csv,READVersionA.csv,"Read Version A","Dissertation, read only version A",FEUD,FIGHT,Study2,F,113,156,Study,User,-,,Study/JOL,"Study Phase2",5247,,,-1,-1,,,,1
w980000_lf,5iqf61ok6f,Nick_Dissertation_EX1,1,193,2020-08-17T11:54:33-07:00,5.3859930038452,1,versionA_stim.csv,READVersionA.csv,"Read Version A","Dissertation, read only version A",POP,BALLOON,Study2,B,123,135,Study,User,-,,Study/JOL,"Study Phase2",5060,,,-1,-1,,,,1
w980000_lf,5iqf61ok6f,Nick_Dissertation_EX1,1,194,2020-08-17T11:54:38-07:00,4.979640007019,1,versionA_stim.csv,READVersionA.csv,"Read Version A","Dissertation, read only version A",BEST,FAVORITE,Study2,B,125,131,Study,User,-,,Study/JOL,"Study Phase2",4215,,,-1,-1,,,,1
w980000_lf,5iqf61ok6f,Nick_Dissertation_EX1,1,195,2020-08-17T11:54:42-07:00,3.9509150981903,1,versionA_stim.csv,READVersionA.csv,"Read Version A","Dissertation, read only version A",RIGHTS,EQUAL,Study2,S,137,138,Study,User,-,,Study/JOL,"Study Phase2",3656,,,-1,-1,,,,1
w980000_lf,5iqf61ok6f,Nick_Dissertation_EX1,1,196,2020-08-17T11:54:45-07:00,3.0433089733124,1,versionA_stim.csv,READVersionA.csv,"Read Version A","Dissertation, read only version A",SHOELACE,TIE,Study2,F,99,118,Study,User,-,,Study/JOL,"Study Phase2",2720,,,-1,-1,,,,1
w980000_lf,5iqf61ok6f,Nick_Dissertation_EX1,1,197,2020-08-17T11:54:49-07:00,3.813863992691,1,versionA_stim.csv,READVersionA.csv,"Read Version A","Dissertation, read only version A",FLEA,TICK,Study2,S,151,98,Study,User,-,,Study/JOL,"Study Phase2",3498,,,-1,-1,,,,1
w980000_lf,5iqf61ok6f,Nick_Dissertation_EX1,1,198,2020-08-17T11:54:52-07:00,3.7989909648895,1,versionA_stim.csv,READVersionA.csv,"Read Version A","Dissertation, read only version A",MOAT,CLEAR,Study2,U,169,132,Study,User,-,,Study/JOL,"Study Phase2",3466,,,-1,-1,,,,1
w980000_lf,5iqf61ok6f,Nick_Dissertation_EX1,1,199,2020-08-17T11:54:56-07:00,3.7425589561462,1,versionA_stim.csv,READVersionA.csv,"Read Version A","Dissertation, read only version A",AFFECTION,LOVE,Study2,F,115,124,Study,User,-,,Study/JOL,"Study Phase2",3405,,,-1,-1,,,,1
w980000_lf,5iqf61ok6f,Nick_Dissertation_EX1,1,200,2020-08-17T11:54:59-07:00,3.2763619422913,1,versionA_stim.csv,READVersionA.csv,"Read Version A","Dissertation, read only version A",EARTH,GROUND,Study2,S,144,175,Study,User,-,,Study/JOL,"Study Phase2",2961,,,-1,-1,,,,1
w980000_lf,5iqf61ok6f,Nick_Dissertation_EX1,1,201,2020-08-17T11:55:02-07:00,2.6545000076294,1,versionA_stim.csv,READVersionA.csv,"Read Version A","Dissertation, read only version A",STAR,ACTRESS,Study2,B,120,100,Study,User,-,,Study/JOL,"Study Phase2",2340,,,-1,-1,,,,1
w980000_lf,5iqf61ok6f,Nick_Dissertation_EX1,1,202,2020-08-17T11:55:07-07:00,5.1648671627045,1,versionA_stim.csv,READVersionA.csv,"Read Version A","Dissertation, read only version A",JUSTICE,MAROON,Study2,U,156,157,Study,User,-,,Study/JOL,"Study Phase2",4816,,,-1,-1,,,,1
w980000_lf,5iqf61ok6f,Nick_Dissertation_EX1,1,203,2020-08-17T11:55:10-07:00,2.656222820282,1,versionA_stim.csv,READVersionA.csv,"Read Version A","Dissertation, read only version A",LOUD,NOISE,Study2,S,152,119,Study,User,-,,Study/JOL,"Study Phase2",2317,,,-1,-1,,,,1
w980000_lf,5iqf61ok6f,Nick_Dissertation_EX1,1,204,2020-08-17T11:55:14-07:00,4.5715432167053,1,versionA_stim.csv,READVersionA.csv,"Read Version A","Dissertation, read only version A",FISH,SARDINE,Study2,B,130,133,Study,User,-,,Study/JOL,"Study Phase2",4252,,,-1,-1,,,,1
w980000_lf,5iqf61ok6f,Nick_Dissertation_EX1,1,205,2020-08-17T11:55:19-07:00,4.6014788150787,1,versionA_stim.csv,READVersionA.csv,"Read Version A","Dissertation, read only version A",BIRD,PENGUIN,Study2,B,119,127,Study,User,-,,Study/JOL,"Study Phase2",4254,,,-1,-1,,,,1
w980000_lf,5iqf61ok6f,Nick_Dissertation_EX1,1,206,2020-08-17T11:55:22-07:00,2.9173619747162,1,versionA_stim.csv,READVersionA.csv,"Read Version A","Dissertation, read only version A",RAZOR,SHAVE,Study2,S,136,103,Study,User,-,,Study/JOL,"Study Phase2",2611,,,-1,-1,,,,1
w980000_lf,5iqf61ok6f,Nick_Dissertation_EX1,1,207,2020-08-17T11:55:27-07:00,4.7856531143188,1,versionA_stim.csv,READVersionA.csv,"Read Version A","Dissertation, read only version A",TEMPERATURE,Morning,Study2,U,173,104,Study,User,-,,Study/JOL,"Study Phase2",4457,,,-1,-1,,,,1
w980000_lf,5iqf61ok6f,Nick_Dissertation_EX1,1,208,2020-08-17T11:55:30-07:00,3.2876238822937,1,versionA_stim.csv,READVersionA.csv,"Read Version A","Dissertation, read only version A",MEAT,OBTAIN,Study2,U,161,109,Study,User,-,,Study/JOL,"Study Phase2",2988,,,-1,-1,,,,1
w980000_lf,5iqf61ok6f,Nick_Dissertation_EX1,1,209,2020-08-17T11:55:33-07:00,3.3848731517792,1,versionA_stim.csv,READVersionA.csv,"Read Version A","Dissertation, read only version A",MAIN,SCAR,Study2,U,175,126,Study,User,-,,Study/JOL,"Study Phase2",3065,,,-1,-1,,,,1
w980000_lf,5iqf61ok6f,Nick_Dissertation_EX1,1,210,2020-08-17T11:55:36-07:00,3.0780849456787,1,versionA_stim.csv,READVersionA.csv,"Read Version A","Dissertation, read only version A",TANTRUM,TEMPER,Study2,S,154,143,Study,User,-,,Study/JOL,"Study Phase2",2736,,,-1,-1,,,,1
w980000_lf,5iqf61ok6f,Nick_Dissertation_EX1,1,211,2020-08-17T11:55:40-07:00,3.4623260498047,1,versionA_stim.csv,READVersionA.csv,"Read Version A","Dissertation, read only version A",DETECTIVE,MYSTERY,Study2,F,100,151,Study,User,-,,Study/JOL,"Study Phase2",3116,,,-1,-1,,,,1
w980000_lf,5iqf61ok6f,Nick_Dissertation_EX1,1,212,2020-08-17T11:55:43-07:00,3.3548409938812,1,versionA_stim.csv,READVersionA.csv,"Read Version A","Dissertation, read only version A",FRUIT,STRAWBERRY,Study2,B,124,142,Study,User,-,,Study/JOL,"Study Phase2",3015,,,-1,-1,,,,1
w980000_lf,5iqf61ok6f,Nick_Dissertation_EX1,1,213,2020-08-17T11:55:50-07:00,7.0640239715576,1,versionA_stim.csv,READVersionA.csv,"Read Version A","Dissertation, read only version A",FIGHT,BRAWL,Study2,B,135,140,Study,User,-,,Study/JOL,"Study Phase2",6743,,,-1,-1,,,,1
w980000_lf,5iqf61ok6f,Nick_Dissertation_EX1,1,214,2020-08-17T11:55:55-07:00,4.5824360847473,1,versionA_stim.csv,READVersionA.csv,"Read Version A","Dissertation, read only version A",ALONE,LONELY,Study2,S,145,152,Study,User,-,,Study/JOL,"Study Phase2",4270,,,-1,-1,,,,1
w980000_lf,5iqf61ok6f,Nick_Dissertation_EX1,1,215,2020-08-17T11:55:58-07:00,3.2482628822327,1,versionA_stim.csv,READVersionA.csv,"Read Version A","Dissertation, read only version A",CHERRY,RED,Study2,F,104,162,Study,User,-,,Study/JOL,"Study Phase2",2933,,,-1,-1,,,,1
w980000_lf,5iqf61ok6f,Nick_Dissertation_EX1,1,216,2020-08-17T11:56:01-07:00,3.1048340797424,1,versionA_stim.csv,READVersionA.csv,"Read Version A","Dissertation, read only version A",CAR,WINDSHIELD,Study2,B,117,141,Study,User,-,,Study/JOL,"Study Phase2",2766,,,-1,-1,,,,1
w980000_lf,5iqf61ok6f,Nick_Dissertation_EX1,1,217,2020-08-17T11:56:06-07:00,4.4458990097046,1,versionA_stim.csv,READVersionA.csv,"Read Version A","Dissertation, read only version A",CACTUS,PLANT,Study2,F,98,170,Study,User,-,,Study/JOL,"Study Phase2",4131,,,-1,-1,,,,1
w980000_lf,5iqf61ok6f,Nick_Dissertation_EX1,1,218,2020-08-17T11:56:09-07:00,3.2863178253174,1,versionA_stim.csv,READVersionA.csv,"Read Version A","Dissertation, read only version A",MULE,DONKEY,Study2,F,108,116,Study,User,-,,Study/JOL,"Study Phase2",2980,,,-1,-1,,,,1
w980000_lf,5iqf61ok6f,Nick_Dissertation_EX1,1,219,2020-08-17T11:56:15-07:00,5.9580700397491,1,versionA_stim.csv,READVersionA.csv,"Read Version A","Dissertation, read only version A",MAZE,ELECTION,Study2,U,159,107,Study,User,-,,Study/JOL,"Study Phase2",5634,,,-1,-1,,,,1
w980000_lf,5iqf61ok6f,Nick_Dissertation_EX1,1,220,2020-08-17T11:56:20-07:00,5.06627202034,1,versionA_stim.csv,READVersionA.csv,"Read Version A","Dissertation, read only version A",VEHICLE,CHARM,Study2,U,160,161,Study,User,-,,Study/JOL,"Study Phase2",4748,,,-1,-1,,,,1
w980000_lf,5iqf61ok6f,Nick_Dissertation_EX1,1,221,2020-08-17T11:56:25-07:00,4.9282989501953,1,versionA_stim.csv,READVersionA.csv,"Read Version A","Dissertation, read only version A",ROD,REEL,Study2,S,150,160,Study,User,-,,Study/JOL,"Study Phase2",4600,,,-1,-1,,,,1
w980000_lf,5iqf61ok6f,Nick_Dissertation_EX1,1,222,2020-08-17T11:56:31-07:00,6.1686470508575,1,versionA_stim.csv,READVersionA.csv,"Read Version A","Dissertation, read only version A",SHEARS,SCISSORS,Study2,F,112,102,Study,User,-,,Study/JOL,"Study Phase2",5864,,,-1,-1,,,,1
w980000_lf,5iqf61ok6f,Nick_Dissertation_EX1,1,223,2020-08-17T11:56:35-07:00,3.5668449401855,1,versionA_stim.csv,READVersionA.csv,"Read Version A","Dissertation, read only version A",CAKE,CLOTHES,Study2,U,166,174,Study,User,-,,Study/JOL,"Study Phase2",3260,,,-1,-1,,,,1
w980000_lf,5iqf61ok6f,Nick_Dissertation_EX1,1,224,2020-08-17T11:56:38-07:00,3.0802481174469,1,versionA_stim.csv,READVersionA.csv,"Read Version A","Dissertation, read only version A",GIVE,STEAK,Study2,U,158,150,Study,User,-,,Study/JOL,"Study Phase2",2761,,,-1,-1,,,,1
w980000_lf,5iqf61ok6f,Nick_Dissertation_EX1,1,225,2020-08-17T11:56:41-07:00,3.2703990936279,1,versionA_stim.csv,READVersionA.csv,"Read Version A","Dissertation, read only version A",DRIVER,CAR,Study2,F,106,167,Study,User,-,,Study/JOL,"Study Phase2",2934,,,-1,-1,,,,1
w980000_lf,5iqf61ok6f,Nick_Dissertation_EX1,1,226,2020-08-17T11:56:44-07:00,2.9461858272552,1,versionA_stim.csv,READVersionA.csv,"Read Version A","Dissertation, read only version A",MASON,JAR,Study2,S,138,155,Study,User,-,,Study/JOL,"Study Phase2",2619,,,-1,-1,,,,1
w980000_lf,5iqf61ok6f,Nick_Dissertation_EX1,1,227,2020-08-17T11:56:47-07:00,3.1601769924164,1,versionA_stim.csv,READVersionA.csv,"Read Version A","Dissertation, read only version A",EXTENSION,LONG,Study2,F,96,171,Study,User,-,,Study/JOL,"Study Phase2",2846,,,-1,-1,,,,1
w980000_lf,5iqf61ok6f,Nick_Dissertation_EX1,1,228,2020-08-17T11:56:50-07:00,3.2120411396027,1,versionA_stim.csv,READVersionA.csv,"Read Version A","Dissertation, read only version A",KEYS,JOKE,Study2,U,165,154,Study,User,-,,Study/JOL,"Study Phase2",2896,,,-1,-1,,,,1
w980000_lf,5iqf61ok6f,Nick_Dissertation_EX1,1,229,2020-08-17T11:56:53-07:00,3.026832818985,1,versionA_stim.csv,READVersionA.csv,"Read Version A","Dissertation, read only version A",CAT,PANTHER,Study2,B,126,144,Study,User,-,,Study/JOL,"Study Phase2",2701,,,-1,-1,,,,1
w980000_lf,5iqf61ok6f,Nick_Dissertation_EX1,1,230,2020-08-17T11:56:56-07:00,2.3608460426331,1,versionA_stim.csv,READVersionA.csv,"Read Version A","Dissertation, read only version A",CANDLE,WAX,Study2,S,139,117,Study,User,-,,Study/JOL,"Study Phase2",2028,,,-1,-1,,,,1
w980000_lf,5iqf61ok6f,Nick_Dissertation_EX1,1,231,2020-08-17T11:56:58-07:00,2.0891289710999,1,versionA_stim.csv,READVersionA.csv,"Read Version A","Dissertation, read only version A",CHILL,COLD,Study2,F,114,148,Study,User,-,,Study/JOL,"Study Phase2",1836,,,-1,-1,,,,1
w980000_lf,5iqf61ok6f,Nick_Dissertation_EX1,1,232,2020-08-17T11:57:01-07:00,3.592805147171,1,versionA_stim.csv,READVersionA.csv,"Read Version A","Dissertation, read only version A",GLASS,BREAKABLE,Study2,B,127,122,Study,User,-,,Study/JOL,"Study Phase2",3269,,,-1,-1,,,,1
w980000_lf,5iqf61ok6f,Nick_Dissertation_EX1,1,233,2020-08-17T11:57:04-07:00,2.6987359523773,1,versionA_stim.csv,READVersionA.csv,"Read Version A","Dissertation, read only version A",HONEST,TRUTHFUL,Study2,B,133,159,Study,User,-,,Study/JOL,"Study Phase2",2394,,,-1,-1,,,,1
w980000_lf,5iqf61ok6f,Nick_Dissertation_EX1,1,234,2020-08-17T11:57:07-07:00,2.446790933609,1,versionA_stim.csv,READVersionA.csv,"Read Version A","Dissertation, read only version A",ADJOURN,END,Study2,F,101,121,Study,User,-,,Study/JOL,"Study Phase2",2134,,,-1,-1,,,,1
w980000_lf,5iqf61ok6f,Nick_Dissertation_EX1,1,235,2020-08-17T11:57:11-07:00,4.4275500774384,1,versionA_stim.csv,READVersionA.csv,"Read Version A","Dissertation, read only version A",ELEMENT,CARBON,Study2,S,141,168,Study,User,-,,Study/JOL,"Study Phase2",4108,,,-1,-1,,,,1
w980000_lf,5iqf61ok6f,Nick_Dissertation_EX1,1,236,2020-08-17T11:57:14-07:00,3.0066390037537,1,versionA_stim.csv,READVersionA.csv,"Read Version A","Dissertation, read only version A",SUN,TAN,Study2,S,155,158,Study,User,-,,Study/JOL,"Study Phase2",2677,,,-1,-1,,,,1
w980000_lf,5iqf61ok6f,Nick_Dissertation_EX1,1,237,2020-08-17T11:57:17-07:00,2.6474940776825,1,versionA_stim.csv,READVersionA.csv,"Read Version A","Dissertation, read only version A",DEAD,COFFIN,Study2,B,128,129,Study,User,-,,Study/JOL,"Study Phase2",2328,,,-1,-1,,,,1
w980000_lf,5iqf61ok6f,Nick_Dissertation_EX1,1,238,2020-08-17T11:57:20-07:00,3.0204498767853,1,versionA_stim.csv,READVersionA.csv,"Read Version A","Dissertation, read only version A",SAFETY,SEATBELT,Study2,S,147,172,Study,User,-,,Study/JOL,"Study Phase2",2698,,,-1,-1,,,,1
w980000_lf,5iqf61ok6f,Nick_Dissertation_EX1,1,239,2020-08-17T11:57:22-07:00,1.9978439807892,1,versionA_stim.csv,READVersionA.csv,"Read Version A","Dissertation, read only version A",BASEBALL,LEAGUE,Study2,B,131,153,Study,User,-,,Study/JOL,"Study Phase2",1730,,,-1,-1,,,,1
w980000_lf,5iqf61ok6f,Nick_Dissertation_EX1,1,240,2020-08-17T11:57:24-07:00,2.0497131347656,1,versionA_stim.csv,READVersionA.csv,"Read Version A","Dissertation, read only version A",MONEY,BANKER,Study2,B,132,101,Study,User,-,,Study/JOL,"Study Phase2",1812,,,-1,-1,,,,1
w980000_lf,5iqf61ok6f,Nick_Dissertation_EX1,1,241,2020-08-17T11:57:26-07:00,2.6660988330841,1,versionA_stim.csv,READVersionA.csv,"Read Version A","Dissertation, read only version A",STRETCH,CLOTH,Study2,U,157,166,Study,User,-,,Study/JOL,"Study Phase2",2346,,,-1,-1,,,,1
w980000_lf,5iqf61ok6f,Nick_Dissertation_EX1,1,242,2020-08-17T11:57:29-07:00,2.6979920864105,1,versionA_stim.csv,READVersionA.csv,"Read Version A","Dissertation, read only version A",BAD,VILLAIN,Study2,B,118,110,Study,User,-,,Study/JOL,"Study Phase2",2389,,,-1,-1,,,,1
w980000_lf,5iqf61ok6f,Nick_Dissertation_EX1,1,243,2020-08-17T11:57:32-07:00,2.5359580516815,1,versionA_stim.csv,READVersionA.csv,"Read Version A","Dissertation, read only version A",FURRY,DOG,Study2,F,102,139,Study,User,-,,Study/JOL,"Study Phase2",2212,,,-1,-1,,,,1
w980000_lf,5iqf61ok6f,Nick_Dissertation_EX1,1,244,2020-08-17T11:57:35-07:00,3.8162310123444,1,versionA_stim.csv,READVersionA.csv,"Read Version A","Dissertation, read only version A",MIRROR,CHILDREN,Study2,U,174,173,Study,User,-,,Study/JOL,"Study Phase2",3489,,,-1,-1,,,,1
w980000_lf,5iqf61ok6f,Nick_Dissertation_EX1,1,245,2020-08-17T11:57:38-07:00,2.2265918254852,1,versionA_stim.csv,READVersionA.csv,"Read Version A","Dissertation, read only version A",LOAN,SIGN,Study2,U,171,99,Study,User,-,,Study/JOL,"Study Phase2",1868,,,-1,-1,,,,1
w980000_lf,5iqf61ok6f,Nick_Dissertation_EX1,1,246,2020-08-17T11:57:40-07:00,2.0272870063782,1,versionA_stim.csv,READVersionA.csv,"Read Version A","Dissertation, read only version A",WATER,DRINK,Study2,S,143,134,Study,User,-,,Study/JOL,"Study Phase2",1760,,,-1,-1,,,,1
w980000_lf,5iqf61ok6f,Nick_Dissertation_EX1,1,247,2020-08-17T11:57:43-07:00,3.5567421913147,1,versionA_stim.csv,READVersionA.csv,"Read Version A","Dissertation, read only version A",Shell,SHAKE,Study2,U,163,123,Study,User,-,,Study/JOL,"Study Phase2",3225,,,-1,-1,,,,1
w980000_lf,5iqf61ok6f,Nick_Dissertation_EX1,1,248,2020-08-17T11:57:45-07:00,2.0853049755096,1,versionA_stim.csv,READVersionA.csv,"Read Version A","Dissertation, read only version A",DOCUMENT,PAPER,Study2,F,109,114,Study,User,-,,Study/JOL,"Study Phase2",1820,,,-1,-1,,,,1
w980000_lf,5iqf61ok6f,Nick_Dissertation_EX1,1,249,2020-08-17T11:57:47-07:00,2.0982179641724,1,versionA_stim.csv,READVersionA.csv,"Read Version A","Dissertation, read only version A",LITTER,TRASH,Study2,F,103,115,Study,User,-,,Study/JOL,"Study Phase2",1833,,,-1,-1,,,,1
w980000_lf,5iqf61ok6f,Nick_Dissertation_EX1,1,250,2020-08-17T11:57:50-07:00,2.6932399272919,1,versionA_stim.csv,READVersionA.csv,"Read Version A","Dissertation, read only version A",DINE,EAT,Study2,F,111,108,Study,User,-,,Study/JOL,"Study Phase2",1413,,,-1,-1,,,,1
w980000_lf,5iqf61ok6f,Nick_Dissertation_EX1,1,251,2020-08-17T11:57:53-07:00,2.737340927124,1,versionA_stim.csv,READVersionA.csv,"Read Version A","Dissertation, read only version A",FUZZY,BANG,Study2,U,168,176,Study,User,-,,Study/JOL,"Study Phase2",2405,,,-1,-1,,,,1
w980000_lf,5iqf61ok6f,Nick_Dissertation_EX1,1,252,2020-08-17T11:57:56-07:00,2.7265040874481,1,versionA_stim.csv,READVersionA.csv,"Read Version A","Dissertation, read only version A",BOTH,OUNCE,Study2,U,172,146,Study,User,-,,Study/JOL,"Study Phase2",2395,,,-1,-1,,,,1
w980000_lf,5iqf61ok6f,Nick_Dissertation_EX1,1,253,2020-08-17T11:57:58-07:00,2.0593409538269,1,versionA_stim.csv,READVersionA.csv,"Read Version A","Dissertation, read only version A",PHONE,COMMUNICATION,Study2,S,149,97,Study,User,-,,Study/JOL,"Study Phase2",1802,,,-1,-1,,,,1
w980000_lf,5iqf61ok6f,Nick_Dissertation_EX1,1,254,2020-08-17T11:58:01-07:00,3.2275249958038,1,versionA_stim.csv,READVersionA.csv,"Read Version A","Dissertation, read only version A",SCALP,HEAD,Study2,F,105,137,Study,User,-,,Study/JOL,"Study Phase2",2901,,,-1,-1,,,,1
w980000_lf,5iqf61ok6f,Nick_Dissertation_EX1,1,255,2020-08-17T11:58:03-07:00,2.2759599685669,1,versionA_stim.csv,READVersionA.csv,"Read Version A","Dissertation, read only version A",EVEN,REVENGE,Study2,B,122,120,Study,User,-,,Study/JOL,"Study Phase2",1949,,,-1,-1,,,,1
w980000_lf,5iqf61ok6f,Nick_Dissertation_EX1,1,256,2020-08-17T11:58:05-07:00,1.9266722202301,1,versionA_stim.csv,READVersionA.csv,"Read Version A","Dissertation, read only version A",NAME,HATE,Study2,U,167,106,Study,User,-,,Study/JOL,"Study Phase2",1683,,,-1,-1,,,,1
w980000_lf,5iqf61ok6f,Nick_Dissertation_EX1,1,257,2020-08-17T11:58:07-07:00,2.4207088947296,1,versionA_stim.csv,READVersionA.csv,"Read Version A","Dissertation, read only version A",INCENSE,SMELL,Study2,F,110,149,Study,User,-,,Study/JOL,"Study Phase2",2090,,,-1,-1,,,,1
w980000_lf,5iqf61ok6f,Nick_Dissertation_EX1,1,258,2020-08-17T11:58:11-07:00,3.0522530078888,1,versionA_stim.csv,READVersionA.csv,"Read Version A","Dissertation, read only version A",LISTEN,FICTION,Study2,U,164,105,Study,User,-,,Study/JOL,"Study Phase2",1779,,,-1,-1,,,,1
w980000_lf,5iqf61ok6f,Nick_Dissertation_EX1,1,259,2020-08-17T11:58:13-07:00,2.6042098999023,1,versionA_stim.csv,READVersionA.csv,"Read Version A","Dissertation, read only version A",LEASE,TOIL,Study2,U,170,111,Study,User,-,,Study/JOL,"Study Phase2",2289,,,-1,-1,,,,1
w980000_lf,5iqf61ok6f,Nick_Dissertation_EX1,1,260,2020-08-17T11:58:15-07:00,1.8863279819489,1,versionA_stim.csv,READVersionA.csv,"Read Version A","Dissertation, read only version A",DRY,WET,Study2,S,146,128,Study,User,-,,Study/JOL,"Study Phase2",1628,,,-1,-1,,,,1
w980000_lf,5iqf61ok6f,Nick_Dissertation_EX1,1,261,2020-08-17T11:58:17-07:00,2.33842420578,1,versionA_stim.csv,READVersionA.csv,"Read Version A","Dissertation, read only version A",MONTH,YEAR,BUFFER4,Buffer,177,181,Study,User,-,,Study/JOL,BUFFER4,2020,,,-1,-1,,,,1
w980000_lf,5iqf61ok6f,Nick_Dissertation_EX1,1,262,2020-08-17T11:58:19-07:00,1.8262708187103,1,versionA_stim.csv,READVersionA.csv,"Read Version A","Dissertation, read only version A",SPRING,MARCH,BUFFER4,Buffer,179,177,Study,User,-,,Study/JOL,BUFFER4,1550,,,-1,-1,,,,1
w980000_lf,5iqf61ok6f,Nick_Dissertation_EX1,1,263,2020-08-17T11:58:23-07:00,3.3459169864655,1,versionA_stim.csv,READVersionA.csv,"Read Version A","Dissertation, read only version A",DAYS,WEAKS,BUFFER4,Buffer,176,180,Study,User,-,,Study/JOL,BUFFER4,3014,,,-1,-1,,,,1
w980000_lf,5iqf61ok6f,Nick_Dissertation_EX1,1,264,2020-08-17T11:58:25-07:00,2.2312180995941,1,versionA_stim.csv,READVersionA.csv,"Read Version A","Dissertation, read only version A",OCTOBER,SPOOKY,BUFFER4,Buffer,180,178,Study,User,-,,Study/JOL,BUFFER4,1909,,,-1,-1,,,,1
w980000_lf,5iqf61ok6f,Nick_Dissertation_EX1,1,265,2020-08-17T11:58:27-07:00,1.9778199195862,1,versionA_stim.csv,READVersionA.csv,"Read Version A","Dissertation, read only version A",TOOL,SHED,BUFFER4,Buffer,178,179,Study,User,-,,Study/JOL,BUFFER4,1723,,,-1,-1,,,,1
w980000_lf,5iqf61ok6f,Nick_Dissertation_EX1,1,266,2020-08-17T11:58:29-07:00,1.9008321762085,1,versionA_stim.csv,READVersionA.csv,"Read Version A","Dissertation, read only version A",,,,,,0,Instruct,User,-,"You have completed this section. Please press Enter.",Filler_Instruction,Instruct5,1556,,,-1,-1,,,,1
w980000_lf,5iqf61ok6f,Nick_Dissertation_EX1,1,267,2020-08-17T12:00:29-07:00,120.31201887131,1,versionA_stim.csv,READVersionA.csv,"Read Version A","Dissertation, read only version A",,,,,,0,FreeRecall,120,120,"Please list the 50 US states in reverse alphabetical order (z - a). The task will automatically advance to the next screen after two minutes.",,Filler2,120005,"Wyoming West Virginia Virginia Tennessee south Dakota rhode island Pennsylvania oregon ohio new York ",0,11240,116914,0,0,,1
w980000_lf,5iqf61ok6f,Nick_Dissertation_EX1,1,268,2020-08-17T12:00:40-07:00,11.14172410965,1,versionA_stim.csv,READVersionA.csv,"Read Version A","Dissertation, read only version A",,,,,,0,Instruct,-,10,"You will now be presented with the first word from each of the previously studied item pairs. Please type the missing word. If you do not know the word, you may guess or press Enter to skip forward to the next pair.",,Instruct6,10831,,,-1,-1,,,,1
w980000_lf,5iqf61ok6f,Nick_Dissertation_EX1,1,269,2020-08-17T12:00:48-07:00,7.8444240093231,1,versionA_stim.csv,READVersionA.csv,"Read Version A","Dissertation, read only version A",VEHICLE,CHARM,Study2,U,160,161,Test,User,-,,Recall,Recall2,6488,CAR,75,1686,5238,0,1,,1
w980000_lf,5iqf61ok6f,Nick_Dissertation_EX1,1,270,2020-08-17T12:00:53-07:00,5.5136089324951,1,versionA_stim.csv,READVersionA.csv,"Read Version A","Dissertation, read only version A",FRUIT,STRAWBERRY,Study2,B,124,142,Test,User,-,,Recall,Recall2,5090,APPLE,26.666666666667,3429,4149,0,0,,1
w980000_lf,5iqf61ok6f,Nick_Dissertation_EX1,1,271,2020-08-17T12:01:03-07:00,9.0599479675293,1,versionA_stim.csv,READVersionA.csv,"Read Version A","Dissertation, read only version A",BEST,FAVORITE,Study2,B,125,131,Test,User,-,,Recall,Recall2,8719,TOP,18.181818181818,7675,7947,0,0,,1
w980000_lf,5iqf61ok6f,Nick_Dissertation_EX1,1,272,2020-08-17T12:01:05-07:00,2.7428019046783,1,versionA_stim.csv,READVersionA.csv,"Read Version A","Dissertation, read only version A",WATER,DRINK,Study2,S,143,134,Test,User,-,,Recall,Recall2,2413,DRINK,100,1106,1733,1,1,,1
w980000_lf,5iqf61ok6f,Nick_Dissertation_EX1,1,273,2020-08-17T12:01:12-07:00,6.7217230796814,1,versionA_stim.csv,READVersionA.csv,"Read Version A","Dissertation, read only version A",CAT,PANTHER,Study2,B,126,144,Test,User,-,,Recall,Recall2,6388,PANTHER,100,5078,6005,1,1,,1
w980000_lf,5iqf61ok6f,Nick_Dissertation_EX1,1,274,2020-08-17T12:01:17-07:00,5.0123729705811,1,versionA_stim.csv,READVersionA.csv,"Read Version A","Dissertation, read only version A",PHONE,COMMUNICATION,Study2,S,149,97,Test,User,-,,Recall,Recall2,4685,COMMUNICATE,83.333333333333,2355,4219,0,1,,1
w980000_lf,5iqf61ok6f,Nick_Dissertation_EX1,1,275,2020-08-17T12:01:24-07:00,6.9934101104736,1,versionA_stim.csv,READVersionA.csv,"Read Version A","Dissertation, read only version A",CRACKLE,ABLE,Study2,U,162,165,Test,User,-,,Recall,Recall2,6667,POP,0,5757,6107,0,0,,1
w980000_lf,5iqf61ok6f,Nick_Dissertation_EX1,1,276,2020-08-17T12:01:31-07:00,6.8551180362701,1,versionA_stim.csv,READVersionA.csv,"Read Version A","Dissertation, read only version A",CAR,WINDSHIELD,Study2,B,117,141,Test,User,-,,Recall,Recall2,6496,CHARM,13.333333333333,5183,5690,0,0,,1
w980000_lf,5iqf61ok6f,Nick_Dissertation_EX1,1,277,2020-08-17T12:01:34-07:00,2.8303389549255,1,versionA_stim.csv,READVersionA.csv,"Read Version A","Dissertation, read only version A",LITTER,TRASH,Study2,F,103,115,Test,User,-,,Recall,Recall2,2494,TRASH,100,1269,1950,1,1,,1
w980000_lf,5iqf61ok6f,Nick_Dissertation_EX1,1,278,2020-08-17T12:01:36-07:00,1.9803168773651,1,versionA_stim.csv,READVersionA.csv,"Read Version A","Dissertation, read only version A",SCALP,HEAD,Study2,F,105,137,Test,User,-,,Recall,Recall2,1716,HEAD,100,977,1397,1,1,,1
w980000_lf,5iqf61ok6f,Nick_Dissertation_EX1,1,279,2020-08-17T12:01:39-07:00,3.4369111061096,1,versionA_stim.csv,READVersionA.csv,"Read Version A","Dissertation, read only version A",DETECTIVE,MYSTERY,Study2,F,100,151,Test,User,-,,Recall,Recall2,3110,MYSTERY,100,1539,2604,1,1,,1
w980000_lf,5iqf61ok6f,Nick_Dissertation_EX1,1,280,2020-08-17T12:01:42-07:00,2.6177349090576,1,versionA_stim.csv,READVersionA.csv,"Read Version A","Dissertation, read only version A",TANTRUM,TEMPER,Study2,S,154,143,Test,User,-,,Recall,Recall2,2247,TEMPER,100,1138,1895,1,1,,1
w980000_lf,5iqf61ok6f,Nick_Dissertation_EX1,1,281,2020-08-17T12:01:47-07:00,5.6960880756378,1,versionA_stim.csv,READVersionA.csv,"Read Version A","Dissertation, read only version A",BOTH,OUNCE,Study2,U,172,146,Test,User,-,,Recall,Recall2,5365,OUNCE,100,1950,4870,1,1,,1
w980000_lf,5iqf61ok6f,Nick_Dissertation_EX1,1,282,2020-08-17T12:01:51-07:00,3.7201690673828,1,versionA_stim.csv,READVersionA.csv,"Read Version A","Dissertation, read only version A",FLEA,TICK,Study2,S,151,98,Test,User,-,,Recall,Recall2,3407,TICK,100,2432,2954,1,1,,1
w980000_lf,5iqf61ok6f,Nick_Dissertation_EX1,1,283,2020-08-17T12:01:53-07:00,2.0874409675598,1,versionA_stim.csv,READVersionA.csv,"Read Version A","Dissertation, read only version A",FEUD,FIGHT,Study2,F,113,156,Test,User,-,,Recall,Recall2,1812,FIGHT,100,887,1319,1,1,,1
w980000_lf,5iqf61ok6f,Nick_Dissertation_EX1,1,284,2020-08-17T12:02:02-07:00,8.4167499542236,1,versionA_stim.csv,READVersionA.csv,"Read Version A","Dissertation, read only version A",CHOP,CUT,Study2,F,107,112,Test,User,-,,Recall,Recall2,8079,KNIFE,0,4463,7696,0,0,,1
w980000_lf,5iqf61ok6f,Nick_Dissertation_EX1,1,285,2020-08-17T12:02:05-07:00,3.3181169033051,1,versionA_stim.csv,READVersionA.csv,"Read Version A","Dissertation, read only version A",RAZOR,SHAVE,Study2,S,136,103,Test,User,-,,Recall,Recall2,2997,SHAVE,100,2247,2733,1,1,,1
w980000_lf,5iqf61ok6f,Nick_Dissertation_EX1,1,286,2020-08-17T12:02:07-07:00,2.263787984848,1,versionA_stim.csv,READVersionA.csv,"Read Version A","Dissertation, read only version A",DOCUMENT,PAPER,Study2,F,109,114,Test,User,-,,Recall,Recall2,1948,PAPER,100,1030,1601,1,1,,1
w980000_lf,5iqf61ok6f,Nick_Dissertation_EX1,1,287,2020-08-17T12:02:11-07:00,3.6521170139313,1,versionA_stim.csv,READVersionA.csv,"Read Version A","Dissertation, read only version A",STAR,ACTRESS,Study2,B,120,100,Test,User,-,,Recall,Recall2,3334,SKY,20,2108,2491,0,0,,1
w980000_lf,5iqf61ok6f,Nick_Dissertation_EX1,1,288,2020-08-17T12:02:17-07:00,6.4636580944061,1,versionA_stim.csv,READVersionA.csv,"Read Version A","Dissertation, read only version A",LOAN,SIGN,Study2,U,171,99,Test,User,-,,Recall,Recall2,6144,FORM,0,5269,5607,0,0,,1
w980000_lf,5iqf61ok6f,Nick_Dissertation_EX1,1,289,2020-08-17T12:02:20-07:00,3.0618839263916,1,versionA_stim.csv,READVersionA.csv,"Read Version A","Dissertation, read only version A",FUZZY,BANG,Study2,U,168,176,Test,User,-,,Recall,Recall2,2738,BANGS,88.888888888889,1198,2335,0,1,,1
w980000_lf,5iqf61ok6f,Nick_Dissertation_EX1,1,290,2020-08-17T12:02:24-07:00,3.891566991806,1,versionA_stim.csv,READVersionA.csv,"Read Version A","Dissertation, read only version A",Shell,SHAKE,Study2,U,163,123,Test,User,-,,Recall,Recall2,3571,SHAKE,100,2436,2966,1,1,,1
w980000_lf,5iqf61ok6f,Nick_Dissertation_EX1,1,291,2020-08-17T12:02:28-07:00,3.378986120224,1,versionA_stim.csv,READVersionA.csv,"Read Version A","Dissertation, read only version A",DRIVER,CAR,Study2,F,106,167,Test,User,-,,Recall,Recall2,3046,CAR,100,2243,2532,1,1,,1
w980000_lf,5iqf61ok6f,Nick_Dissertation_EX1,1,292,2020-08-17T12:02:30-07:00,2.7244219779968,1,versionA_stim.csv,READVersionA.csv,"Read Version A","Dissertation, read only version A",ADJOURN,END,Study2,F,101,121,Test,User,-,,Recall,Recall2,2402,END,100,1695,1946,1,1,,1
w980000_lf,5iqf61ok6f,Nick_Dissertation_EX1,1,293,2020-08-17T12:02:36-07:00,5.2019810676575,1,versionA_stim.csv,READVersionA.csv,"Read Version A","Dissertation, read only version A",GONE,AWAY,Study2,S,142,113,Test,User,-,,Recall,Recall2,4869,LEAVE,22.222222222222,3463,4125,0,0,,1
w980000_lf,5iqf61ok6f,Nick_Dissertation_EX1,1,294,2020-08-17T12:02:38-07:00,2.3334319591522,1,versionA_stim.csv,READVersionA.csv,"Read Version A","Dissertation, read only version A",CACTUS,PLANT,Study2,F,98,170,Test,User,-,,Recall,Recall2,2002,PLANT,100,1046,1668,1,1,,1
w980000_lf,5iqf61ok6f,Nick_Dissertation_EX1,1,295,2020-08-17T12:02:44-07:00,6.26700091362,1,versionA_stim.csv,READVersionA.csv,"Read Version A","Dissertation, read only version A",RIGHTS,EQUAL,Study2,S,137,138,Test,User,-,,Recall,Recall2,5937,EQUAL,100,4702,5471,1,1,,1
w980000_lf,5iqf61ok6f,Nick_Dissertation_EX1,1,296,2020-08-17T12:02:47-07:00,3.1187901496887,1,versionA_stim.csv,READVersionA.csv,"Read Version A","Dissertation, read only version A",SHEARS,SCISSORS,Study2,F,112,102,Test,User,-,,Recall,Recall2,2780,SCISSORS,100,1127,2356,1,1,,1
w980000_lf,5iqf61ok6f,Nick_Dissertation_EX1,1,297,2020-08-17T12:02:52-07:00,4.6409978866577,1,versionA_stim.csv,READVersionA.csv,"Read Version A","Dissertation, read only version A",MULE,DONKEY,Study2,F,108,116,Test,User,-,,Recall,Recall2,4305,DONKEY,100,1198,3814,1,1,,1
w980000_lf,5iqf61ok6f,Nick_Dissertation_EX1,1,298,2020-08-17T12:03:02-07:00,9.8007419109344,1,versionA_stim.csv,READVersionA.csv,"Read Version A","Dissertation, read only version A",INCENSE,SMELL,Study2,F,110,149,Test,User,-,,Recall,Recall2,9458,CANDLE,18.181818181818,5108,9052,0,0,,1
w980000_lf,5iqf61ok6f,Nick_Dissertation_EX1,1,299,2020-08-17T12:03:05-07:00,2.8924970626831,1,versionA_stim.csv,READVersionA.csv,"Read Version A","Dissertation, read only version A",EXTENSION,LONG,Study2,F,96,171,Test,User,-,,Recall,Recall2,2562,LINE,50,1548,1990,0,0,,1
w980000_lf,5iqf61ok6f,Nick_Dissertation_EX1,1,300,2020-08-17T12:03:09-07:00,4.0725119113922,1,versionA_stim.csv,READVersionA.csv,"Read Version A","Dissertation, read only version A",ROD,REEL,Study2,S,150,160,Test,User,-,,Recall,Recall2,3731,POLE,25,2757,3282,0,0,,1
w980000_lf,5iqf61ok6f,Nick_Dissertation_EX1,1,301,2020-08-17T12:03:18-07:00,9.0977540016174,1,versionA_stim.csv,READVersionA.csv,"Read Version A","Dissertation, read only version A",JUSTICE,MAROON,Study2,U,156,157,Test,User,-,,Recall,Recall2,8746,PEACE,18.181818181818,7470,8196,0,0,,1
w980000_lf,5iqf61ok6f,Nick_Dissertation_EX1,1,302,2020-08-17T12:03:20-07:00,2.4198310375214,1,versionA_stim.csv,READVersionA.csv,"Read Version A","Dissertation, read only version A",LOUD,NOISE,Study2,S,152,119,Test,User,-,,Recall,Recall2,2014,NOISE,100,999,1507,1,1,,1
w980000_lf,5iqf61ok6f,Nick_Dissertation_EX1,1,303,2020-08-17T12:03:29-07:00,8.3594830036163,1,versionA_stim.csv,READVersionA.csv,"Read Version A","Dissertation, read only version A",BAD,VILLAIN,Study2,B,118,110,Test,User,-,,Recall,Recall2,8019,DELINQUENT,35.294117647059,5577,7509,0,0,,1
w980000_lf,5iqf61ok6f,Nick_Dissertation_EX1,1,304,2020-08-17T12:03:33-07:00,4.3498871326447,1,versionA_stim.csv,READVersionA.csv,"Read Version A","Dissertation, read only version A",SAFETY,SEATBELT,Study2,S,147,172,Test,User,-,,Recall,Recall2,4015,SEATBELT,100,1768,3521,1,1,,1
w980000_lf,5iqf61ok6f,Nick_Dissertation_EX1,1,305,2020-08-17T12:03:36-07:00,3.256912946701,1,versionA_stim.csv,READVersionA.csv,"Read Version A","Dissertation, read only version A",HONEST,TRUTHFUL,Study2,B,133,159,Test,User,-,,Recall,Recall2,2929,TRUTH,76.923076923077,1238,2418,0,1,,1
w980000_lf,5iqf61ok6f,Nick_Dissertation_EX1,1,306,2020-08-17T12:03:40-07:00,3.3961009979248,1,versionA_stim.csv,READVersionA.csv,"Read Version A","Dissertation, read only version A",CAKE,CLOTHES,Study2,U,166,174,Test,User,-,,Recall,Recall2,3055,CLOTHES,100,1862,2528,1,1,,1
w980000_lf,5iqf61ok6f,Nick_Dissertation_EX1,1,307,2020-08-17T12:03:42-07:00,2.2281630039215,1,versionA_stim.csv,READVersionA.csv,"Read Version A","Dissertation, read only version A",LISTEN,FICTION,Study2,U,164,105,Test,User,-,,Recall,Recall2,1868,HEAR,0,1124,1542,0,0,,1
w980000_lf,5iqf61ok6f,Nick_Dissertation_EX1,1,308,2020-08-17T12:03:48-07:00,6.0308990478516,1,versionA_stim.csv,READVersionA.csv,"Read Version A","Dissertation, read only version A",EARTH,GROUND,Study2,S,144,175,Test,User,-,,Recall,Recall2,5718,SOIL,20,2825,5276,0,0,,1
w980000_lf,5iqf61ok6f,Nick_Dissertation_EX1,1,309,2020-08-17T12:03:52-07:00,4.5491409301758,1,versionA_stim.csv,READVersionA.csv,"Read Version A","Dissertation, read only version A",LEASE,TOIL,Study2,U,170,111,Test,User,-,,Recall,Recall2,4228,SIGN,25,2714,3046,0,0,,1
w980000_lf,5iqf61ok6f,Nick_Dissertation_EX1,1,310,2020-08-17T12:04:06-07:00,13.555670022964,1,versionA_stim.csv,READVersionA.csv,"Read Version A","Dissertation, read only version A",TRUTH,LIE,Study2,S,148,169,Test,User,-,,Recall,Recall2,13238,HONEST,22.222222222222,9098,12171,0,0,,1
w980000_lf,5iqf61ok6f,Nick_Dissertation_EX1,1,311,2020-08-17T12:04:09-07:00,2.7457919120789,1,versionA_stim.csv,READVersionA.csv,"Read Version A","Dissertation, read only version A",TEMPERATURE,Morning,Study2,U,173,104,Test,User,-,,Recall,Recall2,2433,MORNING,100,1349,2016,1,1,,1
w980000_lf,5iqf61ok6f,Nick_Dissertation_EX1,1,312,2020-08-17T12:04:12-07:00,3.7067241668701,1,versionA_stim.csv,READVersionA.csv,"Read Version A","Dissertation, read only version A",SUN,TAN,Study2,S,155,158,Test,User,-,,Recall,Recall2,3393,SKY,0,2336,2641,0,0,,1
w980000_lf,5iqf61ok6f,Nick_Dissertation_EX1,1,313,2020-08-17T12:04:15-07:00,2.9056429862976,1,versionA_stim.csv,READVersionA.csv,"Read Version A","Dissertation, read only version A",MEAT,OBTAIN,Study2,U,161,109,Test,User,-,,Recall,Recall2,2576,OBTAIN,100,1261,2018,1,1,,1
w980000_lf,5iqf61ok6f,Nick_Dissertation_EX1,1,314,2020-08-17T12:04:18-07:00,2.8101649284363,1,versionA_stim.csv,READVersionA.csv,"Read Version A","Dissertation, read only version A",STRETCH,CLOTH,Study2,U,157,166,Test,User,-,,Recall,Recall2,2484,,0,-1,-1,0,0,,1
w980000_lf,5iqf61ok6f,Nick_Dissertation_EX1,1,315,2020-08-17T12:04:21-07:00,2.610228061676,1,versionA_stim.csv,READVersionA.csv,"Read Version A","Dissertation, read only version A",CHERRY,RED,Study2,F,104,162,Test,User,-,,Recall,Recall2,1877,FRUIT,25,970,1509,0,0,,1
w980000_lf,5iqf61ok6f,Nick_Dissertation_EX1,1,316,2020-08-17T12:04:23-07:00,2.6395699977875,1,versionA_stim.csv,READVersionA.csv,"Read Version A","Dissertation, read only version A",MOAT,CLEAR,Study2,U,169,132,Test,User,-,,Recall,Recall2,2303,EMPTY,20,1317,1838,0,0,,1
w980000_lf,5iqf61ok6f,Nick_Dissertation_EX1,1,317,2020-08-17T12:04:26-07:00,2.5497529506683,1,versionA_stim.csv,READVersionA.csv,"Read Version A","Dissertation, read only version A",KEYS,JOKE,Study2,U,165,154,Test,User,-,,Recall,Recall2,2157,JOKE,100,1372,1793,1,1,,1
w980000_lf,5iqf61ok6f,Nick_Dissertation_EX1,1,318,2020-08-17T12:04:30-07:00,3.7600750923157,1,versionA_stim.csv,READVersionA.csv,"Read Version A","Dissertation, read only version A",OWN,HAVE,Study2,S,153,147,Test,User,-,,Recall,Recall2,3416,HOLD,25,2055,2992,0,0,,1
w980000_lf,5iqf61ok6f,Nick_Dissertation_EX1,1,319,2020-08-17T12:04:33-07:00,3.0653560161591,1,versionA_stim.csv,READVersionA.csv,"Read Version A","Dissertation, read only version A",MASON,JAR,Study2,S,138,155,Test,User,-,,Recall,Recall2,2691,JAR,100,2084,2335,1,1,,1
w980000_lf,5iqf61ok6f,Nick_Dissertation_EX1,1,320,2020-08-17T12:04:35-07:00,2.2286138534546,1,versionA_stim.csv,READVersionA.csv,"Read Version A","Dissertation, read only version A",CLUE,GAME,Study2,F,97,145,Test,User,-,,Recall,Recall2,1862,GAME,100,1087,1418,1,1,,1
w980000_lf,5iqf61ok6f,Nick_Dissertation_EX1,1,321,2020-08-17T12:04:39-07:00,3.9799609184265,1,versionA_stim.csv,READVersionA.csv,"Read Version A","Dissertation, read only version A",BASEBALL,LEAGUE,Study2,B,131,153,Test,User,-,,Recall,Recall2,3649,LEAGUE,100,2634,3231,1,1,,1
w980000_lf,5iqf61ok6f,Nick_Dissertation_EX1,1,322,2020-08-17T12:04:42-07:00,3.4882612228394,1,versionA_stim.csv,READVersionA.csv,"Read Version A","Dissertation, read only version A",MAZE,ELECTION,Study2,U,159,107,Test,User,-,,Recall,Recall2,3161,ELECTION,100,1377,2374,1,1,,1
w980000_lf,5iqf61ok6f,Nick_Dissertation_EX1,1,323,2020-08-17T12:04:49-07:00,6.1487679481506,1,versionA_stim.csv,READVersionA.csv,"Read Version A","Dissertation, read only version A",FIGHT,BRAWL,Study2,B,135,140,Test,User,-,,Recall,Recall2,5824,SCARE,20,3772,4403,0,0,,1
w980000_lf,5iqf61ok6f,Nick_Dissertation_EX1,1,324,2020-08-17T12:04:52-07:00,3.7791509628296,1,versionA_stim.csv,READVersionA.csv,"Read Version A","Dissertation, read only version A",WRIST,BRACELET,Study2,S,140,164,Test,User,-,,Recall,Recall2,3453,BRACELET,100,1850,3035,1,1,,1
w980000_lf,5iqf61ok6f,Nick_Dissertation_EX1,1,325,2020-08-17T12:04:55-07:00,2.2384829521179,1,versionA_stim.csv,READVersionA.csv,"Read Version A","Dissertation, read only version A",SLEEP,NAP,Study2,B,134,130,Test,User,-,,Recall,Recall2,1902,NIGHT,25,1146,1598,0,0,,1
w980000_lf,5iqf61ok6f,Nick_Dissertation_EX1,1,326,2020-08-17T12:04:58-07:00,3.3935639858246,1,versionA_stim.csv,READVersionA.csv,"Read Version A","Dissertation, read only version A",PLANE,AIRCRAFT,Study2,B,129,163,Test,User,-,,Recall,Recall2,3081,AIRCRAFT,100,1353,2626,1,1,,1
w980000_lf,5iqf61ok6f,Nick_Dissertation_EX1,1,327,2020-08-17T12:05:02-07:00,3.8862869739532,1,versionA_stim.csv,READVersionA.csv,"Read Version A","Dissertation, read only version A",CHILL,COLD,Study2,F,114,148,Test,User,-,,Recall,Recall2,3564,COLD,100,2745,3105,1,1,,1
w980000_lf,5iqf61ok6f,Nick_Dissertation_EX1,1,328,2020-08-17T12:05:05-07:00,2.9142320156097,1,versionA_stim.csv,READVersionA.csv,"Read Version A","Dissertation, read only version A",MIRROR,CHILDREN,Study2,U,174,173,Test,User,-,,Recall,Recall2,2575,CHILDREN,100,1095,1990,1,1,,1
w980000_lf,5iqf61ok6f,Nick_Dissertation_EX1,1,329,2020-08-17T12:05:09-07:00,3.779736995697,1,versionA_stim.csv,READVersionA.csv,"Read Version A","Dissertation, read only version A",DRY,WET,Study2,S,146,128,Test,User,-,,Recall,Recall2,3434,AIR,0,2879,3073,0,0,,1
w980000_lf,5iqf61ok6f,Nick_Dissertation_EX1,1,330,2020-08-17T12:05:11-07:00,2.7557280063629,1,versionA_stim.csv,READVersionA.csv,"Read Version A","Dissertation, read only version A",GIVE,STEAK,Study2,U,158,150,Test,User,-,,Recall,Recall2,2425,TAKE,66.666666666667,1759,2116,0,0,,1
w980000_lf,5iqf61ok6f,Nick_Dissertation_EX1,1,331,2020-08-17T12:05:15-07:00,3.846410036087,1,versionA_stim.csv,READVersionA.csv,"Read Version A","Dissertation, read only version A",SHOELACE,TIE,Study2,F,99,118,Test,User,-,,Recall,Recall2,3516,TIE,100,2721,3003,1,1,,1
w980000_lf,5iqf61ok6f,Nick_Dissertation_EX1,1,332,2020-08-17T12:05:22-07:00,6.7092339992523,1,versionA_stim.csv,READVersionA.csv,"Read Version A","Dissertation, read only version A",MAIN,SCAR,Study2,U,175,126,Test,User,-,,Recall,Recall2,6375,CUT,28.571428571429,4192,4447,0,0,,1
w980000_lf,5iqf61ok6f,Nick_Dissertation_EX1,1,333,2020-08-17T12:05:27-07:00,4.948802947998,1,versionA_stim.csv,READVersionA.csv,"Read Version A","Dissertation, read only version A",GLASS,BREAKABLE,Study2,B,127,122,Test,User,-,,Recall,Recall2,4605,SHATTER,25,3276,4136,0,0,,1
w980000_lf,5iqf61ok6f,Nick_Dissertation_EX1,1,334,2020-08-17T12:05:30-07:00,3.2336640357971,1,versionA_stim.csv,READVersionA.csv,"Read Version A","Dissertation, read only version A",DINE,EAT,Study2,F,111,108,Test,User,-,,Recall,Recall2,2907,EAT,100,2248,2514,1,1,,1
w980000_lf,5iqf61ok6f,Nick_Dissertation_EX1,1,335,2020-08-17T12:05:33-07:00,2.9236531257629,1,versionA_stim.csv,READVersionA.csv,"Read Version A","Dissertation, read only version A",MONEY,BANKER,Study2,B,132,101,Test,User,-,,Recall,Recall2,2606,HAVE,40,1453,1847,0,0,,1
w980000_lf,5iqf61ok6f,Nick_Dissertation_EX1,1,336,2020-08-17T12:05:35-07:00,2.2390289306641,1,versionA_stim.csv,READVersionA.csv,"Read Version A","Dissertation, read only version A",FURRY,DOG,Study2,F,102,139,Test,User,-,,Recall,Recall2,1882,DOG,100,1164,1412,1,1,,1
w980000_lf,5iqf61ok6f,Nick_Dissertation_EX1,1,337,2020-08-17T12:05:39-07:00,3.3060438632965,1,versionA_stim.csv,READVersionA.csv,"Read Version A","Dissertation, read only version A",BIRD,PENGUIN,Study2,B,119,127,Test,User,-,,Recall,Recall2,2985,FLY,0,2048,2305,0,0,,1
w980000_lf,5iqf61ok6f,Nick_Dissertation_EX1,1,338,2020-08-17T12:05:49-07:00,10.171216011047,1,versionA_stim.csv,READVersionA.csv,"Read Version A","Dissertation, read only version A",NAME,HATE,Study2,U,167,106,Test,User,-,,Recall,Recall2,9849,PERSON,20,7100,9398,0,0,,1
w980000_lf,5iqf61ok6f,Nick_Dissertation_EX1,1,339,2020-08-17T12:05:52-07:00,3.4457440376282,1,versionA_stim.csv,READVersionA.csv,"Read Version A","Dissertation, read only version A",EVEN,REVENGE,Study2,B,122,120,Test,User,-,,Recall,Recall2,3113,REVENGE,100,1556,2684,1,1,,1
w980000_lf,5iqf61ok6f,Nick_Dissertation_EX1,1,340,2020-08-17T12:05:54-07:00,2.2438790798187,1,versionA_stim.csv,READVersionA.csv,"Read Version A","Dissertation, read only version A",AFFECTION,LOVE,Study2,F,115,124,Test,User,-,,Recall,Recall2,1910,LOVE,100,1012,1491,1,1,,1
w980000_lf,5iqf61ok6f,Nick_Dissertation_EX1,1,341,2020-08-17T12:05:58-07:00,3.7819399833679,1,versionA_stim.csv,READVersionA.csv,"Read Version A","Dissertation, read only version A",ELEMENT,CARBON,Study2,S,141,168,Test,User,-,,Recall,Recall2,3462,SUPRISE,15.384615384615,1925,3113,0,0,,1
w980000_lf,5iqf61ok6f,Nick_Dissertation_EX1,1,342,2020-08-17T12:06:01-07:00,3.018718957901,1,versionA_stim.csv,READVersionA.csv,"Read Version A","Dissertation, read only version A",ALONE,LONELY,Study2,S,145,152,Test,User,-,,Recall,Recall2,2693,,0,-1,-1,0,0,,1
w980000_lf,5iqf61ok6f,Nick_Dissertation_EX1,1,343,2020-08-17T12:06:05-07:00,3.8945541381836,1,versionA_stim.csv,READVersionA.csv,"Read Version A","Dissertation, read only version A",CANDLE,WAX,Study2,S,139,117,Test,User,-,,Recall,Recall2,3571,INCENSE,0,1125,2094,0,0,,1
w980000_lf,5iqf61ok6f,Nick_Dissertation_EX1,1,344,2020-08-17T12:06:09-07:00,4.1236298084259,1,versionA_stim.csv,READVersionA.csv,"Read Version A","Dissertation, read only version A",POP,BALLOON,Study2,B,123,135,Test,User,-,,Recall,Recall2,3794,CRACKLE,28.571428571429,1970,3041,0,0,,1
w980000_lf,5iqf61ok6f,Nick_Dissertation_EX1,1,345,2020-08-17T12:06:18-07:00,8.2796251773834,1,versionA_stim.csv,READVersionA.csv,"Read Version A","Dissertation, read only version A",DEAD,COFFIN,Study2,B,128,129,Test,User,-,,Recall,Recall2,7897,COFFIN,100,5591,6353,1,1,,1
w980000_lf,5iqf61ok6f,Nick_Dissertation_EX1,1,346,2020-08-17T12:06:25-07:00,7.1055948734283,1,versionA_stim.csv,READVersionA.csv,"Read Version A","Dissertation, read only version A",THREAD,THIMBLE,Study2,B,121,125,Test,User,-,,Recall,Recall2,6771,NEEDLE,30.769230769231,1664,6270,0,0,,1
w980000_lf,5iqf61ok6f,Nick_Dissertation_EX1,1,347,2020-08-17T12:06:29-07:00,4.6686849594116,1,versionA_stim.csv,READVersionA.csv,"Read Version A","Dissertation, read only version A",TURN,FLIP,Study2,B,116,136,Test,User,-,,Recall,Recall2,4331,FLIP,100,3313,3743,1,1,,1
w980000_lf,5iqf61ok6f,Nick_Dissertation_EX1,1,348,2020-08-17T12:06:33-07:00,3.703449010849,1,versionA_stim.csv,READVersionA.csv,"Read Version A","Dissertation, read only version A",FISH,SARDINE,Study2,B,130,133,Test,User,-,,Recall,Recall2,3377,SARDINE,100,1979,2845,1,1,,1
w980000_lf,5iqf61ok6f,Nick_Dissertation_EX1,1,349,2020-08-17T12:06:35-07:00,1.9222400188446,1,versionA_stim.csv,READVersionA.csv,"Read Version A","Dissertation, read only version A",,,,,,0,Instruct,User,-,"You have completed this section. Please press Enter.",,Instruct7,1656,,,-1,-1,,,,1
w980000_lf,5iqf61ok6f,Nick_Dissertation_EX1,1,350,2020-08-17T12:06:37-07:00,2.3043830394745,1,versionA_stim.csv,READVersionA.csv,"Read Version A","Dissertation, read only version A",,,,,,0,Instruct,User,-,"The following screen will ask you a few questions abour your experience today. You must complete these questions to receive credit.",,Instruct8,1987,,,-1,-1,,,,1
