Username,ID,ExperimentName,Session,Trial,Date,TimeDif,"Condition Number","Stimuli File","Order File","Condition Description","Condition Notes",Stimuli*Cue,Stimuli*Answer,Stimuli*Shuffle,"Stimuli*Stimuli Notes",Stimuli*Value,Procedure*Item,"Procedure*Trial Type","Procedure*Max Time","Procedure*Min Time",Procedure*Text,"Procedure*Procedure Notes",Procedure*Shuffle,Response*RT,Response*Response,Response*Accuracy,Response*RTfirst,Response*RTlast,Response*strictAcc,Response*lenientAcc,Response*focus,Response*Focus
w535119_jll,9ow3oocti8,Nick_Dissertation_EX1,1,1,2020-08-29T16:26:50-07:00,15.185206890106,3,versionC_stim.csv,READVersionC.csv,"Read Version C","Dissertation, read only version C",,,,,,0,Instruct,-,10,"Please study each of the following word pairs. Remember that your memory will be tested! When finished, press Enter to move to the next pair.",Initial_Instruct,Instruct1,14421,,,-1,-1,,,,1
w535119_jll,9ow3oocti8,Nick_Dissertation_EX1,1,2,2020-08-29T16:26:54-07:00,3.7160029411316,3,versionC_stim.csv,READVersionC.csv,"Read Version C","Dissertation, read only version C",HIDE,SCARE,BUFFER1,Buffer,4,4,Study,User,-,,Study/JOL,BUFFER,2797,,,-1,-1,,,,1
w535119_jll,9ow3oocti8,Nick_Dissertation_EX1,1,3,2020-08-29T16:26:57-07:00,2.8176209926605,3,versionC_stim.csv,READVersionC.csv,"Read Version C","Dissertation, read only version C",CATCHER,BASEBALL,BUFFER1,Buffer,2,2,Study,User,-,,Study/JOL,BUFFER,2200,,,-1,-1,,,,1
w535119_jll,9ow3oocti8,Nick_Dissertation_EX1,1,4,2020-08-29T16:26:59-07:00,2.090900182724,3,versionC_stim.csv,READVersionC.csv,"Read Version C","Dissertation, read only version C",BUTTER,PEANUT,BUFFER1,Buffer,3,6,Study,User,-,,Study/JOL,BUFFER,1415,,,-1,-1,,,,1
w535119_jll,9ow3oocti8,Nick_Dissertation_EX1,1,5,2020-08-29T16:27:01-07:00,2.1402728557587,3,versionC_stim.csv,READVersionC.csv,"Read Version C","Dissertation, read only version C",JAM,SPACE,BUFFER1,Buffer,5,3,Study,User,-,,Study/JOL,BUFFER,1552,,,-1,-1,,,,1
w535119_jll,9ow3oocti8,Nick_Dissertation_EX1,1,6,2020-08-29T16:27:03-07:00,1.8400521278381,3,versionC_stim.csv,READVersionC.csv,"Read Version C","Dissertation, read only version C",GREEN,TREES,BUFFER1,Buffer,1,5,Study,User,-,,Study/JOL,BUFFER,1305,,,-1,-1,,,,1
w535119_jll,9ow3oocti8,Nick_Dissertation_EX1,1,7,2020-08-29T16:27:05-07:00,1.8992128372192,3,versionC_stim.csv,READVersionC.csv,"Read Version C","Dissertation, read only version C",AMOUNT,NUMBER,Study1,S,47,67,Study,User,-,,Study/JOL,"Study Phase",1309,,,-1,-1,,,,1
w535119_jll,9ow3oocti8,Nick_Dissertation_EX1,1,8,2020-08-29T16:27:07-07:00,1.8735630512238,3,versionC_stim.csv,READVersionC.csv,"Read Version C","Dissertation, read only version C",LATCH,KEY,Study1,F,36,47,Study,User,-,,Study/JOL,"Study Phase",1130,,,-1,-1,,,,1
w535119_jll,9ow3oocti8,Nick_Dissertation_EX1,1,9,2020-08-29T16:27:08-07:00,1.5405650138855,3,versionC_stim.csv,READVersionC.csv,"Read Version C","Dissertation, read only version C",CLEAN,HYGIENE,Study1,B,17,77,Study,User,-,,Study/JOL,"Study Phase",914,,,-1,-1,,,,1
w535119_jll,9ow3oocti8,Nick_Dissertation_EX1,1,10,2020-08-29T16:27:10-07:00,1.5814130306244,3,versionC_stim.csv,READVersionC.csv,"Read Version C","Dissertation, read only version C",ATTIRE,CLOTHES,Study1,F,43,84,Study,User,-,,Study/JOL,"Study Phase",1010,,,-1,-1,,,,1
w535119_jll,9ow3oocti8,Nick_Dissertation_EX1,1,11,2020-08-29T16:27:11-07:00,1.4291138648987,3,versionC_stim.csv,READVersionC.csv,"Read Version C","Dissertation, read only version C",RACKET,BALL,Study1,F,38,31,Study,User,-,,Study/JOL,"Study Phase",866,,,-1,-1,,,,1
w535119_jll,9ow3oocti8,Nick_Dissertation_EX1,1,12,2020-08-29T16:27:13-07:00,1.7697641849518,3,versionC_stim.csv,READVersionC.csv,"Read Version C","Dissertation, read only version C",POSITION,MACHINE,Study1,U,76,79,Study,User,-,,Study/JOL,"Study Phase",1007,,,-1,-1,,,,1
w535119_jll,9ow3oocti8,Nick_Dissertation_EX1,1,13,2020-08-29T16:27:15-07:00,1.7979509830475,3,versionC_stim.csv,READVersionC.csv,"Read Version C","Dissertation, read only version C",LIVER,KIDNEY,Study1,S,53,78,Study,User,-,,Study/JOL,"Study Phase",1249,,,-1,-1,,,,1
w535119_jll,9ow3oocti8,Nick_Dissertation_EX1,1,14,2020-08-29T16:27:16-07:00,1.5602159500122,3,versionC_stim.csv,READVersionC.csv,"Read Version C","Dissertation, read only version C",CARD,CREDIT,Study1,B,23,16,Study,User,-,,Study/JOL,"Study Phase",1030,,,-1,-1,,,,1
w535119_jll,9ow3oocti8,Nick_Dissertation_EX1,1,15,2020-08-29T16:27:18-07:00,1.570347070694,3,versionC_stim.csv,READVersionC.csv,"Read Version C","Dissertation, read only version C",CHORE,WORK,Study1,F,39,32,Study,User,-,,Study/JOL,"Study Phase",954,,,-1,-1,,,,1
w535119_jll,9ow3oocti8,Nick_Dissertation_EX1,1,16,2020-08-29T16:27:20-07:00,2.2681069374084,3,versionC_stim.csv,READVersionC.csv,"Read Version C","Dissertation, read only version C",SITE,LOCATION,Study1,S,48,37,Study,User,-,,Study/JOL,"Study Phase",1684,,,-1,-1,,,,1
w535119_jll,9ow3oocti8,Nick_Dissertation_EX1,1,17,2020-08-29T16:27:23-07:00,2.6010129451752,3,versionC_stim.csv,READVersionC.csv,"Read Version C","Dissertation, read only version C",HUNGRY,PARK,Study1,U,68,35,Study,User,-,,Study/JOL,"Study Phase",1771,,,-1,-1,,,,1
w535119_jll,9ow3oocti8,Nick_Dissertation_EX1,1,18,2020-08-29T16:27:28-07:00,5.4906380176544,3,versionC_stim.csv,READVersionC.csv,"Read Version C","Dissertation, read only version C",SICK,HIDE,Study1,U,84,59,Study,User,-,,Study/JOL,"Study Phase",4883,,,-1,-1,,,,1
w535119_jll,9ow3oocti8,Nick_Dissertation_EX1,1,19,2020-08-29T16:27:31-07:00,2.3913269042969,3,versionC_stim.csv,READVersionC.csv,"Read Version C","Dissertation, read only version C",SIGHT,DEBATE,Study1,U,73,42,Study,User,-,,Study/JOL,"Study Phase",1648,,,-1,-1,,,,1
w535119_jll,9ow3oocti8,Nick_Dissertation_EX1,1,20,2020-08-29T16:27:32-07:00,1.3690881729126,3,versionC_stim.csv,READVersionC.csv,"Read Version C","Dissertation, read only version C",FUTURE,PAST,Study1,S,61,27,Study,User,-,,Study/JOL,"Study Phase",823,,,-1,-1,,,,1
w535119_jll,9ow3oocti8,Nick_Dissertation_EX1,1,21,2020-08-29T16:27:34-07:00,1.6989200115204,3,versionC_stim.csv,READVersionC.csv,"Read Version C","Dissertation, read only version C",SEIZE,TAKE,Study1,F,29,73,Study,User,-,,Study/JOL,"Study Phase",1015,,,-1,-1,,,,1
w535119_jll,9ow3oocti8,Nick_Dissertation_EX1,1,22,2020-08-29T16:27:36-07:00,1.7861099243164,3,versionC_stim.csv,READVersionC.csv,"Read Version C","Dissertation, read only version C",STING,HORNET,Study1,B,11,83,Study,User,-,,Study/JOL,"Study Phase",1088,,,-1,-1,,,,1
w535119_jll,9ow3oocti8,Nick_Dissertation_EX1,1,23,2020-08-29T16:27:37-07:00,1.4239890575409,3,versionC_stim.csv,READVersionC.csv,"Read Version C","Dissertation, read only version C",MONEY,WAGE,Study1,B,8,30,Study,User,-,,Study/JOL,"Study Phase",916,,,-1,-1,,,,1
w535119_jll,9ow3oocti8,Nick_Dissertation_EX1,1,24,2020-08-29T16:27:40-07:00,2.6576390266418,3,versionC_stim.csv,READVersionC.csv,"Read Version C","Dissertation, read only version C",ENOUGH,FULL,Study1,F,26,71,Study,User,-,,Study/JOL,"Study Phase",2054,,,-1,-1,,,,1
w535119_jll,9ow3oocti8,Nick_Dissertation_EX1,1,25,2020-08-29T16:27:41-07:00,1.6696419715881,3,versionC_stim.csv,READVersionC.csv,"Read Version C","Dissertation, read only version C",CHEESE,WINE,Study1,S,57,8,Study,User,-,,Study/JOL,"Study Phase",958,,,-1,-1,,,,1
w535119_jll,9ow3oocti8,Nick_Dissertation_EX1,1,26,2020-08-29T16:27:43-07:00,1.3919508457184,3,versionC_stim.csv,READVersionC.csv,"Read Version C","Dissertation, read only version C",ADD,VALLEY,Study1,U,82,82,Study,User,-,,Study/JOL,"Study Phase",860,,,-1,-1,,,,1
w535119_jll,9ow3oocti8,Nick_Dissertation_EX1,1,27,2020-08-29T16:27:45-07:00,2.431095123291,3,versionC_stim.csv,READVersionC.csv,"Read Version C","Dissertation, read only version C",BELT,SOON,Study1,U,70,68,Study,User,-,,Study/JOL,"Study Phase",1788,,,-1,-1,,,,1
w535119_jll,9ow3oocti8,Nick_Dissertation_EX1,1,28,2020-08-29T16:27:47-07:00,1.703155040741,3,versionC_stim.csv,READVersionC.csv,"Read Version C","Dissertation, read only version C",FANTASTIC,GREAT,Study1,F,35,38,Study,User,-,,Study/JOL,"Study Phase",979,,,-1,-1,,,,1
w535119_jll,9ow3oocti8,Nick_Dissertation_EX1,1,29,2020-08-29T16:27:48-07:00,1.4594349861145,3,versionC_stim.csv,READVersionC.csv,"Read Version C","Dissertation, read only version C",BLAZE,FIRE,Study1,F,45,64,Study,User,-,,Study/JOL,"Study Phase",917,,,-1,-1,,,,1
w535119_jll,9ow3oocti8,Nick_Dissertation_EX1,1,30,2020-08-29T16:27:50-07:00,1.6449880599976,3,versionC_stim.csv,READVersionC.csv,"Read Version C","Dissertation, read only version C",PLANT,ROOT,Study1,B,13,18,Study,User,-,,Study/JOL,"Study Phase",1044,,,-1,-1,,,,1
w535119_jll,9ow3oocti8,Nick_Dissertation_EX1,1,31,2020-08-29T16:27:51-07:00,1.5896558761597,3,versionC_stim.csv,READVersionC.csv,"Read Version C","Dissertation, read only version C",OUT,WAY,Study1,B,16,57,Study,User,-,,Study/JOL,"Study Phase",1052,,,-1,-1,,,,1
w535119_jll,9ow3oocti8,Nick_Dissertation_EX1,1,32,2020-08-29T16:27:54-07:00,2.0869131088257,3,versionC_stim.csv,READVersionC.csv,"Read Version C","Dissertation, read only version C",WOMAN,LIFT,Study1,U,69,53,Study,User,-,,Study/JOL,"Study Phase",1515,,,-1,-1,,,,1
w535119_jll,9ow3oocti8,Nick_Dissertation_EX1,1,33,2020-08-29T16:27:55-07:00,1.4840219020844,3,versionC_stim.csv,READVersionC.csv,"Read Version C","Dissertation, read only version C",SALAD,LETTUCE,Study1,S,59,74,Study,User,-,,Study/JOL,"Study Phase",897,,,-1,-1,,,,1
w535119_jll,9ow3oocti8,Nick_Dissertation_EX1,1,34,2020-08-29T16:27:57-07:00,1.6508810520172,3,versionC_stim.csv,READVersionC.csv,"Read Version C","Dissertation, read only version C",CHILD,BABY,Study1,S,64,44,Study,User,-,,Study/JOL,"Study Phase",1107,,,-1,-1,,,,1
w535119_jll,9ow3oocti8,Nick_Dissertation_EX1,1,35,2020-08-29T16:27:58-07:00,1.6592619419098,3,versionC_stim.csv,READVersionC.csv,"Read Version C","Dissertation, read only version C",RIDDLE,SUGAR,Study1,U,81,19,Study,User,-,,Study/JOL,"Study Phase",1075,,,-1,-1,,,,1
w535119_jll,9ow3oocti8,Nick_Dissertation_EX1,1,36,2020-08-29T16:28:00-07:00,1.9234330654144,3,versionC_stim.csv,READVersionC.csv,"Read Version C","Dissertation, read only version C",CLUTTER,PUSHER,Study1,U,66,66,Study,User,-,,Study/JOL,"Study Phase",1351,,,-1,-1,,,,1
w535119_jll,9ow3oocti8,Nick_Dissertation_EX1,1,37,2020-08-29T16:28:02-07:00,1.6866118907928,3,versionC_stim.csv,READVersionC.csv,"Read Version C","Dissertation, read only version C",BUSINESS,DEATH,Study1,U,72,11,Study,User,-,,Study/JOL,"Study Phase",1118,,,-1,-1,,,,1
w535119_jll,9ow3oocti8,Nick_Dissertation_EX1,1,38,2020-08-29T16:28:04-07:00,1.815484046936,3,versionC_stim.csv,READVersionC.csv,"Read Version C","Dissertation, read only version C",BAD,DELINQUENT,Study1,B,6,48,Study,User,-,,Study/JOL,"Study Phase",1295,,,-1,-1,,,,1
w535119_jll,9ow3oocti8,Nick_Dissertation_EX1,1,39,2020-08-29T16:28:06-07:00,2.2480759620667,3,versionC_stim.csv,READVersionC.csv,"Read Version C","Dissertation, read only version C",STOMACH,DIGESTION,Study1,B,7,24,Study,User,-,,Study/JOL,"Study Phase",1364,,,-1,-1,,,,1
w535119_jll,9ow3oocti8,Nick_Dissertation_EX1,1,40,2020-08-29T16:28:08-07:00,1.5538489818573,3,versionC_stim.csv,READVersionC.csv,"Read Version C","Dissertation, read only version C",STENCH,SMELL,Study1,F,42,22,Study,User,-,,Study/JOL,"Study Phase",1005,,,-1,-1,,,,1
w535119_jll,9ow3oocti8,Nick_Dissertation_EX1,1,41,2020-08-29T16:28:09-07:00,1.2613840103149,3,versionC_stim.csv,READVersionC.csv,"Read Version C","Dissertation, read only version C",WASTE,DUMP,Study1,S,49,13,Study,User,-,,Study/JOL,"Study Phase",736,,,-1,-1,,,,1
w535119_jll,9ow3oocti8,Nick_Dissertation_EX1,1,42,2020-08-29T16:28:11-07:00,1.842933177948,3,versionC_stim.csv,READVersionC.csv,"Read Version C","Dissertation, read only version C",CAVE,DARK,Study1,F,28,75,Study,User,-,,Study/JOL,"Study Phase",1165,,,-1,-1,,,,1
w535119_jll,9ow3oocti8,Nick_Dissertation_EX1,1,43,2020-08-29T16:28:12-07:00,1.6571958065033,3,versionC_stim.csv,READVersionC.csv,"Read Version C","Dissertation, read only version C",CHILI,HOT,Study1,F,37,56,Study,User,-,,Study/JOL,"Study Phase",1018,,,-1,-1,,,,1
w535119_jll,9ow3oocti8,Nick_Dissertation_EX1,1,44,2020-08-29T16:28:14-07:00,1.5748920440674,3,versionC_stim.csv,READVersionC.csv,"Read Version C","Dissertation, read only version C",FAMINE,HUNGER,Study1,F,40,76,Study,User,-,,Study/JOL,"Study Phase",1044,,,-1,-1,,,,1
w535119_jll,9ow3oocti8,Nick_Dissertation_EX1,1,45,2020-08-29T16:28:16-07:00,1.5585010051727,3,versionC_stim.csv,READVersionC.csv,"Read Version C","Dissertation, read only version C",SACKING,DIETARY,Study1,U,67,49,Study,User,-,,Study/JOL,"Study Phase",1030,,,-1,-1,,,,1
w535119_jll,9ow3oocti8,Nick_Dissertation_EX1,1,46,2020-08-29T16:28:17-07:00,1.603600025177,3,versionC_stim.csv,READVersionC.csv,"Read Version C","Dissertation, read only version C",WAR,REVOLUTION,Study1,B,20,52,Study,User,-,,Study/JOL,"Study Phase",900,,,-1,-1,,,,1
w535119_jll,9ow3oocti8,Nick_Dissertation_EX1,1,47,2020-08-29T16:28:19-07:00,1.5123810768127,3,versionC_stim.csv,READVersionC.csv,"Read Version C","Dissertation, read only version C",FOOT,SHOE,Study1,S,60,29,Study,User,-,,Study/JOL,"Study Phase",824,,,-1,-1,,,,1
w535119_jll,9ow3oocti8,Nick_Dissertation_EX1,1,48,2020-08-29T16:28:21-07:00,1.9221618175507,3,versionC_stim.csv,READVersionC.csv,"Read Version C","Dissertation, read only version C",DEFINITION,MEANING,Study1,S,62,34,Study,User,-,,Study/JOL,"Study Phase",1356,,,-1,-1,,,,1
w535119_jll,9ow3oocti8,Nick_Dissertation_EX1,1,49,2020-08-29T16:28:22-07:00,1.7990381717682,3,versionC_stim.csv,READVersionC.csv,"Read Version C","Dissertation, read only version C",PILOT,PLANE,Study1,F,44,20,Study,User,-,,Study/JOL,"Study Phase",1270,,,-1,-1,,,,1
w535119_jll,9ow3oocti8,Nick_Dissertation_EX1,1,50,2020-08-29T16:28:24-07:00,1.4622988700867,3,versionC_stim.csv,READVersionC.csv,"Read Version C","Dissertation, read only version C",ATTORNEY,LAW,Study1,F,34,86,Study,User,-,,Study/JOL,"Study Phase",919,,,-1,-1,,,,1
w535119_jll,9ow3oocti8,Nick_Dissertation_EX1,1,51,2020-08-29T16:28:25-07:00,1.6187281608582,3,versionC_stim.csv,READVersionC.csv,"Read Version C","Dissertation, read only version C",BEE,HONEY,Study1,S,63,12,Study,User,-,,Study/JOL,"Study Phase",1038,,,-1,-1,,,,1
w535119_jll,9ow3oocti8,Nick_Dissertation_EX1,1,52,2020-08-29T16:28:27-07:00,1.5532817840576,3,versionC_stim.csv,READVersionC.csv,"Read Version C","Dissertation, read only version C",JURY,TRIAL,Study1,S,50,26,Study,User,-,,Study/JOL,"Study Phase",1011,,,-1,-1,,,,1
w535119_jll,9ow3oocti8,Nick_Dissertation_EX1,1,53,2020-08-29T16:28:29-07:00,1.5621180534363,3,versionC_stim.csv,READVersionC.csv,"Read Version C","Dissertation, read only version C",END,BEGIN,Study1,S,54,28,Study,User,-,,Study/JOL,"Study Phase",999,,,-1,-1,,,,1
w535119_jll,9ow3oocti8,Nick_Dissertation_EX1,1,54,2020-08-29T16:28:30-07:00,1.3600661754608,3,versionC_stim.csv,READVersionC.csv,"Read Version C","Dissertation, read only version C",WIND,BLOW,Study1,S,55,40,Study,User,-,,Study/JOL,"Study Phase",766,,,-1,-1,,,,1
w535119_jll,9ow3oocti8,Nick_Dissertation_EX1,1,55,2020-08-29T16:28:32-07:00,1.7296619415283,3,versionC_stim.csv,READVersionC.csv,"Read Version C","Dissertation, read only version C",WOULD,CASH,Study1,U,83,70,Study,User,-,,Study/JOL,"Study Phase",1120,,,-1,-1,,,,1
w535119_jll,9ow3oocti8,Nick_Dissertation_EX1,1,56,2020-08-29T16:28:33-07:00,1.4995260238647,3,versionC_stim.csv,READVersionC.csv,"Read Version C","Dissertation, read only version C",HAMMER,CHISEL,Study1,B,9,72,Study,User,-,,Study/JOL,"Study Phase",901,,,-1,-1,,,,1
w535119_jll,9ow3oocti8,Nick_Dissertation_EX1,1,57,2020-08-29T16:28:35-07:00,1.5681149959564,3,versionC_stim.csv,READVersionC.csv,"Read Version C","Dissertation, read only version C",DOG,PAW,Study1,B,15,7,Study,User,-,,Study/JOL,"Study Phase",881,,,-1,-1,,,,1
w535119_jll,9ow3oocti8,Nick_Dissertation_EX1,1,58,2020-08-29T16:28:36-07:00,1.5675039291382,3,versionC_stim.csv,READVersionC.csv,"Read Version C","Dissertation, read only version C",ACCIDENT,STRONG,Study1,U,80,39,Study,User,-,,Study/JOL,"Study Phase",938,,,-1,-1,,,,1
w535119_jll,9ow3oocti8,Nick_Dissertation_EX1,1,59,2020-08-29T16:28:38-07:00,1.3786170482635,3,versionC_stim.csv,READVersionC.csv,"Read Version C","Dissertation, read only version C",WORD,SENTENCE,Study1,F,31,9,Study,User,-,,Study/JOL,"Study Phase",838,,,-1,-1,,,,1
w535119_jll,9ow3oocti8,Nick_Dissertation_EX1,1,60,2020-08-29T16:28:40-07:00,1.8879079818726,3,versionC_stim.csv,READVersionC.csv,"Read Version C","Dissertation, read only version C",TOILET,BATHROOM,Study1,S,58,60,Study,User,-,,Study/JOL,"Study Phase",1204,,,-1,-1,,,,1
w535119_jll,9ow3oocti8,Nick_Dissertation_EX1,1,61,2020-08-29T16:28:41-07:00,1.6001110076904,3,versionC_stim.csv,READVersionC.csv,"Read Version C","Dissertation, read only version C",DROWSY,SLEEP,Study1,F,41,45,Study,User,-,,Study/JOL,"Study Phase",1014,,,-1,-1,,,,1
w535119_jll,9ow3oocti8,Nick_Dissertation_EX1,1,62,2020-08-29T16:28:43-07:00,1.6508989334106,3,versionC_stim.csv,READVersionC.csv,"Read Version C","Dissertation, read only version C",ASSIGNMENT,DUE,Study1,S,46,25,Study,User,-,,Study/JOL,"Study Phase",840,,,-1,-1,,,,1
w535119_jll,9ow3oocti8,Nick_Dissertation_EX1,1,63,2020-08-29T16:28:44-07:00,1.2817969322205,3,versionC_stim.csv,READVersionC.csv,"Read Version C","Dissertation, read only version C",HAND,FIX,Study1,U,75,55,Study,User,-,,Study/JOL,"Study Phase",743,,,-1,-1,,,,1
w535119_jll,9ow3oocti8,Nick_Dissertation_EX1,1,64,2020-08-29T16:28:46-07:00,1.8298771381378,3,versionC_stim.csv,READVersionC.csv,"Read Version C","Dissertation, read only version C",BRONZE,ARTERY,Study1,U,74,43,Study,User,-,,Study/JOL,"Study Phase",1083,,,-1,-1,,,,1
w535119_jll,9ow3oocti8,Nick_Dissertation_EX1,1,65,2020-08-29T16:28:47-07:00,1.333370923996,3,versionC_stim.csv,READVersionC.csv,"Read Version C","Dissertation, read only version C",TALK,DISCUSSION,Study1,B,21,36,Study,User,-,,Study/JOL,"Study Phase",817,,,-1,-1,,,,1
w535119_jll,9ow3oocti8,Nick_Dissertation_EX1,1,66,2020-08-29T16:28:49-07:00,1.6551909446716,3,versionC_stim.csv,READVersionC.csv,"Read Version C","Dissertation, read only version C",COW,HERD,Study1,B,22,58,Study,User,-,,Study/JOL,"Study Phase",930,,,-1,-1,,,,1
w535119_jll,9ow3oocti8,Nick_Dissertation_EX1,1,67,2020-08-29T16:28:50-07:00,1.5935580730438,3,versionC_stim.csv,READVersionC.csv,"Read Version C","Dissertation, read only version C",FISH,TUNA,Study1,B,25,65,Study,User,-,,Study/JOL,"Study Phase",970,,,-1,-1,,,,1
w535119_jll,9ow3oocti8,Nick_Dissertation_EX1,1,68,2020-08-29T16:28:52-07:00,1.6168620586395,3,versionC_stim.csv,READVersionC.csv,"Read Version C","Dissertation, read only version C",SIP,DRINK,Study1,F,27,50,Study,User,-,,Study/JOL,"Study Phase",777,,,-1,-1,,,,1
w535119_jll,9ow3oocti8,Nick_Dissertation_EX1,1,69,2020-08-29T16:28:54-07:00,1.4908380508423,3,versionC_stim.csv,READVersionC.csv,"Read Version C","Dissertation, read only version C",ROUND,CIRCLE,Study1,S,65,63,Study,User,-,,Study/JOL,"Study Phase",880,,,-1,-1,,,,1
w535119_jll,9ow3oocti8,Nick_Dissertation_EX1,1,70,2020-08-29T16:28:55-07:00,1.5455188751221,3,versionC_stim.csv,READVersionC.csv,"Read Version C","Dissertation, read only version C",COLD,BITTER,Study1,B,12,15,Study,User,-,,Study/JOL,"Study Phase",780,,,-1,-1,,,,1
w535119_jll,9ow3oocti8,Nick_Dissertation_EX1,1,71,2020-08-29T16:28:57-07:00,1.6264810562134,3,versionC_stim.csv,READVersionC.csv,"Read Version C","Dissertation, read only version C",ROCK,GEOLOGY,Study1,B,19,23,Study,User,-,,Study/JOL,"Study Phase",937,,,-1,-1,,,,1
w535119_jll,9ow3oocti8,Nick_Dissertation_EX1,1,72,2020-08-29T16:28:58-07:00,1.4374389648438,3,versionC_stim.csv,READVersionC.csv,"Read Version C","Dissertation, read only version C",GROWTH,HEIGHT,Study1,F,30,61,Study,User,-,,Study/JOL,"Study Phase",818,,,-1,-1,,,,1
w535119_jll,9ow3oocti8,Nick_Dissertation_EX1,1,73,2020-08-29T16:29:00-07:00,1.6763241291046,3,versionC_stim.csv,READVersionC.csv,"Read Version C","Dissertation, read only version C",NEWS,EDITOR,Study1,B,10,10,Study,User,-,,Study/JOL,"Study Phase",1145,,,-1,-1,,,,1
w535119_jll,9ow3oocti8,Nick_Dissertation_EX1,1,74,2020-08-29T16:29:01-07:00,1.5640108585358,3,versionC_stim.csv,READVersionC.csv,"Read Version C","Dissertation, read only version C",WATER,BRIDGE,Study1,B,18,62,Study,User,-,,Study/JOL,"Study Phase",867,,,-1,-1,,,,1
w535119_jll,9ow3oocti8,Nick_Dissertation_EX1,1,75,2020-08-29T16:29:04-07:00,2.3104329109192,3,versionC_stim.csv,READVersionC.csv,"Read Version C","Dissertation, read only version C",LION,ART,Study1,U,79,46,Study,User,-,,Study/JOL,"Study Phase",1599,,,-1,-1,,,,1
w535119_jll,9ow3oocti8,Nick_Dissertation_EX1,1,76,2020-08-29T16:29:05-07:00,1.5483601093292,3,versionC_stim.csv,READVersionC.csv,"Read Version C","Dissertation, read only version C",FLOWER,ORCHID,Study1,B,24,33,Study,User,-,,Study/JOL,"Study Phase",992,,,-1,-1,,,,1
w535119_jll,9ow3oocti8,Nick_Dissertation_EX1,1,77,2020-08-29T16:29:07-07:00,1.474937915802,3,versionC_stim.csv,READVersionC.csv,"Read Version C","Dissertation, read only version C",TUCK,ALLOW,Study1,U,78,51,Study,User,-,,Study/JOL,"Study Phase",978,,,-1,-1,,,,1
w535119_jll,9ow3oocti8,Nick_Dissertation_EX1,1,78,2020-08-29T16:29:09-07:00,2.1541030406952,3,versionC_stim.csv,READVersionC.csv,"Read Version C","Dissertation, read only version C",FLOOR,DISCOVER,Study1,U,71,21,Study,User,-,,Study/JOL,"Study Phase",1604,,,-1,-1,,,,1
w535119_jll,9ow3oocti8,Nick_Dissertation_EX1,1,79,2020-08-29T16:29:10-07:00,1.3815829753876,3,versionC_stim.csv,READVersionC.csv,"Read Version C","Dissertation, read only version C",VASE,KING,Study1,U,85,85,Study,User,-,,Study/JOL,"Study Phase",881,,,-1,-1,,,,1
w535119_jll,9ow3oocti8,Nick_Dissertation_EX1,1,80,2020-08-29T16:29:12-07:00,1.3948650360107,3,versionC_stim.csv,READVersionC.csv,"Read Version C","Dissertation, read only version C",CAR,HAPPY,Study1,U,77,17,Study,User,-,,Study/JOL,"Study Phase",808,,,-1,-1,,,,1
w535119_jll,9ow3oocti8,Nick_Dissertation_EX1,1,81,2020-08-29T16:29:13-07:00,1.704432964325,3,versionC_stim.csv,READVersionC.csv,"Read Version C","Dissertation, read only version C",WASP,BUG,Study1,F,32,54,Study,User,-,,Study/JOL,"Study Phase",1118,,,-1,-1,,,,1
w535119_jll,9ow3oocti8,Nick_Dissertation_EX1,1,82,2020-08-29T16:29:15-07:00,1.6374549865723,3,versionC_stim.csv,READVersionC.csv,"Read Version C","Dissertation, read only version C",DESIGN,ARCHITECTURE,Study1,S,51,80,Study,User,-,,Study/JOL,"Study Phase",1037,,,-1,-1,,,,1
w535119_jll,9ow3oocti8,Nick_Dissertation_EX1,1,83,2020-08-29T16:29:16-07:00,1.4299910068512,3,versionC_stim.csv,READVersionC.csv,"Read Version C","Dissertation, read only version C",DIVISION,MATH,Study1,F,33,81,Study,User,-,,Study/JOL,"Study Phase",892,,,-1,-1,,,,1
w535119_jll,9ow3oocti8,Nick_Dissertation_EX1,1,84,2020-08-29T16:29:18-07:00,1.6532940864563,3,versionC_stim.csv,READVersionC.csv,"Read Version C","Dissertation, read only version C",BAR,GRILL,Study1,S,52,69,Study,User,-,,Study/JOL,"Study Phase",1144,,,-1,-1,,,,1
w535119_jll,9ow3oocti8,Nick_Dissertation_EX1,1,85,2020-08-29T16:29:20-07:00,1.4064159393311,3,versionC_stim.csv,READVersionC.csv,"Read Version C","Dissertation, read only version C",BIRD,SWAN,Study1,B,14,14,Study,User,-,,Study/JOL,"Study Phase",863,,,-1,-1,,,,1
w535119_jll,9ow3oocti8,Nick_Dissertation_EX1,1,86,2020-08-29T16:29:21-07:00,1.5143120288849,3,versionC_stim.csv,READVersionC.csv,"Read Version C","Dissertation, read only version C",SODA,POP,Study1,S,56,41,Study,User,-,,Study/JOL,"Study Phase",938,,,-1,-1,,,,1
w535119_jll,9ow3oocti8,Nick_Dissertation_EX1,1,87,2020-08-29T16:29:23-07:00,1.9724690914154,3,versionC_stim.csv,READVersionC.csv,"Read Version C","Dissertation, read only version C",GOOSE,GEESE,BUFFER2,Buffer,86,90,Study,User,-,,Study/JOL,BUFFER2,1449,,,-1,-1,,,,1
w535119_jll,9ow3oocti8,Nick_Dissertation_EX1,1,88,2020-08-29T16:29:24-07:00,1.4009268283844,3,versionC_stim.csv,READVersionC.csv,"Read Version C","Dissertation, read only version C",SPACE,MOON,BUFFER2,Buffer,89,91,Study,User,-,,Study/JOL,BUFFER2,818,,,-1,-1,,,,1
w535119_jll,9ow3oocti8,Nick_Dissertation_EX1,1,89,2020-08-29T16:29:26-07:00,1.4991211891174,3,versionC_stim.csv,READVersionC.csv,"Read Version C","Dissertation, read only version C",STUFF,THING,BUFFER2,Buffer,90,88,Study,User,-,,Study/JOL,BUFFER2,848,,,-1,-1,,,,1
w535119_jll,9ow3oocti8,Nick_Dissertation_EX1,1,90,2020-08-29T16:29:28-07:00,1.9280309677124,3,versionC_stim.csv,READVersionC.csv,"Read Version C","Dissertation, read only version C",POLICE,SHERRIF,BUFFER2,Buffer,87,89,Study,User,-,,Study/JOL,BUFFER2,1337,,,-1,-1,,,,1
w535119_jll,9ow3oocti8,Nick_Dissertation_EX1,1,91,2020-08-29T16:29:30-07:00,1.9308609962463,3,versionC_stim.csv,READVersionC.csv,"Read Version C","Dissertation, read only version C",CHOCOLATE,MALT,BUFFER2,Buffer,88,87,Study,User,-,,Study/JOL,BUFFER2,1347,,,-1,-1,,,,1
w535119_jll,9ow3oocti8,Nick_Dissertation_EX1,1,92,2020-08-29T16:29:33-07:00,2.9173069000244,3,versionC_stim.csv,READVersionC.csv,"Read Version C","Dissertation, read only version C",,,,,,0,Instruct,User,-,"You have completed this section. Please press Enter.",Filler_Instruction,Instruct2,2326,,,-1,-1,,,,1
w535119_jll,9ow3oocti8,Nick_Dissertation_EX1,1,93,2020-08-29T16:31:33-07:00,120.79045605659,3,versionC_stim.csv,READVersionC.csv,"Read Version C","Dissertation, read only version C",,,,,,0,FreeRecall,120,120,"Please list the 50 US states in alphabetical order. The task will automatically advance to the next screen after two minutes.",,Filler1,120003,"alaska alabama arizona arkansas connecticut deleware florida georgia hawaii idaho illinois indiana iowa kansas louisiana montana new mexico new york nebraska north carolina north dakota ",0,7724,118757,0,0,,1
w535119_jll,9ow3oocti8,Nick_Dissertation_EX1,1,94,2020-08-29T16:31:46-07:00,12.149841070175,3,versionC_stim.csv,READVersionC.csv,"Read Version C","Dissertation, read only version C",,,,,,0,Instruct,-,10,"You will now be presented with the first word from each of the previously studied item pairs. Please type the missing word. If you do not know the word, you may guess or press Enter to skip forward to the next pair.",,Instruct3,11279,,,-1,-1,,,,1
w535119_jll,9ow3oocti8,Nick_Dissertation_EX1,1,95,2020-08-29T16:31:50-07:00,4.0537328720093,3,versionC_stim.csv,READVersionC.csv,"Read Version C","Dissertation, read only version C",COW,HERD,Study1,B,22,58,Test,User,-,,Recall,Recall1,3243,milk,0,2487,2944,0,0,,1
w535119_jll,9ow3oocti8,Nick_Dissertation_EX1,1,96,2020-08-29T16:31:53-07:00,3.4074730873108,3,versionC_stim.csv,READVersionC.csv,"Read Version C","Dissertation, read only version C",FAMINE,HUNGER,Study1,F,40,76,Test,User,-,,Recall,Recall1,2782,hunger,100,1637,2435,1,1,,1
w535119_jll,9ow3oocti8,Nick_Dissertation_EX1,1,97,2020-08-29T16:31:55-07:00,2.2699608802795,3,versionC_stim.csv,READVersionC.csv,"Read Version C","Dissertation, read only version C",CAR,HAPPY,Study1,U,77,17,Test,User,-,,Recall,Recall1,1612,,0,-1,-1,0,0,,1
w535119_jll,9ow3oocti8,Nick_Dissertation_EX1,1,98,2020-08-29T16:31:59-07:00,4.1170439720154,3,versionC_stim.csv,READVersionC.csv,"Read Version C","Dissertation, read only version C",WATER,BRIDGE,Study1,B,18,62,Test,User,-,,Recall,Recall1,3474,,0,-1,-1,0,0,,1
w535119_jll,9ow3oocti8,Nick_Dissertation_EX1,1,99,2020-08-29T16:32:05-07:00,5.1621022224426,3,versionC_stim.csv,READVersionC.csv,"Read Version C","Dissertation, read only version C",RIDDLE,SUGAR,Study1,U,81,19,Test,User,-,,Recall,Recall1,4561,question,15.384615384615,1474,4287,0,0,,1
w535119_jll,9ow3oocti8,Nick_Dissertation_EX1,1,100,2020-08-29T16:32:09-07:00,4.2045638561249,3,versionC_stim.csv,READVersionC.csv,"Read Version C","Dissertation, read only version C",CLEAN,HYGIENE,Study1,B,17,77,Test,User,-,,Recall,Recall1,3636,,0,-1,-1,0,0,,1
w535119_jll,9ow3oocti8,Nick_Dissertation_EX1,1,101,2020-08-29T16:32:14-07:00,4.9461779594421,3,versionC_stim.csv,READVersionC.csv,"Read Version C","Dissertation, read only version C",DESIGN,ARCHITECTURE,Study1,S,51,80,Test,User,-,,Recall,Recall1,4290,architect,85.714285714286,2171,4090,0,1,,1
w535119_jll,9ow3oocti8,Nick_Dissertation_EX1,1,102,2020-08-29T16:32:17-07:00,2.7381000518799,3,versionC_stim.csv,READVersionC.csv,"Read Version C","Dissertation, read only version C",HAMMER,CHISEL,Study1,B,9,72,Test,User,-,,Recall,Recall1,2060,nail,40,1434,1866,0,0,,1
w535119_jll,9ow3oocti8,Nick_Dissertation_EX1,1,103,2020-08-29T16:32:20-07:00,3.7041339874268,3,versionC_stim.csv,READVersionC.csv,"Read Version C","Dissertation, read only version C",LIVER,KIDNEY,Study1,S,53,78,Test,User,-,,Recall,Recall1,3140,kidney,100,1962,2943,1,1,,1
w535119_jll,9ow3oocti8,Nick_Dissertation_EX1,1,104,2020-08-29T16:32:29-07:00,8.6996490955353,3,versionC_stim.csv,READVersionC.csv,"Read Version C","Dissertation, read only version C",STOMACH,DIGESTION,Study1,B,7,24,Test,User,-,,Recall,Recall1,7945,heart,28.571428571429,7015,7813,0,0,,1
w535119_jll,9ow3oocti8,Nick_Dissertation_EX1,1,105,2020-08-29T16:32:31-07:00,1.8667829036713,3,versionC_stim.csv,READVersionC.csv,"Read Version C","Dissertation, read only version C",CLUTTER,PUSHER,Study1,U,66,66,Test,User,-,,Recall,Recall1,1261,,0,-1,-1,0,0,,1
w535119_jll,9ow3oocti8,Nick_Dissertation_EX1,1,106,2020-08-29T16:32:36-07:00,4.8490490913391,3,versionC_stim.csv,READVersionC.csv,"Read Version C","Dissertation, read only version C",WASTE,DUMP,Study1,S,49,13,Test,User,-,,Recall,Recall1,4291,garbage,0,2476,4082,0,0,,1
w535119_jll,9ow3oocti8,Nick_Dissertation_EX1,1,107,2020-08-29T16:32:39-07:00,3.2073860168457,3,versionC_stim.csv,READVersionC.csv,"Read Version C","Dissertation, read only version C",JURY,TRIAL,Study1,S,50,26,Test,User,-,,Recall,Recall1,2654,trial,100,1628,2323,1,1,,1
w535119_jll,9ow3oocti8,Nick_Dissertation_EX1,1,108,2020-08-29T16:32:41-07:00,2.6072618961334,3,versionC_stim.csv,READVersionC.csv,"Read Version C","Dissertation, read only version C",BIRD,SWAN,Study1,B,14,14,Test,User,-,,Recall,Recall1,2070,,0,-1,-1,0,0,,1
w535119_jll,9ow3oocti8,Nick_Dissertation_EX1,1,109,2020-08-29T16:32:47-07:00,5.934023141861,3,versionC_stim.csv,READVersionC.csv,"Read Version C","Dissertation, read only version C",CHILD,BABY,Study1,S,64,44,Test,User,-,,Recall,Recall1,5425,youth,22.222222222222,4748,5248,0,0,,1
w535119_jll,9ow3oocti8,Nick_Dissertation_EX1,1,110,2020-08-29T16:32:49-07:00,1.7068657875061,3,versionC_stim.csv,READVersionC.csv,"Read Version C","Dissertation, read only version C",SIGHT,DEBATE,Study1,U,73,42,Test,User,-,,Recall,Recall1,1064,,0,-1,-1,0,0,,1
w535119_jll,9ow3oocti8,Nick_Dissertation_EX1,1,111,2020-08-29T16:32:51-07:00,1.6068120002747,3,versionC_stim.csv,READVersionC.csv,"Read Version C","Dissertation, read only version C",DOG,PAW,Study1,B,15,7,Test,User,-,,Recall,Recall1,1054,,0,-1,-1,0,0,,1
w535119_jll,9ow3oocti8,Nick_Dissertation_EX1,1,112,2020-08-29T16:32:56-07:00,5.6156320571899,3,versionC_stim.csv,READVersionC.csv,"Read Version C","Dissertation, read only version C",VASE,KING,Study1,U,85,85,Test,User,-,,Recall,Recall1,5064,king,100,4413,4902,1,1,,1
w535119_jll,9ow3oocti8,Nick_Dissertation_EX1,1,113,2020-08-29T16:32:58-07:00,1.7618999481201,3,versionC_stim.csv,READVersionC.csv,"Read Version C","Dissertation, read only version C",ACCIDENT,STRONG,Study1,U,80,39,Test,User,-,,Recall,Recall1,1071,,0,-1,-1,0,0,,1
w535119_jll,9ow3oocti8,Nick_Dissertation_EX1,1,114,2020-08-29T16:33:05-07:00,6.9572851657867,3,versionC_stim.csv,READVersionC.csv,"Read Version C","Dissertation, read only version C",CHILI,HOT,Study1,F,37,56,Test,User,-,,Recall,Recall1,6351,hot,100,5848,6203,1,1,,1
w535119_jll,9ow3oocti8,Nick_Dissertation_EX1,1,115,2020-08-29T16:33:10-07:00,4.4710249900818,3,versionC_stim.csv,READVersionC.csv,"Read Version C","Dissertation, read only version C",ADD,VALLEY,Study1,U,82,82,Test,User,-,,Recall,Recall1,3900,subtract,14.285714285714,1808,3756,0,0,,1
w535119_jll,9ow3oocti8,Nick_Dissertation_EX1,1,116,2020-08-29T16:33:11-07:00,1.4776589870453,3,versionC_stim.csv,READVersionC.csv,"Read Version C","Dissertation, read only version C",STENCH,SMELL,Study1,F,42,22,Test,User,-,,Recall,Recall1,882,,0,-1,-1,0,0,,1
w535119_jll,9ow3oocti8,Nick_Dissertation_EX1,1,117,2020-08-29T16:33:13-07:00,2.4480788707733,3,versionC_stim.csv,READVersionC.csv,"Read Version C","Dissertation, read only version C",CHORE,WORK,Study1,F,39,32,Test,User,-,,Recall,Recall1,1918,work,100,1250,1712,1,1,,1
w535119_jll,9ow3oocti8,Nick_Dissertation_EX1,1,118,2020-08-29T16:33:15-07:00,1.6566190719604,3,versionC_stim.csv,READVersionC.csv,"Read Version C","Dissertation, read only version C",MONEY,WAGE,Study1,B,8,30,Test,User,-,,Recall,Recall1,1155,,0,-1,-1,0,0,,1
w535119_jll,9ow3oocti8,Nick_Dissertation_EX1,1,119,2020-08-29T16:33:18-07:00,3.2300999164581,3,versionC_stim.csv,READVersionC.csv,"Read Version C","Dissertation, read only version C",WAR,REVOLUTION,Study1,B,20,52,Test,User,-,,Recall,Recall1,2711,peace,13.333333333333,1713,2528,0,0,,1
w535119_jll,9ow3oocti8,Nick_Dissertation_EX1,1,120,2020-08-29T16:33:21-07:00,2.5414261817932,3,versionC_stim.csv,READVersionC.csv,"Read Version C","Dissertation, read only version C",CHEESE,WINE,Study1,S,57,8,Test,User,-,,Recall,Recall1,1967,,0,-1,-1,0,0,,1
w535119_jll,9ow3oocti8,Nick_Dissertation_EX1,1,121,2020-08-29T16:33:23-07:00,1.9600470066071,3,versionC_stim.csv,READVersionC.csv,"Read Version C","Dissertation, read only version C",CAVE,DARK,Study1,F,28,75,Test,User,-,,Recall,Recall1,1164,,0,-1,-1,0,0,,1
w535119_jll,9ow3oocti8,Nick_Dissertation_EX1,1,122,2020-08-29T16:33:27-07:00,3.6792118549347,3,versionC_stim.csv,READVersionC.csv,"Read Version C","Dissertation, read only version C",SICK,HIDE,Study1,U,84,59,Test,User,-,,Recall,Recall1,3139,,0,-1,-1,0,0,,1
w535119_jll,9ow3oocti8,Nick_Dissertation_EX1,1,123,2020-08-29T16:33:29-07:00,2.8904781341553,3,versionC_stim.csv,READVersionC.csv,"Read Version C","Dissertation, read only version C",DROWSY,SLEEP,Study1,F,41,45,Test,User,-,,Recall,Recall1,2350,sleepy,90.909090909091,1103,2185,0,1,,1
w535119_jll,9ow3oocti8,Nick_Dissertation_EX1,1,124,2020-08-29T16:33:31-07:00,1.7155499458313,3,versionC_stim.csv,READVersionC.csv,"Read Version C","Dissertation, read only version C",SEIZE,TAKE,Study1,F,29,73,Test,User,-,,Recall,Recall1,1121,,0,-1,-1,0,0,,1
w535119_jll,9ow3oocti8,Nick_Dissertation_EX1,1,125,2020-08-29T16:33:34-07:00,3.158637046814,3,versionC_stim.csv,READVersionC.csv,"Read Version C","Dissertation, read only version C",STING,HORNET,Study1,B,11,83,Test,User,-,,Recall,Recall1,1872,,0,-1,-1,0,0,,1
w535119_jll,9ow3oocti8,Nick_Dissertation_EX1,1,126,2020-08-29T16:33:37-07:00,2.2727909088135,3,versionC_stim.csv,READVersionC.csv,"Read Version C","Dissertation, read only version C",END,BEGIN,Study1,S,54,28,Test,User,-,,Recall,Recall1,1553,,0,-1,-1,0,0,,1
w535119_jll,9ow3oocti8,Nick_Dissertation_EX1,1,127,2020-08-29T16:33:42-07:00,5.6995759010315,3,versionC_stim.csv,READVersionC.csv,"Read Version C","Dissertation, read only version C",DEFINITION,MEANING,Study1,S,62,34,Test,User,-,,Recall,Recall1,4991,answer,30.769230769231,3754,4800,0,0,,1
w535119_jll,9ow3oocti8,Nick_Dissertation_EX1,1,128,2020-08-29T16:33:45-07:00,3.005538225174,3,versionC_stim.csv,READVersionC.csv,"Read Version C","Dissertation, read only version C",WORD,SENTENCE,Study1,F,31,9,Test,User,-,,Recall,Recall1,2208,,0,-1,-1,0,0,,1
w535119_jll,9ow3oocti8,Nick_Dissertation_EX1,1,129,2020-08-29T16:33:47-07:00,1.7934718132019,3,versionC_stim.csv,READVersionC.csv,"Read Version C","Dissertation, read only version C",WIND,BLOW,Study1,S,55,40,Test,User,-,,Recall,Recall1,1243,,0,-1,-1,0,0,,1
w535119_jll,9ow3oocti8,Nick_Dissertation_EX1,1,130,2020-08-29T16:33:51-07:00,4.3465650081635,3,versionC_stim.csv,READVersionC.csv,"Read Version C","Dissertation, read only version C",BAD,DELINQUENT,Study1,B,6,48,Test,User,-,,Recall,Recall1,3737,delinquent,100,1874,3572,1,1,,1
w535119_jll,9ow3oocti8,Nick_Dissertation_EX1,1,131,2020-08-29T16:33:57-07:00,5.3339099884033,3,versionC_stim.csv,READVersionC.csv,"Read Version C","Dissertation, read only version C",PILOT,PLANE,Study1,F,44,20,Test,User,-,,Recall,Recall1,4591,plane,100,3018,4435,1,1,,1
w535119_jll,9ow3oocti8,Nick_Dissertation_EX1,1,132,2020-08-29T16:33:59-07:00,2.2777841091156,3,versionC_stim.csv,READVersionC.csv,"Read Version C","Dissertation, read only version C",SALAD,LETTUCE,Study1,S,59,74,Test,User,-,,Recall,Recall1,1572,,0,-1,-1,0,0,,1
w535119_jll,9ow3oocti8,Nick_Dissertation_EX1,1,133,2020-08-29T16:34:01-07:00,1.7263610363007,3,versionC_stim.csv,READVersionC.csv,"Read Version C","Dissertation, read only version C",NEWS,EDITOR,Study1,B,10,10,Test,User,-,,Recall,Recall1,1035,,0,-1,-1,0,0,,1
w535119_jll,9ow3oocti8,Nick_Dissertation_EX1,1,134,2020-08-29T16:34:03-07:00,1.941300868988,3,versionC_stim.csv,READVersionC.csv,"Read Version C","Dissertation, read only version C",BAR,GRILL,Study1,S,52,69,Test,User,-,,Recall,Recall1,1087,,0,-1,-1,0,0,,1
w535119_jll,9ow3oocti8,Nick_Dissertation_EX1,1,135,2020-08-29T16:34:05-07:00,2.2791881561279,3,versionC_stim.csv,READVersionC.csv,"Read Version C","Dissertation, read only version C",FLOWER,ORCHID,Study1,B,24,33,Test,User,-,,Recall,Recall1,1001,,0,-1,-1,0,0,,1
w535119_jll,9ow3oocti8,Nick_Dissertation_EX1,1,136,2020-08-29T16:34:07-07:00,2.3722138404846,3,versionC_stim.csv,READVersionC.csv,"Read Version C","Dissertation, read only version C",ENOUGH,FULL,Study1,F,26,71,Test,User,-,,Recall,Recall1,1753,,0,-1,-1,0,0,,1
w535119_jll,9ow3oocti8,Nick_Dissertation_EX1,1,137,2020-08-29T16:34:11-07:00,3.4812409877777,3,versionC_stim.csv,READVersionC.csv,"Read Version C","Dissertation, read only version C",ATTORNEY,LAW,Study1,F,34,86,Test,User,-,,Recall,Recall1,2652,law,100,2020,2359,1,1,,1
w535119_jll,9ow3oocti8,Nick_Dissertation_EX1,1,138,2020-08-29T16:34:13-07:00,2.0942440032959,3,versionC_stim.csv,READVersionC.csv,"Read Version C","Dissertation, read only version C",CARD,CREDIT,Study1,B,23,16,Test,User,-,,Recall,Recall1,1247,,0,-1,-1,0,0,,1
w535119_jll,9ow3oocti8,Nick_Dissertation_EX1,1,139,2020-08-29T16:34:15-07:00,1.9257531166077,3,versionC_stim.csv,READVersionC.csv,"Read Version C","Dissertation, read only version C",SACKING,DIETARY,Study1,U,67,49,Test,User,-,,Recall,Recall1,1204,,0,-1,-1,0,0,,1
w535119_jll,9ow3oocti8,Nick_Dissertation_EX1,1,140,2020-08-29T16:34:17-07:00,2.467570066452,3,versionC_stim.csv,READVersionC.csv,"Read Version C","Dissertation, read only version C",TUCK,ALLOW,Study1,U,78,51,Test,User,-,,Recall,Recall1,1865,nip,0,1248,1669,0,0,,1
w535119_jll,9ow3oocti8,Nick_Dissertation_EX1,1,141,2020-08-29T16:34:20-07:00,3.0463349819183,3,versionC_stim.csv,READVersionC.csv,"Read Version C","Dissertation, read only version C",BEE,HONEY,Study1,S,63,12,Test,User,-,,Recall,Recall1,2401,hive,44.444444444444,1614,2203,0,0,,1
w535119_jll,9ow3oocti8,Nick_Dissertation_EX1,1,142,2020-08-29T16:34:23-07:00,2.4492948055267,3,versionC_stim.csv,READVersionC.csv,"Read Version C","Dissertation, read only version C",HAND,FIX,Study1,U,75,55,Test,User,-,,Recall,Recall1,1904,,0,-1,-1,0,0,,1
w535119_jll,9ow3oocti8,Nick_Dissertation_EX1,1,143,2020-08-29T16:34:25-07:00,1.8204061985016,3,versionC_stim.csv,READVersionC.csv,"Read Version C","Dissertation, read only version C",WASP,BUG,Study1,F,32,54,Test,User,-,,Recall,Recall1,1032,,0,-1,-1,0,0,,1
w535119_jll,9ow3oocti8,Nick_Dissertation_EX1,1,144,2020-08-29T16:34:27-07:00,2.3738949298859,3,versionC_stim.csv,READVersionC.csv,"Read Version C","Dissertation, read only version C",ASSIGNMENT,DUE,Study1,S,46,25,Test,User,-,,Recall,Recall1,1638,,0,-1,-1,0,0,,1
w535119_jll,9ow3oocti8,Nick_Dissertation_EX1,1,145,2020-08-29T16:34:31-07:00,4.2978720664978,3,versionC_stim.csv,READVersionC.csv,"Read Version C","Dissertation, read only version C",OUT,WAY,Study1,B,16,57,Test,User,-,,Recall,Recall1,3601,in,0,3210,3406,0,0,,1
w535119_jll,9ow3oocti8,Nick_Dissertation_EX1,1,146,2020-08-29T16:34:33-07:00,1.3613188266754,3,versionC_stim.csv,READVersionC.csv,"Read Version C","Dissertation, read only version C",SIP,DRINK,Study1,F,27,50,Test,User,-,,Recall,Recall1,849,,0,-1,-1,0,0,,1
w535119_jll,9ow3oocti8,Nick_Dissertation_EX1,1,147,2020-08-29T16:34:35-07:00,1.9234321117401,3,versionC_stim.csv,READVersionC.csv,"Read Version C","Dissertation, read only version C",WOULD,CASH,Study1,U,83,70,Test,User,-,,Recall,Recall1,1294,,0,-1,-1,0,0,,1
w535119_jll,9ow3oocti8,Nick_Dissertation_EX1,1,148,2020-08-29T16:34:38-07:00,3.6879589557648,3,versionC_stim.csv,READVersionC.csv,"Read Version C","Dissertation, read only version C",SODA,POP,Study1,S,56,41,Test,User,-,,Recall,Recall1,3113,pop,100,1966,2336,1,1,,1
w535119_jll,9ow3oocti8,Nick_Dissertation_EX1,1,149,2020-08-29T16:34:41-07:00,2.8362920284271,3,versionC_stim.csv,READVersionC.csv,"Read Version C","Dissertation, read only version C",FUTURE,PAST,Study1,S,61,27,Test,User,-,,Recall,Recall1,2203,past,100,1401,2033,1,1,,1
w535119_jll,9ow3oocti8,Nick_Dissertation_EX1,1,150,2020-08-29T16:34:43-07:00,1.5871770381927,3,versionC_stim.csv,READVersionC.csv,"Read Version C","Dissertation, read only version C",BRONZE,ARTERY,Study1,U,74,43,Test,User,-,,Recall,Recall1,904,,0,-1,-1,0,0,,1
w535119_jll,9ow3oocti8,Nick_Dissertation_EX1,1,151,2020-08-29T16:34:46-07:00,2.8474559783936,3,versionC_stim.csv,READVersionC.csv,"Read Version C","Dissertation, read only version C",ATTIRE,CLOTHES,Study1,F,43,84,Test,User,-,,Recall,Recall1,2078,dress,33.333333333333,1217,1957,0,0,,1
w535119_jll,9ow3oocti8,Nick_Dissertation_EX1,1,152,2020-08-29T16:34:48-07:00,2.0752410888672,3,versionC_stim.csv,READVersionC.csv,"Read Version C","Dissertation, read only version C",FISH,TUNA,Study1,B,25,65,Test,User,-,,Recall,Recall1,1478,,0,-1,-1,0,0,,1
w535119_jll,9ow3oocti8,Nick_Dissertation_EX1,1,153,2020-08-29T16:34:51-07:00,2.9253678321838,3,versionC_stim.csv,READVersionC.csv,"Read Version C","Dissertation, read only version C",TOILET,BATHROOM,Study1,S,58,60,Test,User,-,,Recall,Recall1,1752,,0,-1,-1,0,0,,1
w535119_jll,9ow3oocti8,Nick_Dissertation_EX1,1,154,2020-08-29T16:34:53-07:00,2.0302240848541,3,versionC_stim.csv,READVersionC.csv,"Read Version C","Dissertation, read only version C",FLOOR,DISCOVER,Study1,U,71,21,Test,User,-,,Recall,Recall1,1464,,0,-1,-1,0,0,,1
w535119_jll,9ow3oocti8,Nick_Dissertation_EX1,1,155,2020-08-29T16:34:54-07:00,1.6420879364014,3,versionC_stim.csv,READVersionC.csv,"Read Version C","Dissertation, read only version C",BELT,SOON,Study1,U,70,68,Test,User,-,,Recall,Recall1,1017,,0,-1,-1,0,0,,1
w535119_jll,9ow3oocti8,Nick_Dissertation_EX1,1,156,2020-08-29T16:34:58-07:00,3.6219930648804,3,versionC_stim.csv,READVersionC.csv,"Read Version C","Dissertation, read only version C",FANTASTIC,GREAT,Study1,F,35,38,Test,User,-,,Recall,Recall1,2326,,0,-1,-1,0,0,,1
w535119_jll,9ow3oocti8,Nick_Dissertation_EX1,1,157,2020-08-29T16:35:00-07:00,1.7404549121857,3,versionC_stim.csv,READVersionC.csv,"Read Version C","Dissertation, read only version C",GROWTH,HEIGHT,Study1,F,30,61,Test,User,-,,Recall,Recall1,1057,,0,-1,-1,0,0,,1
w535119_jll,9ow3oocti8,Nick_Dissertation_EX1,1,158,2020-08-29T16:35:03-07:00,3.0091691017151,3,versionC_stim.csv,READVersionC.csv,"Read Version C","Dissertation, read only version C",FOOT,SHOE,Study1,S,60,29,Test,User,-,,Recall,Recall1,2352,ball,0,1591,2149,0,0,,1
w535119_jll,9ow3oocti8,Nick_Dissertation_EX1,1,159,2020-08-29T16:35:05-07:00,2.5574078559875,3,versionC_stim.csv,READVersionC.csv,"Read Version C","Dissertation, read only version C",BLAZE,FIRE,Study1,F,45,64,Test,User,-,,Recall,Recall1,1863,fire,100,1359,1748,1,1,,1
w535119_jll,9ow3oocti8,Nick_Dissertation_EX1,1,160,2020-08-29T16:35:07-07:00,1.7162771224976,3,versionC_stim.csv,READVersionC.csv,"Read Version C","Dissertation, read only version C",HUNGRY,PARK,Study1,U,68,35,Test,User,-,,Recall,Recall1,1092,,0,-1,-1,0,0,,1
w535119_jll,9ow3oocti8,Nick_Dissertation_EX1,1,161,2020-08-29T16:35:09-07:00,2.5385539531708,3,versionC_stim.csv,READVersionC.csv,"Read Version C","Dissertation, read only version C",DIVISION,MATH,Study1,F,33,81,Test,User,-,,Recall,Recall1,1920,,0,-1,-1,0,0,,1
w535119_jll,9ow3oocti8,Nick_Dissertation_EX1,1,162,2020-08-29T16:35:11-07:00,1.9028570652008,3,versionC_stim.csv,READVersionC.csv,"Read Version C","Dissertation, read only version C",ROUND,CIRCLE,Study1,S,65,63,Test,User,-,,Recall,Recall1,1245,,0,-1,-1,0,0,,1
w535119_jll,9ow3oocti8,Nick_Dissertation_EX1,1,163,2020-08-29T16:35:13-07:00,1.8453989028931,3,versionC_stim.csv,READVersionC.csv,"Read Version C","Dissertation, read only version C",BUSINESS,DEATH,Study1,U,72,11,Test,User,-,,Recall,Recall1,1277,,0,-1,-1,0,0,,1
w535119_jll,9ow3oocti8,Nick_Dissertation_EX1,1,164,2020-08-29T16:35:17-07:00,4.2413151264191,3,versionC_stim.csv,READVersionC.csv,"Read Version C","Dissertation, read only version C",POSITION,MACHINE,Study1,U,76,79,Test,User,-,,Recall,Recall1,3595,space,50,2636,3440,0,0,,1
w535119_jll,9ow3oocti8,Nick_Dissertation_EX1,1,165,2020-08-29T16:35:19-07:00,1.9207808971405,3,versionC_stim.csv,READVersionC.csv,"Read Version C","Dissertation, read only version C",AMOUNT,NUMBER,Study1,S,47,67,Test,User,-,,Recall,Recall1,1407,,0,-1,-1,0,0,,1
w535119_jll,9ow3oocti8,Nick_Dissertation_EX1,1,166,2020-08-29T16:35:22-07:00,2.4416389465332,3,versionC_stim.csv,READVersionC.csv,"Read Version C","Dissertation, read only version C",LION,ART,Study1,U,79,46,Test,User,-,,Recall,Recall1,1909,,0,-1,-1,0,0,,1
w535119_jll,9ow3oocti8,Nick_Dissertation_EX1,1,167,2020-08-29T16:35:23-07:00,1.6187541484833,3,versionC_stim.csv,READVersionC.csv,"Read Version C","Dissertation, read only version C",SITE,LOCATION,Study1,S,48,37,Test,User,-,,Recall,Recall1,1002,,0,-1,-1,0,0,,1
w535119_jll,9ow3oocti8,Nick_Dissertation_EX1,1,168,2020-08-29T16:35:27-07:00,3.4327499866486,3,versionC_stim.csv,READVersionC.csv,"Read Version C","Dissertation, read only version C",TALK,DISCUSSION,Study1,B,21,36,Test,User,-,,Recall,Recall1,2780,speak,13.333333333333,1271,2326,0,0,,1
w535119_jll,9ow3oocti8,Nick_Dissertation_EX1,1,169,2020-08-29T16:35:30-07:00,2.8337788581848,3,versionC_stim.csv,READVersionC.csv,"Read Version C","Dissertation, read only version C",LATCH,KEY,Study1,F,36,47,Test,User,-,,Recall,Recall1,2204,key,100,1620,2043,1,1,,1
w535119_jll,9ow3oocti8,Nick_Dissertation_EX1,1,170,2020-08-29T16:35:32-07:00,2.4366431236267,3,versionC_stim.csv,READVersionC.csv,"Read Version C","Dissertation, read only version C",WOMAN,LIFT,Study1,U,69,53,Test,User,-,,Recall,Recall1,1816,man,0,1439,1625,0,0,,1
w535119_jll,9ow3oocti8,Nick_Dissertation_EX1,1,171,2020-08-29T16:35:35-07:00,3.2730159759521,3,versionC_stim.csv,READVersionC.csv,"Read Version C","Dissertation, read only version C",COLD,BITTER,Study1,B,12,15,Test,User,-,,Recall,Recall1,2631,,0,-1,-1,0,0,,1
w535119_jll,9ow3oocti8,Nick_Dissertation_EX1,1,172,2020-08-29T16:35:37-07:00,1.5514130592346,3,versionC_stim.csv,READVersionC.csv,"Read Version C","Dissertation, read only version C",PLANT,ROOT,Study1,B,13,18,Test,User,-,,Recall,Recall1,1054,,0,-1,-1,0,0,,1
w535119_jll,9ow3oocti8,Nick_Dissertation_EX1,1,173,2020-08-29T16:35:41-07:00,4.0919089317322,3,versionC_stim.csv,READVersionC.csv,"Read Version C","Dissertation, read only version C",RACKET,BALL,Study1,F,38,31,Test,User,-,,Recall,Recall1,3423,tennis,0,1913,2727,0,0,,1
w535119_jll,9ow3oocti8,Nick_Dissertation_EX1,1,174,2020-08-29T16:35:43-07:00,2.2480070590973,3,versionC_stim.csv,READVersionC.csv,"Read Version C","Dissertation, read only version C",ROCK,GEOLOGY,Study1,B,19,23,Test,User,-,,Recall,Recall1,1593,,0,-1,-1,0,0,,1
w535119_jll,9ow3oocti8,Nick_Dissertation_EX1,1,175,2020-08-29T16:35:55-07:00,11.970504045486,3,versionC_stim.csv,READVersionC.csv,"Read Version C","Dissertation, read only version C",,,,,,0,Instruct,-,10,"You will now be presented with a new set of word pairs. Please study each pair. Remember that your memory will be tested! When finished, press Enter to move to the next pair.",Initial_Instruct,Instruct4,11246,,,-1,-1,,,,1
w535119_jll,9ow3oocti8,Nick_Dissertation_EX1,1,176,2020-08-29T16:36:02-07:00,6.9662988185883,3,versionC_stim.csv,READVersionC.csv,"Read Version C","Dissertation, read only version C",ADVENTURE,CAMP,BUFFER3,Buffer,95,95,Study,User,-,,Study/JOL,BUFFER3,6305,,,-1,-1,,,,1
w535119_jll,9ow3oocti8,Nick_Dissertation_EX1,1,177,2020-08-29T16:36:04-07:00,1.6082370281219,3,versionC_stim.csv,READVersionC.csv,"Read Version C","Dissertation, read only version C",FROZEN,ICE,BUFFER3,Buffer,94,93,Study,User,-,,Study/JOL,BUFFER3,983,,,-1,-1,,,,1
w535119_jll,9ow3oocti8,Nick_Dissertation_EX1,1,178,2020-08-29T16:36:06-07:00,1.9304299354553,3,versionC_stim.csv,READVersionC.csv,"Read Version C","Dissertation, read only version C",FISH,SHRIMP,BUFFER3,Buffer,93,96,Study,User,-,,Study/JOL,BUFFER3,1258,,,-1,-1,,,,1
w535119_jll,9ow3oocti8,Nick_Dissertation_EX1,1,179,2020-08-29T16:36:08-07:00,1.9336411952972,3,versionC_stim.csv,READVersionC.csv,"Read Version C","Dissertation, read only version C",STRING,NOODLE,BUFFER3,Buffer,92,94,Study,User,-,,Study/JOL,BUFFER3,1287,,,-1,-1,,,,1
w535119_jll,9ow3oocti8,Nick_Dissertation_EX1,1,180,2020-08-29T16:36:10-07:00,2.4023988246918,3,versionC_stim.csv,READVersionC.csv,"Read Version C","Dissertation, read only version C",POTATO,CARROT,BUFFER3,Buffer,91,92,Study,User,-,,Study/JOL,BUFFER3,1577,,,-1,-1,,,,1
w535119_jll,9ow3oocti8,Nick_Dissertation_EX1,1,181,2020-08-29T16:36:12-07:00,2.2125170230865,3,versionC_stim.csv,READVersionC.csv,"Read Version C","Dissertation, read only version C",SCISSORS,SHEARS,Study2,B,112,144,Study,User,-,,Study/JOL,"Study Phase2",1469,,,-1,-1,,,,1
w535119_jll,9ow3oocti8,Nick_Dissertation_EX1,1,182,2020-08-29T16:36:14-07:00,1.8775479793549,3,versionC_stim.csv,READVersionC.csv,"Read Version C","Dissertation, read only version C",ACTRESS,STAR,Study2,F,120,141,Study,User,-,,Study/JOL,"Study Phase2",1277,,,-1,-1,,,,1
w535119_jll,9ow3oocti8,Nick_Dissertation_EX1,1,183,2020-08-29T16:36:16-07:00,1.9904081821442,3,versionC_stim.csv,READVersionC.csv,"Read Version C","Dissertation, read only version C",CAR,DRIVER,Study2,B,106,147,Study,User,-,,Study/JOL,"Study Phase2",1352,,,-1,-1,,,,1
w535119_jll,9ow3oocti8,Nick_Dissertation_EX1,1,184,2020-08-29T16:36:18-07:00,2.3232758045197,3,versionC_stim.csv,READVersionC.csv,"Read Version C","Dissertation, read only version C",CUT,CHOP,Study2,B,107,175,Study,User,-,,Study/JOL,"Study Phase2",1733,,,-1,-1,,,,1
w535119_jll,9ow3oocti8,Nick_Dissertation_EX1,1,185,2020-08-29T16:36:20-07:00,1.8328549861908,3,versionC_stim.csv,READVersionC.csv,"Read Version C","Dissertation, read only version C",NAP,SLEEP,Study2,F,134,171,Study,User,-,,Study/JOL,"Study Phase2",969,,,-1,-1,,,,1
w535119_jll,9ow3oocti8,Nick_Dissertation_EX1,1,186,2020-08-29T16:36:22-07:00,1.983332157135,3,versionC_stim.csv,READVersionC.csv,"Read Version C","Dissertation, read only version C",HEAD,SCALP,Study2,B,105,122,Study,User,-,,Study/JOL,"Study Phase2",1357,,,-1,-1,,,,1
w535119_jll,9ow3oocti8,Nick_Dissertation_EX1,1,187,2020-08-29T16:36:26-07:00,4.209480047226,3,versionC_stim.csv,READVersionC.csv,"Read Version C","Dissertation, read only version C",SIGN,LOAN,Study2,U,171,166,Study,User,-,,Study/JOL,"Study Phase2",3521,,,-1,-1,,,,1
w535119_jll,9ow3oocti8,Nick_Dissertation_EX1,1,188,2020-08-29T16:36:28-07:00,1.822144985199,3,versionC_stim.csv,READVersionC.csv,"Read Version C","Dissertation, read only version C",TRUTHFUL,HONEST,Study2,F,133,135,Study,User,-,,Study/JOL,"Study Phase2",1246,,,-1,-1,,,,1
w535119_jll,9ow3oocti8,Nick_Dissertation_EX1,1,189,2020-08-29T16:36:30-07:00,1.8245248794556,3,versionC_stim.csv,READVersionC.csv,"Read Version C","Dissertation, read only version C",ELECTION,MAZE,Study2,U,159,128,Study,User,-,,Study/JOL,"Study Phase2",1212,,,-1,-1,,,,1
w535119_jll,9ow3oocti8,Nick_Dissertation_EX1,1,190,2020-08-29T16:36:35-07:00,4.7184419631958,3,versionC_stim.csv,READVersionC.csv,"Read Version C","Dissertation, read only version C",REVENGE,EVEN,Study2,F,122,127,Study,User,-,,Study/JOL,"Study Phase2",4027,,,-1,-1,,,,1
w535119_jll,9ow3oocti8,Nick_Dissertation_EX1,1,191,2020-08-29T16:36:37-07:00,2.0586910247803,3,versionC_stim.csv,READVersionC.csv,"Read Version C","Dissertation, read only version C",TICK,FLEA,Study2,S,151,113,Study,User,-,,Study/JOL,"Study Phase2",1410,,,-1,-1,,,,1
w535119_jll,9ow3oocti8,Nick_Dissertation_EX1,1,192,2020-08-29T16:36:39-07:00,2.2805640697479,3,versionC_stim.csv,READVersionC.csv,"Read Version C","Dissertation, read only version C",WINDSHIELD,CAR,Study2,F,117,110,Study,User,-,,Study/JOL,"Study Phase2",1569,,,-1,-1,,,,1
w535119_jll,9ow3oocti8,Nick_Dissertation_EX1,1,193,2020-08-29T16:36:41-07:00,2.0729908943176,3,versionC_stim.csv,READVersionC.csv,"Read Version C","Dissertation, read only version C",TIE,SHOELACE,Study2,B,99,159,Study,User,-,,Study/JOL,"Study Phase2",1524,,,-1,-1,,,,1
w535119_jll,9ow3oocti8,Nick_Dissertation_EX1,1,194,2020-08-29T16:36:45-07:00,3.4696311950684,3,versionC_stim.csv,READVersionC.csv,"Read Version C","Dissertation, read only version C",TOIL,LEASE,Study2,U,170,170,Study,User,-,,Study/JOL,"Study Phase2",2850,,,-1,-1,,,,1
w535119_jll,9ow3oocti8,Nick_Dissertation_EX1,1,195,2020-08-29T16:36:48-07:00,2.8162319660187,3,versionC_stim.csv,READVersionC.csv,"Read Version C","Dissertation, read only version C",LONG,EXTENSION,Study2,B,96,117,Study,User,-,,Study/JOL,"Study Phase2",2233,,,-1,-1,,,,1
w535119_jll,9ow3oocti8,Nick_Dissertation_EX1,1,196,2020-08-29T16:36:49-07:00,1.7565999031067,3,versionC_stim.csv,READVersionC.csv,"Read Version C","Dissertation, read only version C",FAVORITE,BEST,Study2,F,125,173,Study,User,-,,Study/JOL,"Study Phase2",1159,,,-1,-1,,,,1
w535119_jll,9ow3oocti8,Nick_Dissertation_EX1,1,197,2020-08-29T16:36:51-07:00,2.008073091507,3,versionC_stim.csv,READVersionC.csv,"Read Version C","Dissertation, read only version C",PLANT,CACTUS,Study2,B,98,164,Study,User,-,,Study/JOL,"Study Phase2",1303,,,-1,-1,,,,1
w535119_jll,9ow3oocti8,Nick_Dissertation_EX1,1,198,2020-08-29T16:36:53-07:00,2.1306998729706,3,versionC_stim.csv,READVersionC.csv,"Read Version C","Dissertation, read only version C",BREAKABLE,GLASS,Study2,F,127,130,Study,User,-,,Study/JOL,"Study Phase2",1526,,,-1,-1,,,,1
w535119_jll,9ow3oocti8,Nick_Dissertation_EX1,1,199,2020-08-29T16:36:55-07:00,1.383581161499,3,versionC_stim.csv,READVersionC.csv,"Read Version C","Dissertation, read only version C",DRINK,WATER,Study2,S,143,99,Study,User,-,,Study/JOL,"Study Phase2",814,,,-1,-1,,,,1
w535119_jll,9ow3oocti8,Nick_Dissertation_EX1,1,200,2020-08-29T16:36:57-07:00,1.7377548217773,3,versionC_stim.csv,READVersionC.csv,"Read Version C","Dissertation, read only version C",LIE,TRUTH,Study2,S,148,148,Study,User,-,,Study/JOL,"Study Phase2",886,,,-1,-1,,,,1
w535119_jll,9ow3oocti8,Nick_Dissertation_EX1,1,201,2020-08-29T16:36:59-07:00,2.0774121284485,3,versionC_stim.csv,READVersionC.csv,"Read Version C","Dissertation, read only version C",RED,CHERRY,Study2,B,104,107,Study,User,-,,Study/JOL,"Study Phase2",1423,,,-1,-1,,,,1
w535119_jll,9ow3oocti8,Nick_Dissertation_EX1,1,202,2020-08-29T16:37:00-07:00,1.61288189888,3,versionC_stim.csv,READVersionC.csv,"Read Version C","Dissertation, read only version C",GROUND,EARTH,Study2,S,144,106,Study,User,-,,Study/JOL,"Study Phase2",919,,,-1,-1,,,,1
w535119_jll,9ow3oocti8,Nick_Dissertation_EX1,1,203,2020-08-29T16:37:02-07:00,1.8216030597687,3,versionC_stim.csv,READVersionC.csv,"Read Version C","Dissertation, read only version C",COMMUNICATION,PHONE,Study2,S,149,124,Study,User,-,,Study/JOL,"Study Phase2",1292,,,-1,-1,,,,1
w535119_jll,9ow3oocti8,Nick_Dissertation_EX1,1,204,2020-08-29T16:37:03-07:00,1.3797550201416,3,versionC_stim.csv,READVersionC.csv,"Read Version C","Dissertation, read only version C",LOVE,AFFECTION,Study2,B,115,153,Study,User,-,,Study/JOL,"Study Phase2",769,,,-1,-1,,,,1
w535119_jll,9ow3oocti8,Nick_Dissertation_EX1,1,205,2020-08-29T16:37:05-07:00,2.0542120933533,3,versionC_stim.csv,READVersionC.csv,"Read Version C","Dissertation, read only version C",Morning,TEMPERATURE,Study2,U,173,111,Study,User,-,,Study/JOL,"Study Phase2",1447,,,-1,-1,,,,1
w535119_jll,9ow3oocti8,Nick_Dissertation_EX1,1,206,2020-08-29T16:37:07-07:00,1.7520108222961,3,versionC_stim.csv,READVersionC.csv,"Read Version C","Dissertation, read only version C",AWAY,GONE,Study2,S,142,161,Study,User,-,,Study/JOL,"Study Phase2",1130,,,-1,-1,,,,1
w535119_jll,9ow3oocti8,Nick_Dissertation_EX1,1,207,2020-08-29T16:37:09-07:00,2.0135819911957,3,versionC_stim.csv,READVersionC.csv,"Read Version C","Dissertation, read only version C",OUNCE,BOTH,Study2,U,172,155,Study,User,-,,Study/JOL,"Study Phase2",1325,,,-1,-1,,,,1
w535119_jll,9ow3oocti8,Nick_Dissertation_EX1,1,208,2020-08-29T16:37:11-07:00,1.3434171676636,3,versionC_stim.csv,READVersionC.csv,"Read Version C","Dissertation, read only version C",HATE,NAME,Study2,U,167,103,Study,User,-,,Study/JOL,"Study Phase2",775,,,-1,-1,,,,1
w535119_jll,9ow3oocti8,Nick_Dissertation_EX1,1,209,2020-08-29T16:37:12-07:00,1.727472782135,3,versionC_stim.csv,READVersionC.csv,"Read Version C","Dissertation, read only version C",MAROON,JUSTICE,Study2,U,156,116,Study,User,-,,Study/JOL,"Study Phase2",1104,,,-1,-1,,,,1
w535119_jll,9ow3oocti8,Nick_Dissertation_EX1,1,210,2020-08-29T16:37:14-07:00,1.8570342063904,3,versionC_stim.csv,READVersionC.csv,"Read Version C","Dissertation, read only version C",STEAK,GIVE,Study2,U,158,105,Study,User,-,,Study/JOL,"Study Phase2",1127,,,-1,-1,,,,1
w535119_jll,9ow3oocti8,Nick_Dissertation_EX1,1,211,2020-08-29T16:37:16-07:00,1.5005099773407,3,versionC_stim.csv,READVersionC.csv,"Read Version C","Dissertation, read only version C",STRAWBERRY,FRUIT,Study2,F,124,132,Study,User,-,,Study/JOL,"Study Phase2",959,,,-1,-1,,,,1
w535119_jll,9ow3oocti8,Nick_Dissertation_EX1,1,212,2020-08-29T16:37:18-07:00,2.2493278980255,3,versionC_stim.csv,READVersionC.csv,"Read Version C","Dissertation, read only version C",FIGHT,FEUD,Study2,B,113,174,Study,User,-,,Study/JOL,"Study Phase2",1506,,,-1,-1,,,,1
w535119_jll,9ow3oocti8,Nick_Dissertation_EX1,1,213,2020-08-29T16:37:20-07:00,1.980847120285,3,versionC_stim.csv,READVersionC.csv,"Read Version C","Dissertation, read only version C",BRAWL,FIGHT,Study2,F,135,114,Study,User,-,,Study/JOL,"Study Phase2",1323,,,-1,-1,,,,1
w535119_jll,9ow3oocti8,Nick_Dissertation_EX1,1,214,2020-08-29T16:37:22-07:00,1.9437668323517,3,versionC_stim.csv,READVersionC.csv,"Read Version C","Dissertation, read only version C",LONELY,ALONE,Study2,S,145,162,Study,User,-,,Study/JOL,"Study Phase2",1281,,,-1,-1,,,,1
w535119_jll,9ow3oocti8,Nick_Dissertation_EX1,1,215,2020-08-29T16:37:24-07:00,1.8771979808807,3,versionC_stim.csv,READVersionC.csv,"Read Version C","Dissertation, read only version C",CHILDREN,MIRROR,Study2,U,174,156,Study,User,-,,Study/JOL,"Study Phase2",1297,,,-1,-1,,,,1
w535119_jll,9ow3oocti8,Nick_Dissertation_EX1,1,216,2020-08-29T16:37:26-07:00,2.4919111728668,3,versionC_stim.csv,READVersionC.csv,"Read Version C","Dissertation, read only version C",HAVE,OWN,Study2,S,153,160,Study,User,-,,Study/JOL,"Study Phase2",1757,,,-1,-1,,,,1
w535119_jll,9ow3oocti8,Nick_Dissertation_EX1,1,217,2020-08-29T16:37:28-07:00,1.7281930446625,3,versionC_stim.csv,READVersionC.csv,"Read Version C","Dissertation, read only version C",SHAVE,RAZOR,Study2,S,136,119,Study,User,-,,Study/JOL,"Study Phase2",1155,,,-1,-1,,,,1
w535119_jll,9ow3oocti8,Nick_Dissertation_EX1,1,218,2020-08-29T16:37:30-07:00,1.825366973877,3,versionC_stim.csv,READVersionC.csv,"Read Version C","Dissertation, read only version C",ABLE,CRACKLE,Study2,U,162,143,Study,User,-,,Study/JOL,"Study Phase2",1195,,,-1,-1,,,,1
w535119_jll,9ow3oocti8,Nick_Dissertation_EX1,1,219,2020-08-29T16:37:31-07:00,1.3882188796997,3,versionC_stim.csv,READVersionC.csv,"Read Version C","Dissertation, read only version C",BANG,FUZZY,Study2,U,168,146,Study,User,-,,Study/JOL,"Study Phase2",724,,,-1,-1,,,,1
w535119_jll,9ow3oocti8,Nick_Dissertation_EX1,1,220,2020-08-29T16:37:33-07:00,1.6947591304779,3,versionC_stim.csv,READVersionC.csv,"Read Version C","Dissertation, read only version C",PANTHER,CAT,Study2,F,126,150,Study,User,-,,Study/JOL,"Study Phase2",1171,,,-1,-1,,,,1
w535119_jll,9ow3oocti8,Nick_Dissertation_EX1,1,221,2020-08-29T16:37:34-07:00,1.4613728523254,3,versionC_stim.csv,READVersionC.csv,"Read Version C","Dissertation, read only version C",BRACELET,WRIST,Study2,S,140,138,Study,User,-,,Study/JOL,"Study Phase2",792,,,-1,-1,,,,1
w535119_jll,9ow3oocti8,Nick_Dissertation_EX1,1,222,2020-08-29T16:37:36-07:00,1.7125940322876,3,versionC_stim.csv,READVersionC.csv,"Read Version C","Dissertation, read only version C",PAPER,DOCUMENT,Study2,B,109,157,Study,User,-,,Study/JOL,"Study Phase2",1102,,,-1,-1,,,,1
w535119_jll,9ow3oocti8,Nick_Dissertation_EX1,1,223,2020-08-29T16:37:38-07:00,1.504497051239,3,versionC_stim.csv,READVersionC.csv,"Read Version C","Dissertation, read only version C",WAX,CANDLE,Study2,S,139,115,Study,User,-,,Study/JOL,"Study Phase2",875,,,-1,-1,,,,1
w535119_jll,9ow3oocti8,Nick_Dissertation_EX1,1,224,2020-08-29T16:37:39-07:00,1.8890330791473,3,versionC_stim.csv,READVersionC.csv,"Read Version C","Dissertation, read only version C",END,ADJOURN,Study2,B,101,108,Study,User,-,,Study/JOL,"Study Phase2",1279,,,-1,-1,,,,1
w535119_jll,9ow3oocti8,Nick_Dissertation_EX1,1,225,2020-08-29T16:37:41-07:00,1.6649827957153,3,versionC_stim.csv,READVersionC.csv,"Read Version C","Dissertation, read only version C",SCAR,MAIN,Study2,U,175,149,Study,User,-,,Study/JOL,"Study Phase2",1045,,,-1,-1,,,,1
w535119_jll,9ow3oocti8,Nick_Dissertation_EX1,1,226,2020-08-29T16:37:43-07:00,2.3338119983673,3,versionC_stim.csv,READVersionC.csv,"Read Version C","Dissertation, read only version C",PENGUIN,BIRD,Study2,F,119,123,Study,User,-,,Study/JOL,"Study Phase2",1713,,,-1,-1,,,,1
w535119_jll,9ow3oocti8,Nick_Dissertation_EX1,1,227,2020-08-29T16:37:45-07:00,2.0276319980621,3,versionC_stim.csv,READVersionC.csv,"Read Version C","Dissertation, read only version C",JOKE,KEYS,Study2,U,165,102,Study,User,-,,Study/JOL,"Study Phase2",1390,,,-1,-1,,,,1
w535119_jll,9ow3oocti8,Nick_Dissertation_EX1,1,228,2020-08-29T16:37:47-07:00,1.7375950813293,3,versionC_stim.csv,READVersionC.csv,"Read Version C","Dissertation, read only version C",OBTAIN,MEAT,Study2,U,161,152,Study,User,-,,Study/JOL,"Study Phase2",974,,,-1,-1,,,,1
w535119_jll,9ow3oocti8,Nick_Dissertation_EX1,1,229,2020-08-29T16:37:50-07:00,2.3256800174713,3,versionC_stim.csv,READVersionC.csv,"Read Version C","Dissertation, read only version C",CARBON,ELEMENT,Study2,S,141,142,Study,User,-,,Study/JOL,"Study Phase2",1772,,,-1,-1,,,,1
w535119_jll,9ow3oocti8,Nick_Dissertation_EX1,1,230,2020-08-29T16:37:51-07:00,1.7675681114197,3,versionC_stim.csv,READVersionC.csv,"Read Version C","Dissertation, read only version C",BANKER,MONEY,Study2,F,132,100,Study,User,-,,Study/JOL,"Study Phase2",1228,,,-1,-1,,,,1
w535119_jll,9ow3oocti8,Nick_Dissertation_EX1,1,231,2020-08-29T16:37:53-07:00,1.5755620002747,3,versionC_stim.csv,READVersionC.csv,"Read Version C","Dissertation, read only version C",EAT,DINE,Study2,B,111,137,Study,User,-,,Study/JOL,"Study Phase2",943,,,-1,-1,,,,1
w535119_jll,9ow3oocti8,Nick_Dissertation_EX1,1,232,2020-08-29T16:37:54-07:00,1.5449349880219,3,versionC_stim.csv,READVersionC.csv,"Read Version C","Dissertation, read only version C",COFFIN,DEAD,Study2,F,128,133,Study,User,-,,Study/JOL,"Study Phase2",952,,,-1,-1,,,,1
w535119_jll,9ow3oocti8,Nick_Dissertation_EX1,1,233,2020-08-29T16:37:56-07:00,1.8450748920441,3,versionC_stim.csv,READVersionC.csv,"Read Version C","Dissertation, read only version C",FICTION,LISTEN,Study2,U,164,151,Study,User,-,,Study/JOL,"Study Phase2",1233,,,-1,-1,,,,1
w535119_jll,9ow3oocti8,Nick_Dissertation_EX1,1,234,2020-08-29T16:37:58-07:00,1.5409409999847,3,versionC_stim.csv,READVersionC.csv,"Read Version C","Dissertation, read only version C",WET,DRY,Study2,S,146,129,Study,User,-,,Study/JOL,"Study Phase2",880,,,-1,-1,,,,1
w535119_jll,9ow3oocti8,Nick_Dissertation_EX1,1,235,2020-08-29T16:37:59-07:00,1.6226079463959,3,versionC_stim.csv,READVersionC.csv,"Read Version C","Dissertation, read only version C",AIRCRAFT,PLANE,Study2,F,129,134,Study,User,-,,Study/JOL,"Study Phase2",1003,,,-1,-1,,,,1
w535119_jll,9ow3oocti8,Nick_Dissertation_EX1,1,236,2020-08-29T16:38:01-07:00,1.7667119503021,3,versionC_stim.csv,READVersionC.csv,"Read Version C","Dissertation, read only version C",LEAGUE,BASEBALL,Study2,F,131,168,Study,User,-,,Study/JOL,"Study Phase2",1181,,,-1,-1,,,,1
w535119_jll,9ow3oocti8,Nick_Dissertation_EX1,1,237,2020-08-29T16:38:03-07:00,1.779776096344,3,versionC_stim.csv,READVersionC.csv,"Read Version C","Dissertation, read only version C",CLOTHES,CAKE,Study2,U,166,167,Study,User,-,,Study/JOL,"Study Phase2",1126,,,-1,-1,,,,1
w535119_jll,9ow3oocti8,Nick_Dissertation_EX1,1,238,2020-08-29T16:38:06-07:00,2.7597489356995,3,versionC_stim.csv,READVersionC.csv,"Read Version C","Dissertation, read only version C",CLOTH,STRETCH,Study2,U,157,97,Study,User,-,,Study/JOL,"Study Phase2",2084,,,-1,-1,,,,1
w535119_jll,9ow3oocti8,Nick_Dissertation_EX1,1,239,2020-08-29T16:38:08-07:00,1.8696281909943,3,versionC_stim.csv,READVersionC.csv,"Read Version C","Dissertation, read only version C",TRASH,LITTER,Study2,B,103,136,Study,User,-,,Study/JOL,"Study Phase2",1141,,,-1,-1,,,,1
w535119_jll,9ow3oocti8,Nick_Dissertation_EX1,1,240,2020-08-29T16:38:10-07:00,2.1345419883728,3,versionC_stim.csv,READVersionC.csv,"Read Version C","Dissertation, read only version C",SARDINE,FISH,Study2,F,130,104,Study,User,-,,Study/JOL,"Study Phase2",1461,,,-1,-1,,,,1
w535119_jll,9ow3oocti8,Nick_Dissertation_EX1,1,241,2020-08-29T16:38:11-07:00,1.5964119434357,3,versionC_stim.csv,READVersionC.csv,"Read Version C","Dissertation, read only version C",VILLAIN,BAD,Study2,F,118,163,Study,User,-,,Study/JOL,"Study Phase2",945,,,-1,-1,,,,1
w535119_jll,9ow3oocti8,Nick_Dissertation_EX1,1,242,2020-08-29T16:38:13-07:00,1.5220379829407,3,versionC_stim.csv,READVersionC.csv,"Read Version C","Dissertation, read only version C",MYSTERY,DETECTIVE,Study2,B,100,109,Study,User,-,,Study/JOL,"Study Phase2",868,,,-1,-1,,,,1
w535119_jll,9ow3oocti8,Nick_Dissertation_EX1,1,243,2020-08-29T16:38:15-07:00,1.8554019927979,3,versionC_stim.csv,READVersionC.csv,"Read Version C","Dissertation, read only version C",TAN,SUN,Study2,S,155,172,Study,User,-,,Study/JOL,"Study Phase2",1186,,,-1,-1,,,,1
w535119_jll,9ow3oocti8,Nick_Dissertation_EX1,1,244,2020-08-29T16:38:16-07:00,1.5938260555267,3,versionC_stim.csv,READVersionC.csv,"Read Version C","Dissertation, read only version C",DONKEY,MULE,Study2,B,108,118,Study,User,-,,Study/JOL,"Study Phase2",929,,,-1,-1,,,,1
w535119_jll,9ow3oocti8,Nick_Dissertation_EX1,1,245,2020-08-29T16:38:18-07:00,1.7078049182892,3,versionC_stim.csv,READVersionC.csv,"Read Version C","Dissertation, read only version C",NOISE,LOUD,Study2,S,152,140,Study,User,-,,Study/JOL,"Study Phase2",1036,,,-1,-1,,,,1
w535119_jll,9ow3oocti8,Nick_Dissertation_EX1,1,246,2020-08-29T16:38:20-07:00,1.7488989830017,3,versionC_stim.csv,READVersionC.csv,"Read Version C","Dissertation, read only version C",COLD,CHILL,Study2,B,114,125,Study,User,-,,Study/JOL,"Study Phase2",1065,,,-1,-1,,,,1
w535119_jll,9ow3oocti8,Nick_Dissertation_EX1,1,247,2020-08-29T16:38:22-07:00,1.8353729248047,3,versionC_stim.csv,READVersionC.csv,"Read Version C","Dissertation, read only version C",BALLOON,POP,Study2,F,123,121,Study,User,-,,Study/JOL,"Study Phase2",1127,,,-1,-1,,,,1
w535119_jll,9ow3oocti8,Nick_Dissertation_EX1,1,248,2020-08-29T16:38:23-07:00,1.7869961261749,3,versionC_stim.csv,READVersionC.csv,"Read Version C","Dissertation, read only version C",SMELL,INCENSE,Study2,B,110,120,Study,User,-,,Study/JOL,"Study Phase2",1180,,,-1,-1,,,,1
w535119_jll,9ow3oocti8,Nick_Dissertation_EX1,1,249,2020-08-29T16:38:26-07:00,3.0063240528107,3,versionC_stim.csv,READVersionC.csv,"Read Version C","Dissertation, read only version C",JAR,MASON,Study2,S,138,126,Study,User,-,,Study/JOL,"Study Phase2",2377,,,-1,-1,,,,1
w535119_jll,9ow3oocti8,Nick_Dissertation_EX1,1,250,2020-08-29T16:38:28-07:00,1.9233930110931,3,versionC_stim.csv,READVersionC.csv,"Read Version C","Dissertation, read only version C",REEL,ROD,Study2,S,150,145,Study,User,-,,Study/JOL,"Study Phase2",1276,,,-1,-1,,,,1
w535119_jll,9ow3oocti8,Nick_Dissertation_EX1,1,251,2020-08-29T16:38:30-07:00,1.6190469264984,3,versionC_stim.csv,READVersionC.csv,"Read Version C","Dissertation, read only version C",CHARM,VEHICLE,Study2,U,160,112,Study,User,-,,Study/JOL,"Study Phase2",1103,,,-1,-1,,,,1
w535119_jll,9ow3oocti8,Nick_Dissertation_EX1,1,252,2020-08-29T16:38:32-07:00,1.7908499240875,3,versionC_stim.csv,READVersionC.csv,"Read Version C","Dissertation, read only version C",TEMPER,TANTRUM,Study2,S,154,139,Study,User,-,,Study/JOL,"Study Phase2",1220,,,-1,-1,,,,1
w535119_jll,9ow3oocti8,Nick_Dissertation_EX1,1,253,2020-08-29T16:38:34-07:00,1.9389259815216,3,versionC_stim.csv,READVersionC.csv,"Read Version C","Dissertation, read only version C",GAME,CLUE,Study2,B,97,176,Study,User,-,,Study/JOL,"Study Phase2",1274,,,-1,-1,,,,1
w535119_jll,9ow3oocti8,Nick_Dissertation_EX1,1,254,2020-08-29T16:38:35-07:00,1.7426521778107,3,versionC_stim.csv,READVersionC.csv,"Read Version C","Dissertation, read only version C",THIMBLE,THREAD,Study2,F,121,169,Study,User,-,,Study/JOL,"Study Phase2",1053,,,-1,-1,,,,1
w535119_jll,9ow3oocti8,Nick_Dissertation_EX1,1,255,2020-08-29T16:38:37-07:00,2.0395858287811,3,versionC_stim.csv,READVersionC.csv,"Read Version C","Dissertation, read only version C",SEATBELT,SAFETY,Study2,S,147,131,Study,User,-,,Study/JOL,"Study Phase2",1255,,,-1,-1,,,,1
w535119_jll,9ow3oocti8,Nick_Dissertation_EX1,1,256,2020-08-29T16:38:39-07:00,1.769947052002,3,versionC_stim.csv,READVersionC.csv,"Read Version C","Dissertation, read only version C",FLIP,TURN,Study2,F,116,154,Study,User,-,,Study/JOL,"Study Phase2",1153,,,-1,-1,,,,1
w535119_jll,9ow3oocti8,Nick_Dissertation_EX1,1,257,2020-08-29T16:38:41-07:00,1.5484459400177,3,versionC_stim.csv,READVersionC.csv,"Read Version C","Dissertation, read only version C",CLEAR,MOAT,Study2,U,169,101,Study,User,-,,Study/JOL,"Study Phase2",992,,,-1,-1,,,,1
w535119_jll,9ow3oocti8,Nick_Dissertation_EX1,1,258,2020-08-29T16:38:42-07:00,1.730309009552,3,versionC_stim.csv,READVersionC.csv,"Read Version C","Dissertation, read only version C",EQUAL,RIGHTS,Study2,S,137,165,Study,User,-,,Study/JOL,"Study Phase2",1141,,,-1,-1,,,,1
w535119_jll,9ow3oocti8,Nick_Dissertation_EX1,1,259,2020-08-29T16:38:46-07:00,3.1782369613647,3,versionC_stim.csv,READVersionC.csv,"Read Version C","Dissertation, read only version C",DOG,FURRY,Study2,B,102,158,Study,User,-,,Study/JOL,"Study Phase2",2518,,,-1,-1,,,,1
w535119_jll,9ow3oocti8,Nick_Dissertation_EX1,1,260,2020-08-29T16:38:47-07:00,1.6525070667267,3,versionC_stim.csv,READVersionC.csv,"Read Version C","Dissertation, read only version C",SHAKE,Shell,Study2,U,163,98,Study,User,-,,Study/JOL,"Study Phase2",957,,,-1,-1,,,,1
w535119_jll,9ow3oocti8,Nick_Dissertation_EX1,1,261,2020-08-29T16:38:49-07:00,1.5433459281921,3,versionC_stim.csv,READVersionC.csv,"Read Version C","Dissertation, read only version C",SHED,TOOL,BUFFER4,Buffer,178,177,Study,User,-,,Study/JOL,BUFFER4,917,,,-1,-1,,,,1
w535119_jll,9ow3oocti8,Nick_Dissertation_EX1,1,262,2020-08-29T16:38:51-07:00,2.2607161998749,3,versionC_stim.csv,READVersionC.csv,"Read Version C","Dissertation, read only version C",WEAKS,DAYS,BUFFER4,Buffer,176,178,Study,User,-,,Study/JOL,BUFFER4,1592,,,-1,-1,,,,1
w535119_jll,9ow3oocti8,Nick_Dissertation_EX1,1,263,2020-08-29T16:38:53-07:00,1.4908928871155,3,versionC_stim.csv,READVersionC.csv,"Read Version C","Dissertation, read only version C",YEAR,MONTH,BUFFER4,Buffer,177,181,Study,User,-,,Study/JOL,BUFFER4,946,,,-1,-1,,,,1
w535119_jll,9ow3oocti8,Nick_Dissertation_EX1,1,264,2020-08-29T16:38:54-07:00,1.4884810447693,3,versionC_stim.csv,READVersionC.csv,"Read Version C","Dissertation, read only version C",SPOOKY,OCTOBER,BUFFER4,Buffer,180,179,Study,User,-,,Study/JOL,BUFFER4,845,,,-1,-1,,,,1
w535119_jll,9ow3oocti8,Nick_Dissertation_EX1,1,265,2020-08-29T16:38:55-07:00,1.3592250347137,3,versionC_stim.csv,READVersionC.csv,"Read Version C","Dissertation, read only version C",MARCH,SPRING,BUFFER4,Buffer,179,180,Study,User,-,,Study/JOL,BUFFER4,763,,,-1,-1,,,,1
w535119_jll,9ow3oocti8,Nick_Dissertation_EX1,1,266,2020-08-29T16:38:58-07:00,2.1098659038544,3,versionC_stim.csv,READVersionC.csv,"Read Version C","Dissertation, read only version C",,,,,,0,Instruct,User,-,"You have completed this section. Please press Enter.",Filler_Instruction,Instruct5,1547,,,-1,-1,,,,1
w535119_jll,9ow3oocti8,Nick_Dissertation_EX1,1,267,2020-08-29T16:40:58-07:00,120.77599811554,3,versionC_stim.csv,READVersionC.csv,"Read Version C","Dissertation, read only version C",,,,,,0,FreeRecall,120,120,"Please list the 50 US states in reverse alphabetical order (z - a). The task will automatically advance to the next screen after two minutes.",,Filler2,120002,"Wyoming West Virginia Washington Virginia Utah Texas Tennessee South Dakota South Carolina Rhode Island Pennsylvania Oregon Ohio North Dakota North Carolina New Jersey ",0,11879,112985,0,0,,1
w535119_jll,9ow3oocti8,Nick_Dissertation_EX1,1,268,2020-08-29T16:41:10-07:00,11.573568820953,3,versionC_stim.csv,READVersionC.csv,"Read Version C","Dissertation, read only version C",,,,,,0,Instruct,-,10,"You will now be presented with the first word from each of the previously studied item pairs. Please type the missing word. If you do not know the word, you may guess or press Enter to skip forward to the next pair.",,Instruct6,10612,,,-1,-1,,,,1
w535119_jll,9ow3oocti8,Nick_Dissertation_EX1,1,269,2020-08-29T16:41:16-07:00,6.0495591163635,3,versionC_stim.csv,READVersionC.csv,"Read Version C","Dissertation, read only version C",TIE,SHOELACE,Study2,B,99,159,Test,User,-,,Recall,Recall2,5319,Shoelace,100,3687,5140,1,1,,1
w535119_jll,9ow3oocti8,Nick_Dissertation_EX1,1,270,2020-08-29T16:41:21-07:00,4.5903499126434,3,versionC_stim.csv,READVersionC.csv,"Read Version C","Dissertation, read only version C",ELECTION,MAZE,Study2,U,159,128,Test,User,-,,Recall,Recall2,3927,Bid,0,2646,3769,0,0,,1
w535119_jll,9ow3oocti8,Nick_Dissertation_EX1,1,271,2020-08-29T16:41:49-07:00,28.784269094467,3,versionC_stim.csv,READVersionC.csv,"Read Version C","Dissertation, read only version C",CAR,DRIVER,Study2,B,106,147,Test,User,-,,Recall,Recall2,27945,windshield,25,25292,27360,0,0,,1
w535119_jll,9ow3oocti8,Nick_Dissertation_EX1,1,272,2020-08-29T16:41:54-07:00,4.9504759311676,3,versionC_stim.csv,READVersionC.csv,"Read Version C","Dissertation, read only version C",BRAWL,FIGHT,Study2,F,135,114,Test,User,-,,Recall,Recall2,4113,fight,100,2937,3916,1,1,,1
w535119_jll,9ow3oocti8,Nick_Dissertation_EX1,1,273,2020-08-29T16:41:58-07:00,3.4518539905548,3,versionC_stim.csv,READVersionC.csv,"Read Version C","Dissertation, read only version C",DOG,FURRY,Study2,B,102,158,Test,User,-,,Recall,Recall2,2748,fight,20,2018,2564,0,0,,1
w535119_jll,9ow3oocti8,Nick_Dissertation_EX1,1,274,2020-08-29T16:42:01-07:00,3.6296241283417,3,versionC_stim.csv,READVersionC.csv,"Read Version C","Dissertation, read only version C",LIE,TRUTH,Study2,S,148,148,Test,User,-,,Recall,Recall2,2924,truth,100,1673,2676,1,1,,1
w535119_jll,9ow3oocti8,Nick_Dissertation_EX1,1,275,2020-08-29T16:42:05-07:00,3.5749218463898,3,versionC_stim.csv,READVersionC.csv,"Read Version C","Dissertation, read only version C",TAN,SUN,Study2,S,155,172,Test,User,-,,Recall,Recall2,2907,burn,57.142857142857,2022,2693,0,0,,1
w535119_jll,9ow3oocti8,Nick_Dissertation_EX1,1,276,2020-08-29T16:42:07-07:00,2.5340700149536,3,versionC_stim.csv,READVersionC.csv,"Read Version C","Dissertation, read only version C",LONG,EXTENSION,Study2,B,96,117,Test,User,-,,Recall,Recall2,1784,short,28.571428571429,1055,1645,0,0,,1
w535119_jll,9ow3oocti8,Nick_Dissertation_EX1,1,277,2020-08-29T16:42:11-07:00,3.4437580108643,3,versionC_stim.csv,READVersionC.csv,"Read Version C","Dissertation, read only version C",AIRCRAFT,PLANE,Study2,F,129,134,Test,User,-,,Recall,Recall2,2886,pilot,40,1982,2713,0,0,,1
w535119_jll,9ow3oocti8,Nick_Dissertation_EX1,1,278,2020-08-29T16:42:15-07:00,3.7614049911499,3,versionC_stim.csv,READVersionC.csv,"Read Version C","Dissertation, read only version C",THIMBLE,THREAD,Study2,F,121,169,Test,User,-,,Recall,Recall2,3172,thumb,36.363636363636,2302,2966,0,0,,1
w535119_jll,9ow3oocti8,Nick_Dissertation_EX1,1,279,2020-08-29T16:42:18-07:00,2.9408011436462,3,versionC_stim.csv,READVersionC.csv,"Read Version C","Dissertation, read only version C",WINDSHIELD,CAR,Study2,F,117,110,Test,User,-,,Recall,Recall2,2101,car,100,1478,1957,1,1,,1
w535119_jll,9ow3oocti8,Nick_Dissertation_EX1,1,280,2020-08-29T16:42:21-07:00,3.7978420257568,3,versionC_stim.csv,READVersionC.csv,"Read Version C","Dissertation, read only version C",REEL,ROD,Study2,S,150,145,Test,User,-,,Recall,Recall2,2935,fishing,0,1935,2799,0,0,,1
w535119_jll,9ow3oocti8,Nick_Dissertation_EX1,1,281,2020-08-29T16:42:25-07:00,4.0077419281006,3,versionC_stim.csv,READVersionC.csv,"Read Version C","Dissertation, read only version C",MYSTERY,DETECTIVE,Study2,B,100,109,Test,User,-,,Recall,Recall2,3305,detective,100,1537,3152,1,1,,1
w535119_jll,9ow3oocti8,Nick_Dissertation_EX1,1,282,2020-08-29T16:42:28-07:00,3.0510878562927,3,versionC_stim.csv,READVersionC.csv,"Read Version C","Dissertation, read only version C",CLOTHES,CAKE,Study2,U,166,167,Test,User,-,,Recall,Recall2,2519,,0,-1,-1,0,0,,1
w535119_jll,9ow3oocti8,Nick_Dissertation_EX1,1,283,2020-08-29T16:42:32-07:00,3.6622121334076,3,versionC_stim.csv,READVersionC.csv,"Read Version C","Dissertation, read only version C",ACTRESS,STAR,Study2,F,120,141,Test,User,-,,Recall,Recall2,2905,talent,40,1817,2650,0,0,,1
w535119_jll,9ow3oocti8,Nick_Dissertation_EX1,1,284,2020-08-29T16:42:35-07:00,2.3988540172577,3,versionC_stim.csv,READVersionC.csv,"Read Version C","Dissertation, read only version C",DONKEY,MULE,Study2,B,108,118,Test,User,-,,Recall,Recall2,1846,mule,100,1057,1657,1,1,,1
w535119_jll,9ow3oocti8,Nick_Dissertation_EX1,1,285,2020-08-29T16:42:38-07:00,3.1987180709839,3,versionC_stim.csv,READVersionC.csv,"Read Version C","Dissertation, read only version C",SMELL,INCENSE,Study2,B,110,120,Test,User,-,,Recall,Recall2,2460,scent,50,1356,2005,0,0,,1
w535119_jll,9ow3oocti8,Nick_Dissertation_EX1,1,286,2020-08-29T16:42:41-07:00,2.9438610076904,3,versionC_stim.csv,READVersionC.csv,"Read Version C","Dissertation, read only version C",WET,DRY,Study2,S,146,129,Test,User,-,,Recall,Recall2,2294,dryu,85.714285714286,1625,2060,0,1,,1
w535119_jll,9ow3oocti8,Nick_Dissertation_EX1,1,287,2020-08-29T16:42:44-07:00,3.0530278682709,3,versionC_stim.csv,READVersionC.csv,"Read Version C","Dissertation, read only version C",TICK,FLEA,Study2,S,151,113,Test,User,-,,Recall,Recall2,2443,flea,100,1557,2044,1,1,,1
w535119_jll,9ow3oocti8,Nick_Dissertation_EX1,1,288,2020-08-29T16:42:48-07:00,4.5338160991669,3,versionC_stim.csv,READVersionC.csv,"Read Version C","Dissertation, read only version C",CLEAR,MOAT,Study2,U,169,101,Test,User,-,,Recall,Recall2,3799,transparent,13.333333333333,1961,3613,0,0,,1
w535119_jll,9ow3oocti8,Nick_Dissertation_EX1,1,289,2020-08-29T16:42:51-07:00,2.8315749168396,3,versionC_stim.csv,READVersionC.csv,"Read Version C","Dissertation, read only version C",LONELY,ALONE,Study2,S,145,162,Test,User,-,,Recall,Recall2,2252,,0,-1,-1,0,0,,1
w535119_jll,9ow3oocti8,Nick_Dissertation_EX1,1,290,2020-08-29T16:42:54-07:00,3.1032009124756,3,versionC_stim.csv,READVersionC.csv,"Read Version C","Dissertation, read only version C",JOKE,KEYS,Study2,U,165,102,Test,User,-,,Recall,Recall2,2435,riddle,20,1596,2249,0,0,,1
w535119_jll,9ow3oocti8,Nick_Dissertation_EX1,1,291,2020-08-29T16:43:02-07:00,7.7263441085815,3,versionC_stim.csv,READVersionC.csv,"Read Version C","Dissertation, read only version C",STEAK,GIVE,Study2,U,158,105,Test,User,-,,Recall,Recall2,7145,knife,44.444444444444,3294,4192,0,0,,1
w535119_jll,9ow3oocti8,Nick_Dissertation_EX1,1,292,2020-08-29T16:43:08-07:00,6.5251159667969,3,versionC_stim.csv,READVersionC.csv,"Read Version C","Dissertation, read only version C",COFFIN,DEAD,Study2,F,128,133,Test,User,-,,Recall,Recall2,5866,corpse,20,4434,5692,0,0,,1
w535119_jll,9ow3oocti8,Nick_Dissertation_EX1,1,293,2020-08-29T16:43:12-07:00,3.5683701038361,3,versionC_stim.csv,READVersionC.csv,"Read Version C","Dissertation, read only version C",COLD,CHILL,Study2,B,114,125,Test,User,-,,Recall,Recall2,2913,hot,25,2438,2760,0,0,,1
w535119_jll,9ow3oocti8,Nick_Dissertation_EX1,1,294,2020-08-29T16:43:19-07:00,6.6613519191742,3,versionC_stim.csv,READVersionC.csv,"Read Version C","Dissertation, read only version C",DRINK,WATER,Study2,S,143,99,Test,User,-,,Recall,Recall2,5964,water,100,5053,5819,1,1,,1
w535119_jll,9ow3oocti8,Nick_Dissertation_EX1,1,295,2020-08-29T16:43:22-07:00,3.0509700775146,3,versionC_stim.csv,READVersionC.csv,"Read Version C","Dissertation, read only version C",EAT,DINE,Study2,B,111,137,Test,User,-,,Recall,Recall2,2346,drink,66.666666666667,1273,1939,0,0,,1
w535119_jll,9ow3oocti8,Nick_Dissertation_EX1,1,296,2020-08-29T16:43:24-07:00,2.5397298336029,3,versionC_stim.csv,READVersionC.csv,"Read Version C","Dissertation, read only version C",SCISSORS,SHEARS,Study2,B,112,144,Test,User,-,,Recall,Recall2,1927,cut,0,1441,1788,0,0,,1
w535119_jll,9ow3oocti8,Nick_Dissertation_EX1,1,297,2020-08-29T16:43:28-07:00,3.3894691467285,3,versionC_stim.csv,READVersionC.csv,"Read Version C","Dissertation, read only version C",PAPER,DOCUMENT,Study2,B,109,157,Test,User,-,,Recall,Recall2,2885,,0,-1,-1,0,0,,1
w535119_jll,9ow3oocti8,Nick_Dissertation_EX1,1,298,2020-08-29T16:43:29-07:00,1.7336490154266,3,versionC_stim.csv,READVersionC.csv,"Read Version C","Dissertation, read only version C",SIGN,LOAN,Study2,U,171,166,Test,User,-,,Recall,Recall2,1101,,0,-1,-1,0,0,,1
w535119_jll,9ow3oocti8,Nick_Dissertation_EX1,1,299,2020-08-29T16:43:33-07:00,3.4790489673615,3,versionC_stim.csv,READVersionC.csv,"Read Version C","Dissertation, read only version C",NAP,SLEEP,Study2,F,134,171,Test,User,-,,Recall,Recall2,2892,sleep,100,1004,2440,1,1,,1
w535119_jll,9ow3oocti8,Nick_Dissertation_EX1,1,300,2020-08-29T16:43:36-07:00,2.6793019771576,3,versionC_stim.csv,READVersionC.csv,"Read Version C","Dissertation, read only version C",LOVE,AFFECTION,Study2,B,115,153,Test,User,-,,Recall,Recall2,2030,hate,30.769230769231,1438,1858,0,0,,1
w535119_jll,9ow3oocti8,Nick_Dissertation_EX1,1,301,2020-08-29T16:43:40-07:00,4.5817358493805,3,versionC_stim.csv,READVersionC.csv,"Read Version C","Dissertation, read only version C",HEAD,SCALP,Study2,B,105,122,Test,User,-,,Recall,Recall2,3966,tail,44.444444444444,3119,3797,0,0,,1
w535119_jll,9ow3oocti8,Nick_Dissertation_EX1,1,302,2020-08-29T16:43:43-07:00,3.1055910587311,3,versionC_stim.csv,READVersionC.csv,"Read Version C","Dissertation, read only version C",VILLAIN,BAD,Study2,F,118,163,Test,User,-,,Recall,Recall2,2438,bad,100,1972,2314,1,1,,1
w535119_jll,9ow3oocti8,Nick_Dissertation_EX1,1,303,2020-08-29T16:43:46-07:00,2.3914661407471,3,versionC_stim.csv,READVersionC.csv,"Read Version C","Dissertation, read only version C",SHAKE,Shell,Study2,U,163,98,Test,User,-,,Recall,Recall2,1681,,0,-1,-1,0,0,,1
w535119_jll,9ow3oocti8,Nick_Dissertation_EX1,1,304,2020-08-29T16:43:49-07:00,2.9503610134125,3,versionC_stim.csv,READVersionC.csv,"Read Version C","Dissertation, read only version C",NOISE,LOUD,Study2,S,152,140,Test,User,-,,Recall,Recall2,2348,sound,66.666666666667,1474,2116,0,0,,1
w535119_jll,9ow3oocti8,Nick_Dissertation_EX1,1,305,2020-08-29T16:43:51-07:00,2.7999079227448,3,versionC_stim.csv,READVersionC.csv,"Read Version C","Dissertation, read only version C",AWAY,GONE,Study2,S,142,161,Test,User,-,,Recall,Recall2,2108,far,0,1395,1885,0,0,,1
w535119_jll,9ow3oocti8,Nick_Dissertation_EX1,1,306,2020-08-29T16:43:55-07:00,3.4788830280304,3,versionC_stim.csv,READVersionC.csv,"Read Version C","Dissertation, read only version C",TEMPER,TANTRUM,Study2,S,154,139,Test,User,-,,Recall,Recall2,2766,tantrum,100,1319,2561,1,1,,1
w535119_jll,9ow3oocti8,Nick_Dissertation_EX1,1,307,2020-08-29T16:43:58-07:00,2.8832640647888,3,versionC_stim.csv,READVersionC.csv,"Read Version C","Dissertation, read only version C",HAVE,OWN,Study2,S,153,160,Test,User,-,,Recall,Recall2,2252,not,33.333333333333,1821,2097,0,0,,1
w535119_jll,9ow3oocti8,Nick_Dissertation_EX1,1,308,2020-08-29T16:44:00-07:00,1.9441409111023,3,versionC_stim.csv,READVersionC.csv,"Read Version C","Dissertation, read only version C",BANKER,MONEY,Study2,F,132,100,Test,User,-,,Recall,Recall2,1352,,0,-1,-1,0,0,,1
w535119_jll,9ow3oocti8,Nick_Dissertation_EX1,1,309,2020-08-29T16:44:03-07:00,3.0844039916992,3,versionC_stim.csv,READVersionC.csv,"Read Version C","Dissertation, read only version C",JAR,MASON,Study2,S,138,126,Test,User,-,,Recall,Recall2,2288,,0,-1,-1,0,0,,1
w535119_jll,9ow3oocti8,Nick_Dissertation_EX1,1,310,2020-08-29T16:44:05-07:00,2.5364050865173,3,versionC_stim.csv,READVersionC.csv,"Read Version C","Dissertation, read only version C",CLOTH,STRETCH,Study2,U,157,97,Test,User,-,,Recall,Recall2,1905,paper,16.666666666667,1275,1825,0,0,,1
w535119_jll,9ow3oocti8,Nick_Dissertation_EX1,1,311,2020-08-29T16:44:09-07:00,3.2893829345703,3,versionC_stim.csv,READVersionC.csv,"Read Version C","Dissertation, read only version C",CARBON,ELEMENT,Study2,S,141,142,Test,User,-,,Recall,Recall2,2448,fiber,16.666666666667,1717,2290,0,0,,1
w535119_jll,9ow3oocti8,Nick_Dissertation_EX1,1,312,2020-08-29T16:44:12-07:00,3.2645969390869,3,versionC_stim.csv,READVersionC.csv,"Read Version C","Dissertation, read only version C",SHAVE,RAZOR,Study2,S,136,119,Test,User,-,,Recall,Recall2,2613,,0,-1,-1,0,0,,1
w535119_jll,9ow3oocti8,Nick_Dissertation_EX1,1,313,2020-08-29T16:44:15-07:00,3.3488011360168,3,versionC_stim.csv,READVersionC.csv,"Read Version C","Dissertation, read only version C",BANG,FUZZY,Study2,U,168,146,Test,User,-,,Recall,Recall2,2583,,0,-1,-1,0,0,,1
w535119_jll,9ow3oocti8,Nick_Dissertation_EX1,1,314,2020-08-29T16:44:18-07:00,2.4876918792725,3,versionC_stim.csv,READVersionC.csv,"Read Version C","Dissertation, read only version C",TOIL,LEASE,Study2,U,170,170,Test,User,-,,Recall,Recall2,1911,work,0,1338,1735,0,0,,1
w535119_jll,9ow3oocti8,Nick_Dissertation_EX1,1,315,2020-08-29T16:44:20-07:00,2.6746859550476,3,versionC_stim.csv,READVersionC.csv,"Read Version C","Dissertation, read only version C",PENGUIN,BIRD,Study2,F,119,123,Test,User,-,,Recall,Recall2,2060,bird,100,1413,1934,1,1,,1
w535119_jll,9ow3oocti8,Nick_Dissertation_EX1,1,316,2020-08-29T16:44:23-07:00,2.3600251674652,3,versionC_stim.csv,READVersionC.csv,"Read Version C","Dissertation, read only version C",CHILDREN,MIRROR,Study2,U,174,156,Test,User,-,,Recall,Recall2,1741,,0,-1,-1,0,0,,1
w535119_jll,9ow3oocti8,Nick_Dissertation_EX1,1,317,2020-08-29T16:44:27-07:00,3.7816488742828,3,versionC_stim.csv,READVersionC.csv,"Read Version C","Dissertation, read only version C",FAVORITE,BEST,Study2,F,125,173,Test,User,-,,Recall,Recall2,3162,boil,25,2155,2987,0,0,,1
w535119_jll,9ow3oocti8,Nick_Dissertation_EX1,1,318,2020-08-29T16:44:30-07:00,3.4631950855255,3,versionC_stim.csv,READVersionC.csv,"Read Version C","Dissertation, read only version C",SEATBELT,SAFETY,Study2,S,147,131,Test,User,-,,Recall,Recall2,2630,safety,100,1396,2388,1,1,,1
w535119_jll,9ow3oocti8,Nick_Dissertation_EX1,1,319,2020-08-29T16:44:32-07:00,1.9838609695435,3,versionC_stim.csv,READVersionC.csv,"Read Version C","Dissertation, read only version C",EQUAL,RIGHTS,Study2,S,137,165,Test,User,-,,Recall,Recall2,1216,,0,-1,-1,0,0,,1
w535119_jll,9ow3oocti8,Nick_Dissertation_EX1,1,320,2020-08-29T16:44:35-07:00,3.0803618431091,3,versionC_stim.csv,READVersionC.csv,"Read Version C","Dissertation, read only version C",REVENGE,EVEN,Study2,F,122,127,Test,User,-,,Recall,Recall2,2399,,0,-1,-1,0,0,,1
w535119_jll,9ow3oocti8,Nick_Dissertation_EX1,1,321,2020-08-29T16:44:38-07:00,3.3527200222015,3,versionC_stim.csv,READVersionC.csv,"Read Version C","Dissertation, read only version C",PLANT,CACTUS,Study2,B,98,164,Test,User,-,,Recall,Recall2,2567,,0,-1,-1,0,0,,1
w535119_jll,9ow3oocti8,Nick_Dissertation_EX1,1,322,2020-08-29T16:44:41-07:00,2.487692117691,3,versionC_stim.csv,READVersionC.csv,"Read Version C","Dissertation, read only version C",MAROON,JUSTICE,Study2,U,156,116,Test,User,-,,Recall,Recall2,1826,red,20,1370,1684,0,0,,1
w535119_jll,9ow3oocti8,Nick_Dissertation_EX1,1,323,2020-08-29T16:44:44-07:00,2.9868428707123,3,versionC_stim.csv,READVersionC.csv,"Read Version C","Dissertation, read only version C",Morning,TEMPERATURE,Study2,U,173,111,Test,User,-,,Recall,Recall2,2357,evening,22.222222222222,1330,2218,0,0,,1
w535119_jll,9ow3oocti8,Nick_Dissertation_EX1,1,324,2020-08-29T16:44:47-07:00,3.2494339942932,3,versionC_stim.csv,READVersionC.csv,"Read Version C","Dissertation, read only version C",ABLE,CRACKLE,Study2,U,162,143,Test,User,-,,Recall,Recall2,2601,body,0,1833,2324,0,0,,1
w535119_jll,9ow3oocti8,Nick_Dissertation_EX1,1,325,2020-08-29T16:44:50-07:00,2.7864711284637,3,versionC_stim.csv,READVersionC.csv,"Read Version C","Dissertation, read only version C",COMMUNICATION,PHONE,Study2,S,149,124,Test,User,-,,Recall,Recall2,2135,talk,0,1539,1955,0,0,,1
w535119_jll,9ow3oocti8,Nick_Dissertation_EX1,1,326,2020-08-29T16:44:54-07:00,4.0889139175415,3,versionC_stim.csv,READVersionC.csv,"Read Version C","Dissertation, read only version C",WAX,CANDLE,Study2,S,139,115,Test,User,-,,Recall,Recall2,3407,work,0,2722,3214,0,0,,1
w535119_jll,9ow3oocti8,Nick_Dissertation_EX1,1,327,2020-08-29T16:44:57-07:00,2.8921780586243,3,versionC_stim.csv,READVersionC.csv,"Read Version C","Dissertation, read only version C",PANTHER,CAT,Study2,F,126,150,Test,User,-,,Recall,Recall2,2262,cat,100,1645,2127,1,1,,1
w535119_jll,9ow3oocti8,Nick_Dissertation_EX1,1,328,2020-08-29T16:45:00-07:00,3.1582219600677,3,versionC_stim.csv,READVersionC.csv,"Read Version C","Dissertation, read only version C",FICTION,LISTEN,Study2,U,164,151,Test,User,-,,Recall,Recall2,2492,truth,18.181818181818,1437,2270,0,0,,1
w535119_jll,9ow3oocti8,Nick_Dissertation_EX1,1,329,2020-08-29T16:45:03-07:00,3.2163300514221,3,versionC_stim.csv,READVersionC.csv,"Read Version C","Dissertation, read only version C",RED,CHERRY,Study2,B,104,107,Test,User,-,,Recall,Recall2,2402,maroon,16.666666666667,1333,2166,0,0,,1
w535119_jll,9ow3oocti8,Nick_Dissertation_EX1,1,330,2020-08-29T16:45:06-07:00,2.7630360126495,3,versionC_stim.csv,READVersionC.csv,"Read Version C","Dissertation, read only version C",HATE,NAME,Study2,U,167,103,Test,User,-,,Recall,Recall2,2172,love,25,1518,2041,0,0,,1
w535119_jll,9ow3oocti8,Nick_Dissertation_EX1,1,331,2020-08-29T16:45:09-07:00,3.3217790126801,3,versionC_stim.csv,READVersionC.csv,"Read Version C","Dissertation, read only version C",SCAR,MAIN,Study2,U,175,149,Test,User,-,,Recall,Recall2,2693,,0,-1,-1,0,0,,1
w535119_jll,9ow3oocti8,Nick_Dissertation_EX1,1,332,2020-08-29T16:45:11-07:00,1.9113788604736,3,versionC_stim.csv,READVersionC.csv,"Read Version C","Dissertation, read only version C",OBTAIN,MEAT,Study2,U,161,152,Test,User,-,,Recall,Recall2,1368,,0,-1,-1,0,0,,1
w535119_jll,9ow3oocti8,Nick_Dissertation_EX1,1,333,2020-08-29T16:45:14-07:00,2.7564880847931,3,versionC_stim.csv,READVersionC.csv,"Read Version C","Dissertation, read only version C",SARDINE,FISH,Study2,F,130,104,Test,User,-,,Recall,Recall2,2129,fish,100,1516,1934,1,1,,1
w535119_jll,9ow3oocti8,Nick_Dissertation_EX1,1,334,2020-08-29T16:45:16-07:00,1.5722589492798,3,versionC_stim.csv,READVersionC.csv,"Read Version C","Dissertation, read only version C",BALLOON,POP,Study2,F,123,121,Test,User,-,,Recall,Recall2,887,,0,-1,-1,0,0,,1
w535119_jll,9ow3oocti8,Nick_Dissertation_EX1,1,335,2020-08-29T16:45:17-07:00,1.8905279636383,3,versionC_stim.csv,READVersionC.csv,"Read Version C","Dissertation, read only version C",CHARM,VEHICLE,Study2,U,160,112,Test,User,-,,Recall,Recall2,1255,,0,-1,-1,0,0,,1
w535119_jll,9ow3oocti8,Nick_Dissertation_EX1,1,336,2020-08-29T16:45:21-07:00,3.0358412265778,3,versionC_stim.csv,READVersionC.csv,"Read Version C","Dissertation, read only version C",GAME,CLUE,Study2,B,97,176,Test,User,-,,Recall,Recall2,2261,play,25,1490,2092,0,0,,1
w535119_jll,9ow3oocti8,Nick_Dissertation_EX1,1,337,2020-08-29T16:45:23-07:00,2.0914328098297,3,versionC_stim.csv,READVersionC.csv,"Read Version C","Dissertation, read only version C",BREAKABLE,GLASS,Study2,F,127,130,Test,User,-,,Recall,Recall2,1345,,0,-1,-1,0,0,,1
w535119_jll,9ow3oocti8,Nick_Dissertation_EX1,1,338,2020-08-29T16:45:26-07:00,3.7148571014404,3,versionC_stim.csv,READVersionC.csv,"Read Version C","Dissertation, read only version C",CUT,CHOP,Study2,B,107,175,Test,User,-,,Recall,Recall2,2901,tear,0,1598,2676,0,0,,1
w535119_jll,9ow3oocti8,Nick_Dissertation_EX1,1,339,2020-08-29T16:45:29-07:00,2.8776359558105,3,versionC_stim.csv,READVersionC.csv,"Read Version C","Dissertation, read only version C",TRASH,LITTER,Study2,B,103,136,Test,User,-,,Recall,Recall2,2066,can,0,1549,1907,0,0,,1
w535119_jll,9ow3oocti8,Nick_Dissertation_EX1,1,340,2020-08-29T16:45:32-07:00,2.6119101047516,3,versionC_stim.csv,READVersionC.csv,"Read Version C","Dissertation, read only version C",FLIP,TURN,Study2,F,116,154,Test,User,-,,Recall,Recall2,1951,coin,25,1317,1738,0,0,,1
w535119_jll,9ow3oocti8,Nick_Dissertation_EX1,1,341,2020-08-29T16:45:34-07:00,1.7562658786774,3,versionC_stim.csv,READVersionC.csv,"Read Version C","Dissertation, read only version C",END,ADJOURN,Study2,B,101,108,Test,User,-,,Recall,Recall2,1107,,0,-1,-1,0,0,,1
w535119_jll,9ow3oocti8,Nick_Dissertation_EX1,1,342,2020-08-29T16:45:36-07:00,2.6850979328156,3,versionC_stim.csv,READVersionC.csv,"Read Version C","Dissertation, read only version C",STRAWBERRY,FRUIT,Study2,F,124,132,Test,User,-,,Recall,Recall2,2019,fruit,100,1197,1889,1,1,,1
w535119_jll,9ow3oocti8,Nick_Dissertation_EX1,1,343,2020-08-29T16:45:39-07:00,2.3172330856323,3,versionC_stim.csv,READVersionC.csv,"Read Version C","Dissertation, read only version C",TRUTHFUL,HONEST,Study2,F,133,135,Test,User,-,,Recall,Recall2,1665,,0,-1,-1,0,0,,1
w535119_jll,9ow3oocti8,Nick_Dissertation_EX1,1,344,2020-08-29T16:45:40-07:00,1.6425130367279,3,versionC_stim.csv,READVersionC.csv,"Read Version C","Dissertation, read only version C",OUNCE,BOTH,Study2,U,172,155,Test,User,-,,Recall,Recall2,985,,0,-1,-1,0,0,,1
w535119_jll,9ow3oocti8,Nick_Dissertation_EX1,1,345,2020-08-29T16:45:42-07:00,2.1407129764557,3,versionC_stim.csv,READVersionC.csv,"Read Version C","Dissertation, read only version C",GROUND,EARTH,Study2,S,144,106,Test,User,-,,Recall,Recall2,1517,,0,-1,-1,0,0,,1
w535119_jll,9ow3oocti8,Nick_Dissertation_EX1,1,346,2020-08-29T16:45:47-07:00,5.0728409290314,3,versionC_stim.csv,READVersionC.csv,"Read Version C","Dissertation, read only version C",BRACELET,WRIST,Study2,S,140,138,Test,User,-,,Recall,Recall2,4220,wrist,100,2994,4028,1,1,,1
w535119_jll,9ow3oocti8,Nick_Dissertation_EX1,1,347,2020-08-29T16:45:49-07:00,1.6487171649933,3,versionC_stim.csv,READVersionC.csv,"Read Version C","Dissertation, read only version C",FIGHT,FEUD,Study2,B,113,174,Test,User,-,,Recall,Recall2,973,,0,-1,-1,0,0,,1
w535119_jll,9ow3oocti8,Nick_Dissertation_EX1,1,348,2020-08-29T16:45:51-07:00,1.5158739089966,3,versionC_stim.csv,READVersionC.csv,"Read Version C","Dissertation, read only version C",LEAGUE,BASEBALL,Study2,F,131,168,Test,User,-,,Recall,Recall2,848,,0,-1,-1,0,0,,1
w535119_jll,9ow3oocti8,Nick_Dissertation_EX1,1,349,2020-08-29T16:45:52-07:00,1.8604469299316,3,versionC_stim.csv,READVersionC.csv,"Read Version C","Dissertation, read only version C",,,,,,0,Instruct,User,-,"You have completed this section. Please press Enter.",,Instruct7,1147,,,-1,-1,,,,1
w535119_jll,9ow3oocti8,Nick_Dissertation_EX1,1,350,2020-08-29T16:46:23-07:00,30.613173007965,3,versionC_stim.csv,READVersionC.csv,"Read Version C","Dissertation, read only version C",,,,,,0,Instruct,User,-,"The following screen will ask you a few questions abour your experience today. You must complete these questions to receive credit.",,Instruct8,29712,,,-1,-1,,,,0.228
