Username,ID,ExperimentName,Session,Trial,Date,TimeDif,"Condition Number","Stimuli File","Order File","Condition Description","Condition Notes",Stimuli*Cue,Stimuli*Answer,Stimuli*Shuffle,"Stimuli*Stimuli Notes",Stimuli*Value,Procedure*Item,"Procedure*Trial Type","Procedure*Max Time","Procedure*Min Time",Procedure*Text,"Procedure*Procedure Notes",Procedure*Shuffle,Response*RT,Response*Response,Response*Accuracy,Response*RTfirst,Response*RTlast,Response*strictAcc,Response*lenientAcc,Response*focus,Response*Focus
w10039584_msc,uglhrbajv3,Nick_Dissertation_EX1,1,1,2020-08-30T16:18:12-07:00,12.10292506218,4,versionC_stim.csv,READVersionD.csv,"Read Version D","Dissertation, read only version D",,,,,,0,Instruct,-,10,"Please study each of the following word pairs. Remember that your memory will be tested! When finished, press Enter to move to the next pair.",Initial_Instruct,Instruct1,11820,,,-1,-1,,,,1
w10039584_msc,uglhrbajv3,Nick_Dissertation_EX1,1,2,2020-08-30T16:18:28-07:00,15.783716917038,4,versionC_stim.csv,READVersionD.csv,"Read Version D","Dissertation, read only version D",POTATO,CARROT,BUFFER3,Buffer,91,95,Study,User,-,,Study/JOL,BUFFER,15280,,,-1,-1,,,,1
w10039584_msc,uglhrbajv3,Nick_Dissertation_EX1,1,3,2020-08-30T16:18:33-07:00,4.7620799541473,4,versionC_stim.csv,READVersionD.csv,"Read Version D","Dissertation, read only version D",STRING,NOODLE,BUFFER3,Buffer,92,94,Study,User,-,,Study/JOL,BUFFER,4274,,,-1,-1,,,,1
w10039584_msc,uglhrbajv3,Nick_Dissertation_EX1,1,4,2020-08-30T16:18:42-07:00,9.6035361289978,4,versionC_stim.csv,READVersionD.csv,"Read Version D","Dissertation, read only version D",ADVENTURE,CAMP,BUFFER3,Buffer,95,92,Study,User,-,,Study/JOL,BUFFER,9253,,,-1,-1,,,,1
w10039584_msc,uglhrbajv3,Nick_Dissertation_EX1,1,5,2020-08-30T16:18:46-07:00,3.7544260025024,4,versionC_stim.csv,READVersionD.csv,"Read Version D","Dissertation, read only version D",FISH,SHRIMP,BUFFER3,Buffer,93,96,Study,User,-,,Study/JOL,BUFFER,3276,,,-1,-1,,,,1
w10039584_msc,uglhrbajv3,Nick_Dissertation_EX1,1,6,2020-08-30T16:18:50-07:00,3.6040689945221,4,versionC_stim.csv,READVersionD.csv,"Read Version D","Dissertation, read only version D",FROZEN,ICE,BUFFER3,Buffer,94,93,Study,User,-,,Study/JOL,BUFFER,3201,,,-1,-1,,,,1
w10039584_msc,uglhrbajv3,Nick_Dissertation_EX1,1,7,2020-08-30T16:18:54-07:00,4.2493648529053,4,versionC_stim.csv,READVersionD.csv,"Read Version D","Dissertation, read only version D",PANTHER,CAT,Study2,F,126,98,Study,User,-,,Study/JOL,"Study Phase",3723,,,-1,-1,,,,1
w10039584_msc,uglhrbajv3,Nick_Dissertation_EX1,1,8,2020-08-30T16:18:59-07:00,4.7087321281433,4,versionC_stim.csv,READVersionD.csv,"Read Version D","Dissertation, read only version D",LOVE,AFFECTION,Study2,B,115,176,Study,User,-,,Study/JOL,"Study Phase",4218,,,-1,-1,,,,1
w10039584_msc,uglhrbajv3,Nick_Dissertation_EX1,1,9,2020-08-30T16:19:03-07:00,4.1933279037476,4,versionC_stim.csv,READVersionD.csv,"Read Version D","Dissertation, read only version D",SCISSORS,SHEARS,Study2,B,112,143,Study,User,-,,Study/JOL,"Study Phase",3595,,,-1,-1,,,,1
w10039584_msc,uglhrbajv3,Nick_Dissertation_EX1,1,10,2020-08-30T16:19:08-07:00,4.6221079826355,4,versionC_stim.csv,READVersionD.csv,"Read Version D","Dissertation, read only version D",OBTAIN,MEAT,Study2,U,161,136,Study,User,-,,Study/JOL,"Study Phase",3837,,,-1,-1,,,,1
w10039584_msc,uglhrbajv3,Nick_Dissertation_EX1,1,11,2020-08-30T16:19:11-07:00,3.7949240207672,4,versionC_stim.csv,READVersionD.csv,"Read Version D","Dissertation, read only version D",DONKEY,MULE,Study2,B,108,130,Study,User,-,,Study/JOL,"Study Phase",3408,,,-1,-1,,,,1
w10039584_msc,uglhrbajv3,Nick_Dissertation_EX1,1,12,2020-08-30T16:19:15-07:00,3.5035040378571,4,versionC_stim.csv,READVersionD.csv,"Read Version D","Dissertation, read only version D",BRACELET,WRIST,Study2,S,140,175,Study,User,-,,Study/JOL,"Study Phase",3138,,,-1,-1,,,,1
w10039584_msc,uglhrbajv3,Nick_Dissertation_EX1,1,13,2020-08-30T16:19:20-07:00,4.771537065506,4,versionC_stim.csv,READVersionD.csv,"Read Version D","Dissertation, read only version D",FICTION,LISTEN,Study2,U,164,124,Study,User,-,,Study/JOL,"Study Phase",4351,,,-1,-1,,,,1
w10039584_msc,uglhrbajv3,Nick_Dissertation_EX1,1,14,2020-08-30T16:19:22-07:00,2.1134920120239,4,versionC_stim.csv,READVersionD.csv,"Read Version D","Dissertation, read only version D",WET,DRY,Study2,S,146,163,Study,User,-,,Study/JOL,"Study Phase",1669,,,-1,-1,,,,1
w10039584_msc,uglhrbajv3,Nick_Dissertation_EX1,1,15,2020-08-30T16:19:25-07:00,3.2110798358917,4,versionC_stim.csv,READVersionD.csv,"Read Version D","Dissertation, read only version D",TRASH,LITTER,Study2,B,103,138,Study,User,-,,Study/JOL,"Study Phase",2728,,,-1,-1,,,,1
w10039584_msc,uglhrbajv3,Nick_Dissertation_EX1,1,16,2020-08-30T16:19:28-07:00,2.6344001293182,4,versionC_stim.csv,READVersionD.csv,"Read Version D","Dissertation, read only version D",WAX,CANDLE,Study2,S,139,160,Study,User,-,,Study/JOL,"Study Phase",1495,,,-1,-1,,,,1
w10039584_msc,uglhrbajv3,Nick_Dissertation_EX1,1,17,2020-08-30T16:19:30-07:00,2.6341490745544,4,versionC_stim.csv,READVersionD.csv,"Read Version D","Dissertation, read only version D",NOISE,LOUD,Study2,S,152,162,Study,User,-,,Study/JOL,"Study Phase",1895,,,-1,-1,,,,1
w10039584_msc,uglhrbajv3,Nick_Dissertation_EX1,1,18,2020-08-30T16:19:32-07:00,1.8847270011902,4,versionC_stim.csv,READVersionD.csv,"Read Version D","Dissertation, read only version D",TEMPER,TANTRUM,Study2,S,154,104,Study,User,-,,Study/JOL,"Study Phase",1502,,,-1,-1,,,,1
w10039584_msc,uglhrbajv3,Nick_Dissertation_EX1,1,19,2020-08-30T16:19:36-07:00,3.7117369174957,4,versionC_stim.csv,READVersionD.csv,"Read Version D","Dissertation, read only version D",PENGUIN,BIRD,Study2,F,119,158,Study,User,-,,Study/JOL,"Study Phase",3121,,,-1,-1,,,,1
w10039584_msc,uglhrbajv3,Nick_Dissertation_EX1,1,20,2020-08-30T16:19:39-07:00,3.2398240566254,4,versionC_stim.csv,READVersionD.csv,"Read Version D","Dissertation, read only version D",VILLAIN,BAD,Study2,F,118,165,Study,User,-,,Study/JOL,"Study Phase",2598,,,-1,-1,,,,1
w10039584_msc,uglhrbajv3,Nick_Dissertation_EX1,1,21,2020-08-30T16:19:41-07:00,2.2202429771423,4,versionC_stim.csv,READVersionD.csv,"Read Version D","Dissertation, read only version D",SEATBELT,SAFETY,Study2,S,147,131,Study,User,-,,Study/JOL,"Study Phase",1847,,,-1,-1,,,,1
w10039584_msc,uglhrbajv3,Nick_Dissertation_EX1,1,22,2020-08-30T16:19:44-07:00,2.2414429187775,4,versionC_stim.csv,READVersionD.csv,"Read Version D","Dissertation, read only version D",LONG,EXTENSION,Study2,B,96,113,Study,User,-,,Study/JOL,"Study Phase",1819,,,-1,-1,,,,1
w10039584_msc,uglhrbajv3,Nick_Dissertation_EX1,1,23,2020-08-30T16:19:46-07:00,2.7953231334686,4,versionC_stim.csv,READVersionD.csv,"Read Version D","Dissertation, read only version D",ELECTION,MAZE,Study2,U,159,146,Study,User,-,,Study/JOL,"Study Phase",2316,,,-1,-1,,,,1
w10039584_msc,uglhrbajv3,Nick_Dissertation_EX1,1,24,2020-08-30T16:19:49-07:00,2.7087769508362,4,versionC_stim.csv,READVersionD.csv,"Read Version D","Dissertation, read only version D",CLOTH,STRETCH,Study2,U,157,123,Study,User,-,,Study/JOL,"Study Phase",2077,,,-1,-1,,,,1
w10039584_msc,uglhrbajv3,Nick_Dissertation_EX1,1,25,2020-08-30T16:19:51-07:00,2.4117209911346,4,versionC_stim.csv,READVersionD.csv,"Read Version D","Dissertation, read only version D",COMMUNICATION,PHONE,Study2,S,149,133,Study,User,-,,Study/JOL,"Study Phase",1839,,,-1,-1,,,,1
w10039584_msc,uglhrbajv3,Nick_Dissertation_EX1,1,26,2020-08-30T16:19:54-07:00,2.3068239688873,4,versionC_stim.csv,READVersionD.csv,"Read Version D","Dissertation, read only version D",TOIL,LEASE,Study2,U,170,154,Study,User,-,,Study/JOL,"Study Phase",1838,,,-1,-1,,,,1
w10039584_msc,uglhrbajv3,Nick_Dissertation_EX1,1,27,2020-08-30T16:19:56-07:00,2.326199054718,4,versionC_stim.csv,READVersionD.csv,"Read Version D","Dissertation, read only version D",CHARM,VEHICLE,Study2,U,160,108,Study,User,-,,Study/JOL,"Study Phase",1867,,,-1,-1,,,,1
w10039584_msc,uglhrbajv3,Nick_Dissertation_EX1,1,28,2020-08-30T16:19:59-07:00,2.5494058132172,4,versionC_stim.csv,READVersionD.csv,"Read Version D","Dissertation, read only version D",COLD,CHILL,Study2,B,114,116,Study,User,-,,Study/JOL,"Study Phase",2050,,,-1,-1,,,,1
w10039584_msc,uglhrbajv3,Nick_Dissertation_EX1,1,29,2020-08-30T16:20:00-07:00,1.2389500141144,4,versionC_stim.csv,READVersionD.csv,"Read Version D","Dissertation, read only version D",BRAWL,FIGHT,Study2,F,135,144,Study,User,-,,Study/JOL,"Study Phase",742,,,-1,-1,,,,1
w10039584_msc,uglhrbajv3,Nick_Dissertation_EX1,1,30,2020-08-30T16:20:02-07:00,2.277202129364,4,versionC_stim.csv,READVersionD.csv,"Read Version D","Dissertation, read only version D",TAN,SUN,Study2,S,155,99,Study,User,-,,Study/JOL,"Study Phase",1761,,,-1,-1,,,,1
w10039584_msc,uglhrbajv3,Nick_Dissertation_EX1,1,31,2020-08-30T16:20:05-07:00,2.4402890205383,4,versionC_stim.csv,READVersionD.csv,"Read Version D","Dissertation, read only version D",EQUAL,RIGHTS,Study2,S,137,148,Study,User,-,,Study/JOL,"Study Phase",2046,,,-1,-1,,,,1
w10039584_msc,uglhrbajv3,Nick_Dissertation_EX1,1,32,2020-08-30T16:20:06-07:00,1.8196458816528,4,versionC_stim.csv,READVersionD.csv,"Read Version D","Dissertation, read only version D",CUT,CHOP,Study2,B,107,167,Study,User,-,,Study/JOL,"Study Phase",1448,,,-1,-1,,,,1
w10039584_msc,uglhrbajv3,Nick_Dissertation_EX1,1,33,2020-08-30T16:20:08-07:00,1.9139189720154,4,versionC_stim.csv,READVersionD.csv,"Read Version D","Dissertation, read only version D",PAPER,DOCUMENT,Study2,B,109,106,Study,User,-,,Study/JOL,"Study Phase",1532,,,-1,-1,,,,1
w10039584_msc,uglhrbajv3,Nick_Dissertation_EX1,1,34,2020-08-30T16:20:10-07:00,2.1247560977936,4,versionC_stim.csv,READVersionD.csv,"Read Version D","Dissertation, read only version D",TICK,FLEA,Study2,S,151,137,Study,User,-,,Study/JOL,"Study Phase",1670,,,-1,-1,,,,1
w10039584_msc,uglhrbajv3,Nick_Dissertation_EX1,1,35,2020-08-30T16:20:12-07:00,1.9442200660706,4,versionC_stim.csv,READVersionD.csv,"Read Version D","Dissertation, read only version D",REEL,ROD,Study2,S,150,155,Study,User,-,,Study/JOL,"Study Phase",1476,,,-1,-1,,,,1
w10039584_msc,uglhrbajv3,Nick_Dissertation_EX1,1,36,2020-08-30T16:20:14-07:00,1.8001079559326,4,versionC_stim.csv,READVersionD.csv,"Read Version D","Dissertation, read only version D",SMELL,INCENSE,Study2,B,110,150,Study,User,-,,Study/JOL,"Study Phase",1344,,,-1,-1,,,,1
w10039584_msc,uglhrbajv3,Nick_Dissertation_EX1,1,37,2020-08-30T16:20:21-07:00,6.9175639152527,4,versionC_stim.csv,READVersionD.csv,"Read Version D","Dissertation, read only version D",Morning,TEMPERATURE,Study2,U,173,151,Study,User,-,,Study/JOL,"Study Phase",6318,,,-1,-1,,,,1
w10039584_msc,uglhrbajv3,Nick_Dissertation_EX1,1,38,2020-08-30T16:20:24-07:00,3.083074092865,4,versionC_stim.csv,READVersionD.csv,"Read Version D","Dissertation, read only version D",BANKER,MONEY,Study2,F,132,121,Study,User,-,,Study/JOL,"Study Phase",2666,,,-1,-1,,,,1
w10039584_msc,uglhrbajv3,Nick_Dissertation_EX1,1,39,2020-08-30T16:20:26-07:00,2.2408490180969,4,versionC_stim.csv,READVersionD.csv,"Read Version D","Dissertation, read only version D",EAT,DINE,Study2,B,111,145,Study,User,-,,Study/JOL,"Study Phase",1815,,,-1,-1,,,,1
w10039584_msc,uglhrbajv3,Nick_Dissertation_EX1,1,40,2020-08-30T16:20:28-07:00,1.6113450527191,4,versionC_stim.csv,READVersionD.csv,"Read Version D","Dissertation, read only version D",NAP,SLEEP,Study2,F,134,172,Study,User,-,,Study/JOL,"Study Phase",1191,,,-1,-1,,,,1
w10039584_msc,uglhrbajv3,Nick_Dissertation_EX1,1,41,2020-08-30T16:20:30-07:00,1.7571427822113,4,versionC_stim.csv,READVersionD.csv,"Read Version D","Dissertation, read only version D",SCAR,MAIN,Study2,U,175,122,Study,User,-,,Study/JOL,"Study Phase",1122,,,-1,-1,,,,1
w10039584_msc,uglhrbajv3,Nick_Dissertation_EX1,1,42,2020-08-30T16:20:31-07:00,1.5260291099548,4,versionC_stim.csv,READVersionD.csv,"Read Version D","Dissertation, read only version D",HEAD,SCALP,Study2,B,105,169,Study,User,-,,Study/JOL,"Study Phase",1113,,,-1,-1,,,,1
w10039584_msc,uglhrbajv3,Nick_Dissertation_EX1,1,43,2020-08-30T16:20:33-07:00,2.1780819892883,4,versionC_stim.csv,READVersionD.csv,"Read Version D","Dissertation, read only version D",REVENGE,EVEN,Study2,F,122,102,Study,User,-,,Study/JOL,"Study Phase",1599,,,-1,-1,,,,1
w10039584_msc,uglhrbajv3,Nick_Dissertation_EX1,1,44,2020-08-30T16:20:35-07:00,1.5298109054565,4,versionC_stim.csv,READVersionD.csv,"Read Version D","Dissertation, read only version D",SIGN,LOAN,Study2,U,171,152,Study,User,-,,Study/JOL,"Study Phase",1113,,,-1,-1,,,,1
w10039584_msc,uglhrbajv3,Nick_Dissertation_EX1,1,45,2020-08-30T16:20:37-07:00,1.8763530254364,4,versionC_stim.csv,READVersionD.csv,"Read Version D","Dissertation, read only version D",MYSTERY,DETECTIVE,Study2,B,100,142,Study,User,-,,Study/JOL,"Study Phase",1447,,,-1,-1,,,,1
w10039584_msc,uglhrbajv3,Nick_Dissertation_EX1,1,46,2020-08-30T16:20:38-07:00,1.5715219974518,4,versionC_stim.csv,READVersionD.csv,"Read Version D","Dissertation, read only version D",COFFIN,DEAD,Study2,F,128,125,Study,User,-,,Study/JOL,"Study Phase",1180,,,-1,-1,,,,1
w10039584_msc,uglhrbajv3,Nick_Dissertation_EX1,1,47,2020-08-30T16:20:40-07:00,1.1171450614929,4,versionC_stim.csv,READVersionD.csv,"Read Version D","Dissertation, read only version D",ACTRESS,STAR,Study2,F,120,119,Study,User,-,,Study/JOL,"Study Phase",633,,,-1,-1,,,,1
w10039584_msc,uglhrbajv3,Nick_Dissertation_EX1,1,48,2020-08-30T16:20:41-07:00,1.8281269073486,4,versionC_stim.csv,READVersionD.csv,"Read Version D","Dissertation, read only version D",MAROON,JUSTICE,Study2,U,156,132,Study,User,-,,Study/JOL,"Study Phase",1379,,,-1,-1,,,,1
w10039584_msc,uglhrbajv3,Nick_Dissertation_EX1,1,49,2020-08-30T16:20:43-07:00,2.0223240852356,4,versionC_stim.csv,READVersionD.csv,"Read Version D","Dissertation, read only version D",OUNCE,BOTH,Study2,U,172,174,Study,User,-,,Study/JOL,"Study Phase",1549,,,-1,-1,,,,1
w10039584_msc,uglhrbajv3,Nick_Dissertation_EX1,1,50,2020-08-30T16:20:47-07:00,3.4789850711823,4,versionC_stim.csv,READVersionD.csv,"Read Version D","Dissertation, read only version D",LEAGUE,BASEBALL,Study2,F,131,170,Study,User,-,,Study/JOL,"Study Phase",3035,,,-1,-1,,,,1
w10039584_msc,uglhrbajv3,Nick_Dissertation_EX1,1,51,2020-08-30T16:20:48-07:00,1.4019758701324,4,versionC_stim.csv,READVersionD.csv,"Read Version D","Dissertation, read only version D",RED,CHERRY,Study2,B,104,109,Study,User,-,,Study/JOL,"Study Phase",1045,,,-1,-1,,,,1
w10039584_msc,uglhrbajv3,Nick_Dissertation_EX1,1,52,2020-08-30T16:20:50-07:00,1.294538974762,4,versionC_stim.csv,READVersionD.csv,"Read Version D","Dissertation, read only version D",ABLE,CRACKLE,Study2,U,162,118,Study,User,-,,Study/JOL,"Study Phase",907,,,-1,-1,,,,1
w10039584_msc,uglhrbajv3,Nick_Dissertation_EX1,1,53,2020-08-30T16:20:52-07:00,2.2824862003326,4,versionC_stim.csv,READVersionD.csv,"Read Version D","Dissertation, read only version D",JOKE,KEYS,Study2,U,165,134,Study,User,-,,Study/JOL,"Study Phase",1451,,,-1,-1,,,,1
w10039584_msc,uglhrbajv3,Nick_Dissertation_EX1,1,54,2020-08-30T16:20:54-07:00,1.7033488750458,4,versionC_stim.csv,READVersionD.csv,"Read Version D","Dissertation, read only version D",TIE,SHOELACE,Study2,B,99,173,Study,User,-,,Study/JOL,"Study Phase",1089,,,-1,-1,,,,1
w10039584_msc,uglhrbajv3,Nick_Dissertation_EX1,1,55,2020-08-30T16:20:56-07:00,1.9043891429901,4,versionC_stim.csv,READVersionD.csv,"Read Version D","Dissertation, read only version D",CARBON,ELEMENT,Study2,S,141,117,Study,User,-,,Study/JOL,"Study Phase",1298,,,-1,-1,,,,1
w10039584_msc,uglhrbajv3,Nick_Dissertation_EX1,1,56,2020-08-30T16:20:57-07:00,1.8082919120789,4,versionC_stim.csv,READVersionD.csv,"Read Version D","Dissertation, read only version D",DRINK,WATER,Study2,S,143,164,Study,User,-,,Study/JOL,"Study Phase",1253,,,-1,-1,,,,1
w10039584_msc,uglhrbajv3,Nick_Dissertation_EX1,1,57,2020-08-30T16:20:59-07:00,1.2246060371399,4,versionC_stim.csv,READVersionD.csv,"Read Version D","Dissertation, read only version D",CAR,DRIVER,Study2,B,106,97,Study,User,-,,Study/JOL,"Study Phase",852,,,-1,-1,,,,1
w10039584_msc,uglhrbajv3,Nick_Dissertation_EX1,1,58,2020-08-30T16:21:00-07:00,1.3741369247437,4,versionC_stim.csv,READVersionD.csv,"Read Version D","Dissertation, read only version D",PLANT,CACTUS,Study2,B,98,129,Study,User,-,,Study/JOL,"Study Phase",879,,,-1,-1,,,,1
w10039584_msc,uglhrbajv3,Nick_Dissertation_EX1,1,59,2020-08-30T16:21:01-07:00,1.4339299201965,4,versionC_stim.csv,READVersionD.csv,"Read Version D","Dissertation, read only version D",CLOTHES,CAKE,Study2,U,166,110,Study,User,-,,Study/JOL,"Study Phase",984,,,-1,-1,,,,1
w10039584_msc,uglhrbajv3,Nick_Dissertation_EX1,1,60,2020-08-30T16:21:03-07:00,1.372328042984,4,versionC_stim.csv,READVersionD.csv,"Read Version D","Dissertation, read only version D",CHILDREN,MIRROR,Study2,U,174,105,Study,User,-,,Study/JOL,"Study Phase",834,,,-1,-1,,,,1
w10039584_msc,uglhrbajv3,Nick_Dissertation_EX1,1,61,2020-08-30T16:21:07-07:00,3.8003439903259,4,versionC_stim.csv,READVersionD.csv,"Read Version D","Dissertation, read only version D",SHAVE,RAZOR,Study2,S,136,114,Study,User,-,,Study/JOL,"Study Phase",3282,,,-1,-1,,,,1
w10039584_msc,uglhrbajv3,Nick_Dissertation_EX1,1,62,2020-08-30T16:21:09-07:00,2.3597280979156,4,versionC_stim.csv,READVersionD.csv,"Read Version D","Dissertation, read only version D",SARDINE,FISH,Study2,F,130,111,Study,User,-,,Study/JOL,"Study Phase",1960,,,-1,-1,,,,1
w10039584_msc,uglhrbajv3,Nick_Dissertation_EX1,1,63,2020-08-30T16:21:13-07:00,3.8686420917511,4,versionC_stim.csv,READVersionD.csv,"Read Version D","Dissertation, read only version D",STEAK,GIVE,Study2,U,158,157,Study,User,-,,Study/JOL,"Study Phase",3383,,,-1,-1,,,,1
w10039584_msc,uglhrbajv3,Nick_Dissertation_EX1,1,64,2020-08-30T16:21:15-07:00,2.1323599815369,4,versionC_stim.csv,READVersionD.csv,"Read Version D","Dissertation, read only version D",HAVE,OWN,Study2,S,153,128,Study,User,-,,Study/JOL,"Study Phase",1533,,,-1,-1,,,,1
w10039584_msc,uglhrbajv3,Nick_Dissertation_EX1,1,65,2020-08-30T16:21:17-07:00,2.3095669746399,4,versionC_stim.csv,READVersionD.csv,"Read Version D","Dissertation, read only version D",BALLOON,POP,Study2,F,123,126,Study,User,-,,Study/JOL,"Study Phase",1920,,,-1,-1,,,,1
w10039584_msc,uglhrbajv3,Nick_Dissertation_EX1,1,66,2020-08-30T16:21:19-07:00,2.2002129554749,4,versionC_stim.csv,READVersionD.csv,"Read Version D","Dissertation, read only version D",AWAY,GONE,Study2,S,142,112,Study,User,-,,Study/JOL,"Study Phase",1815,,,-1,-1,,,,1
w10039584_msc,uglhrbajv3,Nick_Dissertation_EX1,1,67,2020-08-30T16:21:21-07:00,1.5963580608368,4,versionC_stim.csv,READVersionD.csv,"Read Version D","Dissertation, read only version D",HATE,NAME,Study2,U,167,100,Study,User,-,,Study/JOL,"Study Phase",1230,,,-1,-1,,,,1
w10039584_msc,uglhrbajv3,Nick_Dissertation_EX1,1,68,2020-08-30T16:21:23-07:00,2.0392429828644,4,versionC_stim.csv,READVersionD.csv,"Read Version D","Dissertation, read only version D",FIGHT,FEUD,Study2,B,113,120,Study,User,-,,Study/JOL,"Study Phase",1684,,,-1,-1,,,,1
w10039584_msc,uglhrbajv3,Nick_Dissertation_EX1,1,69,2020-08-30T16:21:25-07:00,1.7201960086823,4,versionC_stim.csv,READVersionD.csv,"Read Version D","Dissertation, read only version D",AIRCRAFT,PLANE,Study2,F,129,139,Study,User,-,,Study/JOL,"Study Phase",1130,,,-1,-1,,,,1
w10039584_msc,uglhrbajv3,Nick_Dissertation_EX1,1,70,2020-08-30T16:21:27-07:00,1.8317368030548,4,versionC_stim.csv,READVersionD.csv,"Read Version D","Dissertation, read only version D",JAR,MASON,Study2,S,138,171,Study,User,-,,Study/JOL,"Study Phase",1253,,,-1,-1,,,,1
w10039584_msc,uglhrbajv3,Nick_Dissertation_EX1,1,71,2020-08-30T16:21:29-07:00,2.4861440658569,4,versionC_stim.csv,READVersionD.csv,"Read Version D","Dissertation, read only version D",FAVORITE,BEST,Study2,F,125,166,Study,User,-,,Study/JOL,"Study Phase",1788,,,-1,-1,,,,1
w10039584_msc,uglhrbajv3,Nick_Dissertation_EX1,1,72,2020-08-30T16:21:30-07:00,1.1590671539307,4,versionC_stim.csv,READVersionD.csv,"Read Version D","Dissertation, read only version D",CLEAR,MOAT,Study2,U,169,168,Study,User,-,,Study/JOL,"Study Phase",803,,,-1,-1,,,,1
w10039584_msc,uglhrbajv3,Nick_Dissertation_EX1,1,73,2020-08-30T16:21:31-07:00,1.1672189235687,4,versionC_stim.csv,READVersionD.csv,"Read Version D","Dissertation, read only version D",SHAKE,Shell,Study2,U,163,103,Study,User,-,,Study/JOL,"Study Phase",638,,,-1,-1,,,,1
w10039584_msc,uglhrbajv3,Nick_Dissertation_EX1,1,74,2020-08-30T16:21:33-07:00,1.3889310359955,4,versionC_stim.csv,READVersionD.csv,"Read Version D","Dissertation, read only version D",THIMBLE,THREAD,Study2,F,121,135,Study,User,-,,Study/JOL,"Study Phase",799,,,-1,-1,,,,1
w10039584_msc,uglhrbajv3,Nick_Dissertation_EX1,1,75,2020-08-30T16:21:34-07:00,1.1420738697052,4,versionC_stim.csv,READVersionD.csv,"Read Version D","Dissertation, read only version D",BANG,FUZZY,Study2,U,168,101,Study,User,-,,Study/JOL,"Study Phase",511,,,-1,-1,,,,1
w10039584_msc,uglhrbajv3,Nick_Dissertation_EX1,1,76,2020-08-30T16:21:36-07:00,1.7132790088654,4,versionC_stim.csv,READVersionD.csv,"Read Version D","Dissertation, read only version D",LIE,TRUTH,Study2,S,148,107,Study,User,-,,Study/JOL,"Study Phase",743,,,-1,-1,,,,1
w10039584_msc,uglhrbajv3,Nick_Dissertation_EX1,1,77,2020-08-30T16:21:37-07:00,1.4808430671692,4,versionC_stim.csv,READVersionD.csv,"Read Version D","Dissertation, read only version D",TRUTHFUL,HONEST,Study2,F,133,159,Study,User,-,,Study/JOL,"Study Phase",935,,,-1,-1,,,,1
w10039584_msc,uglhrbajv3,Nick_Dissertation_EX1,1,78,2020-08-30T16:21:38-07:00,1.1441950798035,4,versionC_stim.csv,READVersionD.csv,"Read Version D","Dissertation, read only version D",STRAWBERRY,FRUIT,Study2,F,124,140,Study,User,-,,Study/JOL,"Study Phase",820,,,-1,-1,,,,1
w10039584_msc,uglhrbajv3,Nick_Dissertation_EX1,1,79,2020-08-30T16:21:40-07:00,1.4807078838348,4,versionC_stim.csv,READVersionD.csv,"Read Version D","Dissertation, read only version D",FLIP,TURN,Study2,F,116,153,Study,User,-,,Study/JOL,"Study Phase",755,,,-1,-1,,,,1
w10039584_msc,uglhrbajv3,Nick_Dissertation_EX1,1,80,2020-08-30T16:21:41-07:00,1.0578460693359,4,versionC_stim.csv,READVersionD.csv,"Read Version D","Dissertation, read only version D",DOG,FURRY,Study2,B,102,149,Study,User,-,,Study/JOL,"Study Phase",505,,,-1,-1,,,,1
w10039584_msc,uglhrbajv3,Nick_Dissertation_EX1,1,81,2020-08-30T16:21:42-07:00,1.3130118846893,4,versionC_stim.csv,READVersionD.csv,"Read Version D","Dissertation, read only version D",GROUND,EARTH,Study2,S,144,147,Study,User,-,,Study/JOL,"Study Phase",475,,,-1,-1,,,,1
w10039584_msc,uglhrbajv3,Nick_Dissertation_EX1,1,82,2020-08-30T16:21:43-07:00,0.96521711349487,4,versionC_stim.csv,READVersionD.csv,"Read Version D","Dissertation, read only version D",BREAKABLE,GLASS,Study2,F,127,141,Study,User,-,,Study/JOL,"Study Phase",450,,,-1,-1,,,,1
w10039584_msc,uglhrbajv3,Nick_Dissertation_EX1,1,83,2020-08-30T16:21:45-07:00,2.1158149242401,4,versionC_stim.csv,READVersionD.csv,"Read Version D","Dissertation, read only version D",WINDSHIELD,CAR,Study2,F,117,161,Study,User,-,,Study/JOL,"Study Phase",1676,,,-1,-1,,,,1
w10039584_msc,uglhrbajv3,Nick_Dissertation_EX1,1,84,2020-08-30T16:21:47-07:00,2.0369470119476,4,versionC_stim.csv,READVersionD.csv,"Read Version D","Dissertation, read only version D",END,ADJOURN,Study2,B,101,127,Study,User,-,,Study/JOL,"Study Phase",1613,,,-1,-1,,,,1
w10039584_msc,uglhrbajv3,Nick_Dissertation_EX1,1,85,2020-08-30T16:21:48-07:00,1.0113399028778,4,versionC_stim.csv,READVersionD.csv,"Read Version D","Dissertation, read only version D",GAME,CLUE,Study2,B,97,115,Study,User,-,,Study/JOL,"Study Phase",665,,,-1,-1,,,,1
w10039584_msc,uglhrbajv3,Nick_Dissertation_EX1,1,86,2020-08-30T16:21:50-07:00,2.1420910358429,4,versionC_stim.csv,READVersionD.csv,"Read Version D","Dissertation, read only version D",LONELY,ALONE,Study2,S,145,156,Study,User,-,,Study/JOL,"Study Phase",1703,,,-1,-1,,,,1
w10039584_msc,uglhrbajv3,Nick_Dissertation_EX1,1,87,2020-08-30T16:21:51-07:00,0.95451617240906,4,versionC_stim.csv,READVersionD.csv,"Read Version D","Dissertation, read only version D",SPOOKY,OCTOBER,BUFFER4,Buffer,180,179,Study,User,-,,Study/JOL,BUFFER2,529,,,-1,-1,,,,1
w10039584_msc,uglhrbajv3,Nick_Dissertation_EX1,1,88,2020-08-30T16:21:53-07:00,1.3816018104553,4,versionC_stim.csv,READVersionD.csv,"Read Version D","Dissertation, read only version D",YEAR,MONTH,BUFFER4,Buffer,177,178,Study,User,-,,Study/JOL,BUFFER2,960,,,-1,-1,,,,1
w10039584_msc,uglhrbajv3,Nick_Dissertation_EX1,1,89,2020-08-30T16:21:54-07:00,0.87403106689453,4,versionC_stim.csv,READVersionD.csv,"Read Version D","Dissertation, read only version D",MARCH,SPRING,BUFFER4,Buffer,179,181,Study,User,-,,Study/JOL,BUFFER2,495,,,-1,-1,,,,1
w10039584_msc,uglhrbajv3,Nick_Dissertation_EX1,1,90,2020-08-30T16:21:55-07:00,1.461480140686,4,versionC_stim.csv,READVersionD.csv,"Read Version D","Dissertation, read only version D",WEAKS,DAYS,BUFFER4,Buffer,176,180,Study,User,-,,Study/JOL,BUFFER2,480,,,-1,-1,,,,1
w10039584_msc,uglhrbajv3,Nick_Dissertation_EX1,1,91,2020-08-30T16:21:56-07:00,1.3350069522858,4,versionC_stim.csv,READVersionD.csv,"Read Version D","Dissertation, read only version D",SHED,TOOL,BUFFER4,Buffer,178,177,Study,User,-,,Study/JOL,BUFFER2,860,,,-1,-1,,,,1
w10039584_msc,uglhrbajv3,Nick_Dissertation_EX1,1,92,2020-08-30T16:22:01-07:00,4.2913219928741,4,versionC_stim.csv,READVersionD.csv,"Read Version D","Dissertation, read only version D",,,,,,0,Instruct,User,-,"You have completed this section. Please press Enter.",Filler_Instruction,Instruct2,3682,,,-1,-1,,,,1
w10039584_msc,uglhrbajv3,Nick_Dissertation_EX1,1,93,2020-08-30T16:24:01-07:00,120.59169697762,4,versionC_stim.csv,READVersionD.csv,"Read Version D","Dissertation, read only version D",,,,,,0,FreeRecall,120,120,"Please list the 50 US states in alphabetical order. The task will automatically advance to the next screen after two minutes.",,Filler1,120003,"Alabama Arkansas Alaska Colorado Connecticut Delaware Florida Georgia ",0,15372,116282,0,0,,1
w10039584_msc,uglhrbajv3,Nick_Dissertation_EX1,1,94,2020-08-30T16:24:20-07:00,18.763325929642,4,versionC_stim.csv,READVersionD.csv,"Read Version D","Dissertation, read only version D",,,,,,0,Instruct,-,10,"You will now be presented with the first word from each of the previously studied item pairs. Please type the missing word. If you do not know the word, you may guess or press Enter to skip forward to the next pair.",,Instruct3,17935,,,-1,-1,,,,1
w10039584_msc,uglhrbajv3,Nick_Dissertation_EX1,1,95,2020-08-30T16:24:26-07:00,5.8975780010223,4,versionC_stim.csv,READVersionD.csv,"Read Version D","Dissertation, read only version D",EAT,DINE,Study2,B,111,145,Test,User,-,,Recall,Recall1,5253,"dine ",100,4644,5080,1,1,,1
w10039584_msc,uglhrbajv3,Nick_Dissertation_EX1,1,96,2020-08-30T16:24:33-07:00,6.8542561531067,4,versionC_stim.csv,READVersionD.csv,"Read Version D","Dissertation, read only version D",THIMBLE,THREAD,Study2,F,121,135,Test,User,-,,Recall,Recall1,6409,,0,-1,-1,0,0,,1
w10039584_msc,uglhrbajv3,Nick_Dissertation_EX1,1,97,2020-08-30T16:24:37-07:00,4.5718288421631,4,versionC_stim.csv,READVersionD.csv,"Read Version D","Dissertation, read only version D",TEMPER,TANTRUM,Study2,S,154,104,Test,User,-,,Recall,Recall1,4147,tantrum,100,1423,3305,1,1,,1
w10039584_msc,uglhrbajv3,Nick_Dissertation_EX1,1,98,2020-08-30T16:24:52-07:00,15.015149116516,4,versionC_stim.csv,READVersionD.csv,"Read Version D","Dissertation, read only version D",LONELY,ALONE,Study2,S,145,156,Test,User,-,,Recall,Recall1,14646,,0,-1,-1,0,0,,1
w10039584_msc,uglhrbajv3,Nick_Dissertation_EX1,1,99,2020-08-30T16:24:57-07:00,4.3546149730682,4,versionC_stim.csv,READVersionD.csv,"Read Version D","Dissertation, read only version D",TAN,SUN,Study2,S,155,99,Test,User,-,,Recall,Recall1,3989,"man ",33.333333333333,3529,3879,0,0,,1
w10039584_msc,uglhrbajv3,Nick_Dissertation_EX1,1,100,2020-08-30T16:25:01-07:00,4.1453440189362,4,versionC_stim.csv,READVersionD.csv,"Read Version D","Dissertation, read only version D",SMELL,INCENSE,Study2,B,110,150,Test,User,-,,Recall,Recall1,3675,sense,66.666666666667,2782,3564,0,0,,1
w10039584_msc,uglhrbajv3,Nick_Dissertation_EX1,1,101,2020-08-30T16:25:06-07:00,5.578351020813,4,versionC_stim.csv,READVersionD.csv,"Read Version D","Dissertation, read only version D",TIE,SHOELACE,Study2,B,99,173,Test,User,-,,Recall,Recall1,5200,lie,36.363636363636,4800,5066,0,0,,1
w10039584_msc,uglhrbajv3,Nick_Dissertation_EX1,1,102,2020-08-30T16:25:20-07:00,13.777086019516,4,versionC_stim.csv,READVersionD.csv,"Read Version D","Dissertation, read only version D",OUNCE,BOTH,Study2,U,172,174,Test,User,-,,Recall,Recall1,13341,,0,-1,-1,0,0,,1
w10039584_msc,uglhrbajv3,Nick_Dissertation_EX1,1,103,2020-08-30T16:25:34-07:00,14.040791988373,4,versionC_stim.csv,READVersionD.csv,"Read Version D","Dissertation, read only version D",STRAWBERRY,FRUIT,Study2,F,124,140,Test,User,-,,Recall,Recall1,13650,"fruit ",100,12959,13505,1,1,,1
w10039584_msc,uglhrbajv3,Nick_Dissertation_EX1,1,104,2020-08-30T16:25:40-07:00,5.9801278114319,4,versionC_stim.csv,READVersionD.csv,"Read Version D","Dissertation, read only version D",PLANT,CACTUS,Study2,B,98,129,Test,User,-,,Recall,Recall1,5434,"shrub ",18.181818181818,2072,5234,0,0,,1
w10039584_msc,uglhrbajv3,Nick_Dissertation_EX1,1,105,2020-08-30T16:25:46-07:00,6.1494681835175,4,versionC_stim.csv,READVersionD.csv,"Read Version D","Dissertation, read only version D",OBTAIN,MEAT,Study2,U,161,136,Test,User,-,,Recall,Recall1,5670,"meat ",100,1720,5372,1,1,,1
w10039584_msc,uglhrbajv3,Nick_Dissertation_EX1,1,106,2020-08-30T16:25:51-07:00,4.3428239822388,4,versionC_stim.csv,READVersionD.csv,"Read Version D","Dissertation, read only version D",MYSTERY,DETECTIVE,Study2,B,100,142,Test,User,-,,Recall,Recall1,3765,"solved ",26.666666666667,2867,3645,0,0,,1
w10039584_msc,uglhrbajv3,Nick_Dissertation_EX1,1,107,2020-08-30T16:25:59-07:00,8.3680868148804,4,versionC_stim.csv,READVersionD.csv,"Read Version D","Dissertation, read only version D",CUT,CHOP,Study2,B,107,167,Test,User,-,,Recall,Recall1,7810,"nut ",0,1258,7603,0,0,,1
w10039584_msc,uglhrbajv3,Nick_Dissertation_EX1,1,108,2020-08-30T16:26:03-07:00,3.4885730743408,4,versionC_stim.csv,READVersionD.csv,"Read Version D","Dissertation, read only version D",SHAKE,Shell,Study2,U,163,103,Test,User,-,,Recall,Recall1,3007,"it ",0,2733,2884,0,0,,1
w10039584_msc,uglhrbajv3,Nick_Dissertation_EX1,1,109,2020-08-30T16:26:07-07:00,4.7245650291443,4,versionC_stim.csv,READVersionD.csv,"Read Version D","Dissertation, read only version D",STEAK,GIVE,Study2,U,158,157,Test,User,-,,Recall,Recall1,4356,meat,25,3770,4196,0,0,,1
w10039584_msc,uglhrbajv3,Nick_Dissertation_EX1,1,110,2020-08-30T16:26:11-07:00,3.3031470775604,4,versionC_stim.csv,READVersionD.csv,"Read Version D","Dissertation, read only version D",SIGN,LOAN,Study2,U,171,152,Test,User,-,,Recall,Recall1,2793,"off ",28.571428571429,2316,2655,0,0,,1
w10039584_msc,uglhrbajv3,Nick_Dissertation_EX1,1,111,2020-08-30T16:26:16-07:00,5.2451548576355,4,versionC_stim.csv,READVersionD.csv,"Read Version D","Dissertation, read only version D",COMMUNICATION,PHONE,Study2,S,149,133,Test,User,-,,Recall,Recall1,4783,,0,-1,-1,0,0,,1
w10039584_msc,uglhrbajv3,Nick_Dissertation_EX1,1,112,2020-08-30T16:26:22-07:00,5.7073600292206,4,versionC_stim.csv,READVersionD.csv,"Read Version D","Dissertation, read only version D",NOISE,LOUD,Study2,S,152,162,Test,User,-,,Recall,Recall1,5309,"loud ",100,4505,5172,1,1,,1
w10039584_msc,uglhrbajv3,Nick_Dissertation_EX1,1,113,2020-08-30T16:26:27-07:00,5.0954370498657,4,versionC_stim.csv,READVersionD.csv,"Read Version D","Dissertation, read only version D",JOKE,KEYS,Study2,U,165,134,Test,User,-,,Recall,Recall1,4674,"laugh ",0,4005,4556,0,0,,1
w10039584_msc,uglhrbajv3,Nick_Dissertation_EX1,1,114,2020-08-30T16:26:30-07:00,2.9050290584564,4,versionC_stim.csv,READVersionD.csv,"Read Version D","Dissertation, read only version D",NAP,SLEEP,Study2,F,134,172,Test,User,-,,Recall,Recall1,2459,"sleep ",100,1665,2265,1,1,,1
w10039584_msc,uglhrbajv3,Nick_Dissertation_EX1,1,115,2020-08-30T16:26:32-07:00,2.2518818378448,4,versionC_stim.csv,READVersionD.csv,"Read Version D","Dissertation, read only version D",CHILDREN,MIRROR,Study2,U,174,105,Test,User,-,,Recall,Recall1,1856,kids,20,1087,1474,0,0,,1
w10039584_msc,uglhrbajv3,Nick_Dissertation_EX1,1,116,2020-08-30T16:26:37-07:00,5.0316591262817,4,versionC_stim.csv,READVersionD.csv,"Read Version D","Dissertation, read only version D",ABLE,CRACKLE,Study2,U,162,118,Test,User,-,,Recall,Recall1,4547,"table ",50,3727,4424,0,0,,1
w10039584_msc,uglhrbajv3,Nick_Dissertation_EX1,1,117,2020-08-30T16:26:46-07:00,8.7484910488129,4,versionC_stim.csv,READVersionD.csv,"Read Version D","Dissertation, read only version D",BANKER,MONEY,Study2,F,132,121,Test,User,-,,Recall,Recall1,8231,"cash ",0,3828,4778,0,0,,1
w10039584_msc,uglhrbajv3,Nick_Dissertation_EX1,1,118,2020-08-30T16:26:49-07:00,2.9519789218903,4,versionC_stim.csv,READVersionD.csv,"Read Version D","Dissertation, read only version D",CARBON,ELEMENT,Study2,S,141,117,Test,User,-,,Recall,Recall1,2567,"dioxide ",14.285714285714,1326,2411,0,0,,1
w10039584_msc,uglhrbajv3,Nick_Dissertation_EX1,1,119,2020-08-30T16:26:54-07:00,5.6078810691833,4,versionC_stim.csv,READVersionD.csv,"Read Version D","Dissertation, read only version D",AWAY,GONE,Study2,S,142,112,Test,User,-,,Recall,Recall1,5152,towards,18.181818181818,4049,4994,0,0,,1
w10039584_msc,uglhrbajv3,Nick_Dissertation_EX1,1,120,2020-08-30T16:26:59-07:00,4.7763948440552,4,versionC_stim.csv,READVersionD.csv,"Read Version D","Dissertation, read only version D",COLD,CHILL,Study2,B,114,116,Test,User,-,,Recall,Recall1,4243,hot,25,1731,4092,0,0,,1
w10039584_msc,uglhrbajv3,Nick_Dissertation_EX1,1,121,2020-08-30T16:27:02-07:00,2.9754021167755,4,versionC_stim.csv,READVersionD.csv,"Read Version D","Dissertation, read only version D",LONG,EXTENSION,Study2,B,96,113,Test,User,-,,Recall,Recall1,2570,"short ",28.571428571429,1922,2447,0,0,,1
w10039584_msc,uglhrbajv3,Nick_Dissertation_EX1,1,122,2020-08-30T16:27:04-07:00,2.3520340919495,4,versionC_stim.csv,READVersionD.csv,"Read Version D","Dissertation, read only version D",SHAVE,RAZOR,Study2,S,136,114,Test,User,-,,Recall,Recall1,1769,legs,0,1193,1577,0,0,,1
w10039584_msc,uglhrbajv3,Nick_Dissertation_EX1,1,123,2020-08-30T16:27:08-07:00,4.0883688926697,4,versionC_stim.csv,READVersionD.csv,"Read Version D","Dissertation, read only version D",FIGHT,FEUD,Study2,B,113,120,Test,User,-,,Recall,Recall1,3699,"me ",33.333333333333,3147,3319,0,0,,1
w10039584_msc,uglhrbajv3,Nick_Dissertation_EX1,1,124,2020-08-30T16:27:12-07:00,3.3909230232239,4,versionC_stim.csv,READVersionD.csv,"Read Version D","Dissertation, read only version D",CAR,DRIVER,Study2,B,106,97,Test,User,-,,Recall,Recall1,2964,"go ",0,2579,2804,0,0,,1
w10039584_msc,uglhrbajv3,Nick_Dissertation_EX1,1,125,2020-08-30T16:27:18-07:00,6.5677850246429,4,versionC_stim.csv,READVersionD.csv,"Read Version D","Dissertation, read only version D",COFFIN,DEAD,Study2,F,128,125,Test,User,-,,Recall,Recall1,6024,"dead ",100,2335,5832,1,1,,1
w10039584_msc,uglhrbajv3,Nick_Dissertation_EX1,1,126,2020-08-30T16:27:23-07:00,4.6941409111023,4,versionC_stim.csv,READVersionD.csv,"Read Version D","Dissertation, read only version D",HAVE,OWN,Study2,S,153,128,Test,User,-,,Recall,Recall1,4218,,0,-1,-1,0,0,,1
w10039584_msc,uglhrbajv3,Nick_Dissertation_EX1,1,127,2020-08-30T16:27:27-07:00,3.8700709342957,4,versionC_stim.csv,READVersionD.csv,"Read Version D","Dissertation, read only version D",TICK,FLEA,Study2,S,151,137,Test,User,-,,Recall,Recall1,3457,flea,100,1482,2135,1,1,,1
w10039584_msc,uglhrbajv3,Nick_Dissertation_EX1,1,128,2020-08-30T16:27:30-07:00,3.3056252002716,4,versionC_stim.csv,READVersionD.csv,"Read Version D","Dissertation, read only version D",LEAGUE,BASEBALL,Study2,F,131,170,Test,User,-,,Recall,Recall1,2903,baseball,100,1943,2731,1,1,,1
w10039584_msc,uglhrbajv3,Nick_Dissertation_EX1,1,129,2020-08-30T16:27:36-07:00,6.1827409267426,4,versionC_stim.csv,READVersionD.csv,"Read Version D","Dissertation, read only version D",SCAR,MAIN,Study2,U,175,122,Test,User,-,,Recall,Recall1,5546,,0,-1,-1,0,0,,1
w10039584_msc,uglhrbajv3,Nick_Dissertation_EX1,1,130,2020-08-30T16:27:40-07:00,3.6857318878174,4,versionC_stim.csv,READVersionD.csv,"Read Version D","Dissertation, read only version D",BANG,FUZZY,Study2,U,168,101,Test,User,-,,Recall,Recall1,3264,,0,-1,-1,0,0,,1
w10039584_msc,uglhrbajv3,Nick_Dissertation_EX1,1,131,2020-08-30T16:27:43-07:00,3.4194931983948,4,versionC_stim.csv,READVersionD.csv,"Read Version D","Dissertation, read only version D",CHARM,VEHICLE,Study2,U,160,108,Test,User,-,,Recall,Recall1,2955,"yarn ",0,2254,2827,0,0,,1
w10039584_msc,uglhrbajv3,Nick_Dissertation_EX1,1,132,2020-08-30T16:27:47-07:00,3.1796519756317,4,versionC_stim.csv,READVersionD.csv,"Read Version D","Dissertation, read only version D",VILLAIN,BAD,Study2,F,118,165,Test,User,-,,Recall,Recall1,2738,bad,100,2419,2598,1,1,,1
w10039584_msc,uglhrbajv3,Nick_Dissertation_EX1,1,133,2020-08-30T16:27:50-07:00,3.4884958267212,4,versionC_stim.csv,READVersionD.csv,"Read Version D","Dissertation, read only version D",AIRCRAFT,PLANE,Study2,F,129,139,Test,User,-,,Recall,Recall1,3108,airplane,76.923076923077,1677,2868,0,1,,1
w10039584_msc,uglhrbajv3,Nick_Dissertation_EX1,1,134,2020-08-30T16:27:56-07:00,5.3576591014862,4,versionC_stim.csv,READVersionD.csv,"Read Version D","Dissertation, read only version D",CLOTHES,CAKE,Study2,U,166,110,Test,User,-,,Recall,Recall1,4892,"clean ",44.444444444444,4222,4795,0,0,,1
w10039584_msc,uglhrbajv3,Nick_Dissertation_EX1,1,135,2020-08-30T16:27:59-07:00,3.8152499198914,4,versionC_stim.csv,READVersionD.csv,"Read Version D","Dissertation, read only version D",SEATBELT,SAFETY,Study2,S,147,131,Test,User,-,,Recall,Recall1,3413,safety,100,1678,2478,1,1,,1
w10039584_msc,uglhrbajv3,Nick_Dissertation_EX1,1,136,2020-08-30T16:28:08-07:00,9.0828750133514,4,versionC_stim.csv,READVersionD.csv,"Read Version D","Dissertation, read only version D",BRACELET,WRIST,Study2,S,140,175,Test,User,-,,Recall,Recall1,8626,"jewelry ",33.333333333333,4381,8490,0,0,,1
w10039584_msc,uglhrbajv3,Nick_Dissertation_EX1,1,137,2020-08-30T16:28:11-07:00,3.0398290157318,4,versionC_stim.csv,READVersionD.csv,"Read Version D","Dissertation, read only version D",WET,DRY,Study2,S,146,163,Test,User,-,,Recall,Recall1,2630,dry,100,1689,2039,1,1,,1
w10039584_msc,uglhrbajv3,Nick_Dissertation_EX1,1,138,2020-08-30T16:28:14-07:00,2.7986440658569,4,versionC_stim.csv,READVersionD.csv,"Read Version D","Dissertation, read only version D",PANTHER,CAT,Study2,F,126,98,Test,User,-,,Recall,Recall1,2378,cat,100,1925,2226,1,1,,1
w10039584_msc,uglhrbajv3,Nick_Dissertation_EX1,1,139,2020-08-30T16:28:19-07:00,5.0513639450073,4,versionC_stim.csv,READVersionD.csv,"Read Version D","Dissertation, read only version D",GROUND,EARTH,Study2,S,144,147,Test,User,-,,Recall,Recall1,4447,hog,25,3696,4125,0,0,,1
w10039584_msc,uglhrbajv3,Nick_Dissertation_EX1,1,140,2020-08-30T16:28:25-07:00,5.6284399032593,4,versionC_stim.csv,READVersionD.csv,"Read Version D","Dissertation, read only version D",REVENGE,EVEN,Study2,F,122,102,Test,User,-,,Recall,Recall1,5072,even,100,4505,4865,1,1,,1
w10039584_msc,uglhrbajv3,Nick_Dissertation_EX1,1,141,2020-08-30T16:28:28-07:00,3.4634711742401,4,versionC_stim.csv,READVersionD.csv,"Read Version D","Dissertation, read only version D",BRAWL,FIGHT,Study2,F,135,144,Test,User,-,,Recall,Recall1,3043,,0,-1,-1,0,0,,1
w10039584_msc,uglhrbajv3,Nick_Dissertation_EX1,1,142,2020-08-30T16:28:35-07:00,6.79159283638,4,versionC_stim.csv,READVersionD.csv,"Read Version D","Dissertation, read only version D",LOVE,AFFECTION,Study2,B,115,176,Test,User,-,,Recall,Recall1,6193,"affection ",100,3082,6041,1,1,,1
w10039584_msc,uglhrbajv3,Nick_Dissertation_EX1,1,143,2020-08-30T16:28:38-07:00,2.6885390281677,4,versionC_stim.csv,READVersionD.csv,"Read Version D","Dissertation, read only version D",SCISSORS,SHEARS,Study2,B,112,143,Test,User,-,,Recall,Recall1,2247,cut,0,1788,2085,0,0,,1
w10039584_msc,uglhrbajv3,Nick_Dissertation_EX1,1,144,2020-08-30T16:28:43-07:00,5.2466511726379,4,versionC_stim.csv,READVersionD.csv,"Read Version D","Dissertation, read only version D",LIE,TRUTH,Study2,S,148,107,Test,User,-,,Recall,Recall1,4868,truth,100,3124,4609,1,1,,1
w10039584_msc,uglhrbajv3,Nick_Dissertation_EX1,1,145,2020-08-30T16:28:46-07:00,3.27751994133,4,versionC_stim.csv,READVersionD.csv,"Read Version D","Dissertation, read only version D",REEL,ROD,Study2,S,150,155,Test,User,-,,Recall,Recall1,2642,"it in ",0,1988,2528,0,0,,1
w10039584_msc,uglhrbajv3,Nick_Dissertation_EX1,1,146,2020-08-30T16:28:50-07:00,3.2374138832092,4,versionC_stim.csv,READVersionD.csv,"Read Version D","Dissertation, read only version D",WINDSHIELD,CAR,Study2,F,117,161,Test,User,-,,Recall,Recall1,2834,"wiper ",25,2093,2667,0,0,,1
w10039584_msc,uglhrbajv3,Nick_Dissertation_EX1,1,147,2020-08-30T16:28:55-07:00,5.1035900115967,4,versionC_stim.csv,READVersionD.csv,"Read Version D","Dissertation, read only version D",FAVORITE,BEST,Study2,F,125,166,Test,User,-,,Recall,Recall1,4589,child,0,3810,4407,0,0,,1
w10039584_msc,uglhrbajv3,Nick_Dissertation_EX1,1,148,2020-08-30T16:28:58-07:00,2.8516671657562,4,versionC_stim.csv,READVersionD.csv,"Read Version D","Dissertation, read only version D",DONKEY,MULE,Study2,B,108,130,Test,User,-,,Recall,Recall1,2447,,0,-1,-1,0,0,,1
w10039584_msc,uglhrbajv3,Nick_Dissertation_EX1,1,149,2020-08-30T16:28:59-07:00,1.4175608158112,4,versionC_stim.csv,READVersionD.csv,"Read Version D","Dissertation, read only version D",FICTION,LISTEN,Study2,U,164,124,Test,User,-,,Recall,Recall1,974,,0,-1,-1,0,0,,1
w10039584_msc,uglhrbajv3,Nick_Dissertation_EX1,1,150,2020-08-30T16:29:03-07:00,4.042140007019,4,versionC_stim.csv,READVersionD.csv,"Read Version D","Dissertation, read only version D",BREAKABLE,GLASS,Study2,F,127,141,Test,User,-,,Recall,Recall1,3343,"glass ",100,2265,3167,1,1,,1
w10039584_msc,uglhrbajv3,Nick_Dissertation_EX1,1,151,2020-08-30T16:29:08-07:00,5.2282950878143,4,versionC_stim.csv,READVersionD.csv,"Read Version D","Dissertation, read only version D",END,ADJOURN,Study2,B,101,127,Test,User,-,,Recall,Recall1,4729,,0,-1,-1,0,0,,1
w10039584_msc,uglhrbajv3,Nick_Dissertation_EX1,1,152,2020-08-30T16:29:11-07:00,2.5124909877777,4,versionC_stim.csv,READVersionD.csv,"Read Version D","Dissertation, read only version D",ELECTION,MAZE,Study2,U,159,146,Test,User,-,,Recall,Recall1,2031,"day ",28.571428571429,1505,1889,0,0,,1
w10039584_msc,uglhrbajv3,Nick_Dissertation_EX1,1,153,2020-08-30T16:29:14-07:00,3.6451709270477,4,versionC_stim.csv,READVersionD.csv,"Read Version D","Dissertation, read only version D",PENGUIN,BIRD,Study2,F,119,158,Test,User,-,,Recall,Recall1,3187,,0,-1,-1,0,0,,1
w10039584_msc,uglhrbajv3,Nick_Dissertation_EX1,1,154,2020-08-30T16:29:18-07:00,3.8415150642395,4,versionC_stim.csv,READVersionD.csv,"Read Version D","Dissertation, read only version D",Morning,TEMPERATURE,Study2,U,173,151,Test,User,-,,Recall,Recall1,3271,"sunshine ",21.052631578947,2081,3129,0,0,,1
w10039584_msc,uglhrbajv3,Nick_Dissertation_EX1,1,155,2020-08-30T16:29:27-07:00,8.4112551212311,4,versionC_stim.csv,READVersionD.csv,"Read Version D","Dissertation, read only version D",RED,CHERRY,Study2,B,104,109,Test,User,-,,Recall,Recall1,7916,"green ",18.181818181818,6820,7652,0,0,,1
w10039584_msc,uglhrbajv3,Nick_Dissertation_EX1,1,156,2020-08-30T16:29:30-07:00,3.2496159076691,4,versionC_stim.csv,READVersionD.csv,"Read Version D","Dissertation, read only version D",HEAD,SCALP,Study2,B,105,169,Test,User,-,,Recall,Recall1,2802,,0,-1,-1,0,0,,1
w10039584_msc,uglhrbajv3,Nick_Dissertation_EX1,1,157,2020-08-30T16:29:33-07:00,2.9821929931641,4,versionC_stim.csv,READVersionD.csv,"Read Version D","Dissertation, read only version D",TRASH,LITTER,Study2,B,103,138,Test,User,-,,Recall,Recall1,2576,can,0,2004,2251,0,0,,1
w10039584_msc,uglhrbajv3,Nick_Dissertation_EX1,1,158,2020-08-30T16:29:36-07:00,2.7377059459686,4,versionC_stim.csv,READVersionD.csv,"Read Version D","Dissertation, read only version D",WAX,CANDLE,Study2,S,139,160,Test,User,-,,Recall,Recall1,2353,candle,100,1657,2219,1,1,,1
w10039584_msc,uglhrbajv3,Nick_Dissertation_EX1,1,159,2020-08-30T16:29:39-07:00,2.964359998703,4,versionC_stim.csv,READVersionD.csv,"Read Version D","Dissertation, read only version D",EQUAL,RIGHTS,Study2,S,137,148,Test,User,-,,Recall,Recall1,2454,,0,-1,-1,0,0,,1
w10039584_msc,uglhrbajv3,Nick_Dissertation_EX1,1,160,2020-08-30T16:29:42-07:00,3.2364821434021,4,versionC_stim.csv,READVersionD.csv,"Read Version D","Dissertation, read only version D",DRINK,WATER,Study2,S,143,164,Test,User,-,,Recall,Recall1,2833,,0,-1,-1,0,0,,1
w10039584_msc,uglhrbajv3,Nick_Dissertation_EX1,1,161,2020-08-30T16:29:44-07:00,2.3602938652039,4,versionC_stim.csv,READVersionD.csv,"Read Version D","Dissertation, read only version D",SARDINE,FISH,Study2,F,130,111,Test,User,-,,Recall,Recall1,1967,"fish ",100,1341,1847,1,1,,1
w10039584_msc,uglhrbajv3,Nick_Dissertation_EX1,1,162,2020-08-30T16:29:47-07:00,3.1120841503143,4,versionC_stim.csv,READVersionD.csv,"Read Version D","Dissertation, read only version D",FLIP,TURN,Study2,F,116,153,Test,User,-,,Recall,Recall1,2722,flop,0,1944,2442,0,0,,1
w10039584_msc,uglhrbajv3,Nick_Dissertation_EX1,1,163,2020-08-30T16:29:51-07:00,3.479808807373,4,versionC_stim.csv,READVersionD.csv,"Read Version D","Dissertation, read only version D",HATE,NAME,Study2,U,167,100,Test,User,-,,Recall,Recall1,2854,love,25,2274,2681,0,0,,1
w10039584_msc,uglhrbajv3,Nick_Dissertation_EX1,1,164,2020-08-30T16:29:54-07:00,3.5581719875336,4,versionC_stim.csv,READVersionD.csv,"Read Version D","Dissertation, read only version D",PAPER,DOCUMENT,Study2,B,109,106,Test,User,-,,Recall,Recall1,3190,cut,54.545454545455,2792,3048,0,0,,1
w10039584_msc,uglhrbajv3,Nick_Dissertation_EX1,1,165,2020-08-30T16:29:56-07:00,1.8823549747467,4,versionC_stim.csv,READVersionD.csv,"Read Version D","Dissertation, read only version D",TOIL,LEASE,Study2,U,170,154,Test,User,-,,Recall,Recall1,1497,,0,-1,-1,0,0,,1
w10039584_msc,uglhrbajv3,Nick_Dissertation_EX1,1,166,2020-08-30T16:30:01-07:00,5.1797950267792,4,versionC_stim.csv,READVersionD.csv,"Read Version D","Dissertation, read only version D",GAME,CLUE,Study2,B,97,115,Test,User,-,,Recall,Recall1,4523,on,0,4142,4299,0,0,,1
w10039584_msc,uglhrbajv3,Nick_Dissertation_EX1,1,167,2020-08-30T16:30:08-07:00,6.7932381629944,4,versionC_stim.csv,READVersionD.csv,"Read Version D","Dissertation, read only version D",JAR,MASON,Study2,S,138,171,Test,User,-,,Recall,Recall1,6322,lid,0,5605,6068,0,0,,1
w10039584_msc,uglhrbajv3,Nick_Dissertation_EX1,1,168,2020-08-30T16:30:12-07:00,3.467444896698,4,versionC_stim.csv,READVersionD.csv,"Read Version D","Dissertation, read only version D",MAROON,JUSTICE,Study2,U,156,132,Test,User,-,,Recall,Recall1,2982,,0,-1,-1,0,0,,1
w10039584_msc,uglhrbajv3,Nick_Dissertation_EX1,1,169,2020-08-30T16:30:15-07:00,3.4311211109161,4,versionC_stim.csv,READVersionD.csv,"Read Version D","Dissertation, read only version D",ACTRESS,STAR,Study2,F,120,119,Test,User,-,,Recall,Recall1,3046,"actor ",44.444444444444,2148,2865,0,0,,1
w10039584_msc,uglhrbajv3,Nick_Dissertation_EX1,1,170,2020-08-30T16:30:19-07:00,4.1881999969482,4,versionC_stim.csv,READVersionD.csv,"Read Version D","Dissertation, read only version D",CLOTH,STRETCH,Study2,U,157,123,Test,User,-,,Recall,Recall1,3773,soft,36.363636363636,3230,3634,0,0,,1
w10039584_msc,uglhrbajv3,Nick_Dissertation_EX1,1,171,2020-08-30T16:30:23-07:00,3.3689730167389,4,versionC_stim.csv,READVersionD.csv,"Read Version D","Dissertation, read only version D",TRUTHFUL,HONEST,Study2,F,133,159,Test,User,-,,Recall,Recall1,2977,lies,40,2286,2753,0,0,,1
w10039584_msc,uglhrbajv3,Nick_Dissertation_EX1,1,172,2020-08-30T16:30:25-07:00,1.9309048652649,4,versionC_stim.csv,READVersionD.csv,"Read Version D","Dissertation, read only version D",DOG,FURRY,Study2,B,102,149,Test,User,-,,Recall,Recall1,1527,cat,0,1035,1347,0,0,,1
w10039584_msc,uglhrbajv3,Nick_Dissertation_EX1,1,173,2020-08-30T16:30:28-07:00,3.7353019714355,4,versionC_stim.csv,READVersionD.csv,"Read Version D","Dissertation, read only version D",CLEAR,MOAT,Study2,U,169,168,Test,User,-,,Recall,Recall1,3348,dirty,22.222222222222,2540,3099,0,0,,1
w10039584_msc,uglhrbajv3,Nick_Dissertation_EX1,1,174,2020-08-30T16:30:34-07:00,5.4334189891815,4,versionC_stim.csv,READVersionD.csv,"Read Version D","Dissertation, read only version D",BALLOON,POP,Study2,F,123,126,Test,User,-,,Recall,Recall1,5033,pop,100,4325,4741,1,1,,1
w10039584_msc,uglhrbajv3,Nick_Dissertation_EX1,1,175,2020-08-30T16:30:46-07:00,11.89550113678,4,versionC_stim.csv,READVersionD.csv,"Read Version D","Dissertation, read only version D",,,,,,0,Instruct,-,10,"You will now be presented with a new set of word pairs. Please study each pair. Remember that your memory will be tested! When finished, press Enter to move to the next pair.",Initial_Instruct,Instruct4,11460,,,-1,-1,,,,1
w10039584_msc,uglhrbajv3,Nick_Dissertation_EX1,1,176,2020-08-30T16:30:50-07:00,4.1563808917999,4,versionC_stim.csv,READVersionD.csv,"Read Version D","Dissertation, read only version D",CATCHER,BASEBALL,BUFFER1,Buffer,2,6,Study,User,-,,Study/JOL,BUFFER3,3795,,,-1,-1,,,,1
w10039584_msc,uglhrbajv3,Nick_Dissertation_EX1,1,177,2020-08-30T16:30:53-07:00,3.4377460479736,4,versionC_stim.csv,READVersionD.csv,"Read Version D","Dissertation, read only version D",BUTTER,PEANUT,BUFFER1,Buffer,3,3,Study,User,-,,Study/JOL,BUFFER3,3050,,,-1,-1,,,,1
w10039584_msc,uglhrbajv3,Nick_Dissertation_EX1,1,178,2020-08-30T16:30:57-07:00,3.5735890865326,4,versionC_stim.csv,READVersionD.csv,"Read Version D","Dissertation, read only version D",HIDE,SCARE,BUFFER1,Buffer,4,4,Study,User,-,,Study/JOL,BUFFER3,3271,,,-1,-1,,,,1
w10039584_msc,uglhrbajv3,Nick_Dissertation_EX1,1,179,2020-08-30T16:31:00-07:00,3.6294209957123,4,versionC_stim.csv,READVersionD.csv,"Read Version D","Dissertation, read only version D",GREEN,TREES,BUFFER1,Buffer,1,5,Study,User,-,,Study/JOL,BUFFER3,3254,,,-1,-1,,,,1
w10039584_msc,uglhrbajv3,Nick_Dissertation_EX1,1,180,2020-08-30T16:31:03-07:00,2.5232539176941,4,versionC_stim.csv,READVersionD.csv,"Read Version D","Dissertation, read only version D",JAM,SPACE,BUFFER1,Buffer,5,2,Study,User,-,,Study/JOL,BUFFER3,2121,,,-1,-1,,,,1
w10039584_msc,uglhrbajv3,Nick_Dissertation_EX1,1,181,2020-08-30T16:31:05-07:00,2.4389789104462,4,versionC_stim.csv,READVersionD.csv,"Read Version D","Dissertation, read only version D",DEFINITION,MEANING,Study1,S,62,21,Study,User,-,,Study/JOL,"Study Phase2",2091,,,-1,-1,,,,1
w10039584_msc,uglhrbajv3,Nick_Dissertation_EX1,1,182,2020-08-30T16:31:08-07:00,2.206710100174,4,versionC_stim.csv,READVersionD.csv,"Read Version D","Dissertation, read only version D",SIP,DRINK,Study1,F,27,85,Study,User,-,,Study/JOL,"Study Phase2",1590,,,-1,-1,,,,1
w10039584_msc,uglhrbajv3,Nick_Dissertation_EX1,1,183,2020-08-30T16:31:09-07:00,1.4421870708466,4,versionC_stim.csv,READVersionD.csv,"Read Version D","Dissertation, read only version D",COW,HERD,Study1,B,22,14,Study,User,-,,Study/JOL,"Study Phase2",1096,,,-1,-1,,,,1
w10039584_msc,uglhrbajv3,Nick_Dissertation_EX1,1,184,2020-08-30T16:31:11-07:00,1.4337389469147,4,versionC_stim.csv,READVersionD.csv,"Read Version D","Dissertation, read only version D",JURY,TRIAL,Study1,S,50,70,Study,User,-,,Study/JOL,"Study Phase2",1063,,,-1,-1,,,,1
w10039584_msc,uglhrbajv3,Nick_Dissertation_EX1,1,185,2020-08-30T16:31:12-07:00,1.1880340576172,4,versionC_stim.csv,READVersionD.csv,"Read Version D","Dissertation, read only version D",LATCH,KEY,Study1,F,36,11,Study,User,-,,Study/JOL,"Study Phase2",861,,,-1,-1,,,,1
w10039584_msc,uglhrbajv3,Nick_Dissertation_EX1,1,186,2020-08-30T16:31:13-07:00,1.4097788333893,4,versionC_stim.csv,READVersionD.csv,"Read Version D","Dissertation, read only version D",ATTIRE,CLOTHES,Study1,F,43,38,Study,User,-,,Study/JOL,"Study Phase2",845,,,-1,-1,,,,1
w10039584_msc,uglhrbajv3,Nick_Dissertation_EX1,1,187,2020-08-30T16:31:15-07:00,1.798269033432,4,versionC_stim.csv,READVersionD.csv,"Read Version D","Dissertation, read only version D",STENCH,SMELL,Study1,F,42,65,Study,User,-,,Study/JOL,"Study Phase2",1214,,,-1,-1,,,,1
w10039584_msc,uglhrbajv3,Nick_Dissertation_EX1,1,188,2020-08-30T16:31:16-07:00,1.4890229701996,4,versionC_stim.csv,READVersionD.csv,"Read Version D","Dissertation, read only version D",SODA,POP,Study1,S,56,67,Study,User,-,,Study/JOL,"Study Phase2",1031,,,-1,-1,,,,1
w10039584_msc,uglhrbajv3,Nick_Dissertation_EX1,1,189,2020-08-30T16:31:18-07:00,1.8971979618073,4,versionC_stim.csv,READVersionD.csv,"Read Version D","Dissertation, read only version D",FAMINE,HUNGER,Study1,F,40,77,Study,User,-,,Study/JOL,"Study Phase2",1513,,,-1,-1,,,,1
w10039584_msc,uglhrbajv3,Nick_Dissertation_EX1,1,190,2020-08-30T16:31:20-07:00,1.4626421928406,4,versionC_stim.csv,READVersionD.csv,"Read Version D","Dissertation, read only version D",SICK,HIDE,Study1,U,84,58,Study,User,-,,Study/JOL,"Study Phase2",953,,,-1,-1,,,,1
w10039584_msc,uglhrbajv3,Nick_Dissertation_EX1,1,191,2020-08-30T16:31:22-07:00,1.7546498775482,4,versionC_stim.csv,READVersionD.csv,"Read Version D","Dissertation, read only version D",ASSIGNMENT,DUE,Study1,S,46,31,Study,User,-,,Study/JOL,"Study Phase2",1218,,,-1,-1,,,,1
w10039584_msc,uglhrbajv3,Nick_Dissertation_EX1,1,192,2020-08-30T16:31:23-07:00,1.4313809871674,4,versionC_stim.csv,READVersionD.csv,"Read Version D","Dissertation, read only version D",WOMAN,LIFT,Study1,U,69,43,Study,User,-,,Study/JOL,"Study Phase2",1057,,,-1,-1,,,,1
w10039584_msc,uglhrbajv3,Nick_Dissertation_EX1,1,193,2020-08-30T16:31:25-07:00,1.5741620063782,4,versionC_stim.csv,READVersionD.csv,"Read Version D","Dissertation, read only version D",VASE,KING,Study1,U,85,44,Study,User,-,,Study/JOL,"Study Phase2",1184,,,-1,-1,,,,1
w10039584_msc,uglhrbajv3,Nick_Dissertation_EX1,1,194,2020-08-30T16:31:26-07:00,1.2728731632233,4,versionC_stim.csv,READVersionD.csv,"Read Version D","Dissertation, read only version D",BAD,DELINQUENT,Study1,B,6,80,Study,User,-,,Study/JOL,"Study Phase2",869,,,-1,-1,,,,1
w10039584_msc,uglhrbajv3,Nick_Dissertation_EX1,1,195,2020-08-30T16:31:27-07:00,1.3104059696198,4,versionC_stim.csv,READVersionD.csv,"Read Version D","Dissertation, read only version D",CHEESE,WINE,Study1,S,57,28,Study,User,-,,Study/JOL,"Study Phase2",767,,,-1,-1,,,,1
w10039584_msc,uglhrbajv3,Nick_Dissertation_EX1,1,196,2020-08-30T16:31:28-07:00,1.3195049762726,4,versionC_stim.csv,READVersionD.csv,"Read Version D","Dissertation, read only version D",DIVISION,MATH,Study1,F,33,50,Study,User,-,,Study/JOL,"Study Phase2",856,,,-1,-1,,,,1
w10039584_msc,uglhrbajv3,Nick_Dissertation_EX1,1,197,2020-08-30T16:31:30-07:00,1.5682048797607,4,versionC_stim.csv,READVersionD.csv,"Read Version D","Dissertation, read only version D",COLD,BITTER,Study1,B,12,56,Study,User,-,,Study/JOL,"Study Phase2",1096,,,-1,-1,,,,1
w10039584_msc,uglhrbajv3,Nick_Dissertation_EX1,1,198,2020-08-30T16:31:32-07:00,1.6331210136414,4,versionC_stim.csv,READVersionD.csv,"Read Version D","Dissertation, read only version D",MONEY,WAGE,Study1,B,8,47,Study,User,-,,Study/JOL,"Study Phase2",1009,,,-1,-1,,,,1
w10039584_msc,uglhrbajv3,Nick_Dissertation_EX1,1,199,2020-08-30T16:31:33-07:00,1.2798840999603,4,versionC_stim.csv,READVersionD.csv,"Read Version D","Dissertation, read only version D",TALK,DISCUSSION,Study1,B,21,12,Study,User,-,,Study/JOL,"Study Phase2",871,,,-1,-1,,,,1
w10039584_msc,uglhrbajv3,Nick_Dissertation_EX1,1,200,2020-08-30T16:31:34-07:00,1.2741589546204,4,versionC_stim.csv,READVersionD.csv,"Read Version D","Dissertation, read only version D",END,BEGIN,Study1,S,54,23,Study,User,-,,Study/JOL,"Study Phase2",794,,,-1,-1,,,,1
w10039584_msc,uglhrbajv3,Nick_Dissertation_EX1,1,201,2020-08-30T16:31:36-07:00,1.4561519622803,4,versionC_stim.csv,READVersionD.csv,"Read Version D","Dissertation, read only version D",DOG,PAW,Study1,B,15,71,Study,User,-,,Study/JOL,"Study Phase2",900,,,-1,-1,,,,1
w10039584_msc,uglhrbajv3,Nick_Dissertation_EX1,1,202,2020-08-30T16:31:37-07:00,1.3962700366974,4,versionC_stim.csv,READVersionD.csv,"Read Version D","Dissertation, read only version D",CLUTTER,PUSHER,Study1,U,66,46,Study,User,-,,Study/JOL,"Study Phase2",992,,,-1,-1,,,,1
w10039584_msc,uglhrbajv3,Nick_Dissertation_EX1,1,203,2020-08-30T16:31:38-07:00,1.2672870159149,4,versionC_stim.csv,READVersionD.csv,"Read Version D","Dissertation, read only version D",SEIZE,TAKE,Study1,F,29,72,Study,User,-,,Study/JOL,"Study Phase2",801,,,-1,-1,,,,1
w10039584_msc,uglhrbajv3,Nick_Dissertation_EX1,1,204,2020-08-30T16:31:40-07:00,1.3085250854492,4,versionC_stim.csv,READVersionD.csv,"Read Version D","Dissertation, read only version D",PILOT,PLANE,Study1,F,44,9,Study,User,-,,Study/JOL,"Study Phase2",960,,,-1,-1,,,,1
w10039584_msc,uglhrbajv3,Nick_Dissertation_EX1,1,205,2020-08-30T16:31:41-07:00,1.6175379753113,4,versionC_stim.csv,READVersionD.csv,"Read Version D","Dissertation, read only version D",BUSINESS,DEATH,Study1,U,72,15,Study,User,-,,Study/JOL,"Study Phase2",1196,,,-1,-1,,,,1
w10039584_msc,uglhrbajv3,Nick_Dissertation_EX1,1,206,2020-08-30T16:31:43-07:00,1.5163249969482,4,versionC_stim.csv,READVersionD.csv,"Read Version D","Dissertation, read only version D",BAR,GRILL,Study1,S,52,68,Study,User,-,,Study/JOL,"Study Phase2",1035,,,-1,-1,,,,1
w10039584_msc,uglhrbajv3,Nick_Dissertation_EX1,1,207,2020-08-30T16:31:44-07:00,1.237478017807,4,versionC_stim.csv,READVersionD.csv,"Read Version D","Dissertation, read only version D",CHILD,BABY,Study1,S,64,42,Study,User,-,,Study/JOL,"Study Phase2",765,,,-1,-1,,,,1
w10039584_msc,uglhrbajv3,Nick_Dissertation_EX1,1,208,2020-08-30T16:31:46-07:00,1.6455719470978,4,versionC_stim.csv,READVersionD.csv,"Read Version D","Dissertation, read only version D",RACKET,BALL,Study1,F,38,73,Study,User,-,,Study/JOL,"Study Phase2",1024,,,-1,-1,,,,1
w10039584_msc,uglhrbajv3,Nick_Dissertation_EX1,1,209,2020-08-30T16:31:47-07:00,1.487673997879,4,versionC_stim.csv,READVersionD.csv,"Read Version D","Dissertation, read only version D",FLOOR,DISCOVER,Study1,U,71,13,Study,User,-,,Study/JOL,"Study Phase2",1054,,,-1,-1,,,,1
w10039584_msc,uglhrbajv3,Nick_Dissertation_EX1,1,210,2020-08-30T16:31:48-07:00,1.312402009964,4,versionC_stim.csv,READVersionD.csv,"Read Version D","Dissertation, read only version D",RIDDLE,SUGAR,Study1,U,81,37,Study,User,-,,Study/JOL,"Study Phase2",911,,,-1,-1,,,,1
w10039584_msc,uglhrbajv3,Nick_Dissertation_EX1,1,211,2020-08-30T16:31:50-07:00,1.8115570545197,4,versionC_stim.csv,READVersionD.csv,"Read Version D","Dissertation, read only version D",WOULD,CASH,Study1,U,83,45,Study,User,-,,Study/JOL,"Study Phase2",1282,,,-1,-1,,,,1
w10039584_msc,uglhrbajv3,Nick_Dissertation_EX1,1,212,2020-08-30T16:31:52-07:00,1.8712480068207,4,versionC_stim.csv,READVersionD.csv,"Read Version D","Dissertation, read only version D",WAR,REVOLUTION,Study1,B,20,16,Study,User,-,,Study/JOL,"Study Phase2",1418,,,-1,-1,,,,1
w10039584_msc,uglhrbajv3,Nick_Dissertation_EX1,1,213,2020-08-30T16:31:54-07:00,1.8169357776642,4,versionC_stim.csv,READVersionD.csv,"Read Version D","Dissertation, read only version D",STING,HORNET,Study1,B,11,84,Study,User,-,,Study/JOL,"Study Phase2",1471,,,-1,-1,,,,1
w10039584_msc,uglhrbajv3,Nick_Dissertation_EX1,1,214,2020-08-30T16:31:57-07:00,2.6580262184143,4,versionC_stim.csv,READVersionD.csv,"Read Version D","Dissertation, read only version D",LION,ART,Study1,U,79,51,Study,User,-,,Study/JOL,"Study Phase2",2213,,,-1,-1,,,,1
w10039584_msc,uglhrbajv3,Nick_Dissertation_EX1,1,215,2020-08-30T16:31:58-07:00,1.2845728397369,4,versionC_stim.csv,READVersionD.csv,"Read Version D","Dissertation, read only version D",FISH,TUNA,Study1,B,25,19,Study,User,-,,Study/JOL,"Study Phase2",922,,,-1,-1,,,,1
w10039584_msc,uglhrbajv3,Nick_Dissertation_EX1,1,216,2020-08-30T16:32:00-07:00,1.9123451709747,4,versionC_stim.csv,READVersionD.csv,"Read Version D","Dissertation, read only version D",WASTE,DUMP,Study1,S,49,35,Study,User,-,,Study/JOL,"Study Phase2",1526,,,-1,-1,,,,1
w10039584_msc,uglhrbajv3,Nick_Dissertation_EX1,1,217,2020-08-30T16:32:01-07:00,1.3794269561768,4,versionC_stim.csv,READVersionD.csv,"Read Version D","Dissertation, read only version D",CAR,HAPPY,Study1,U,77,74,Study,User,-,,Study/JOL,"Study Phase2",1027,,,-1,-1,,,,1
w10039584_msc,uglhrbajv3,Nick_Dissertation_EX1,1,218,2020-08-30T16:32:02-07:00,1.3142960071564,4,versionC_stim.csv,READVersionD.csv,"Read Version D","Dissertation, read only version D",CARD,CREDIT,Study1,B,23,20,Study,User,-,,Study/JOL,"Study Phase2",661,,,-1,-1,,,,1
w10039584_msc,uglhrbajv3,Nick_Dissertation_EX1,1,219,2020-08-30T16:32:05-07:00,2.811616897583,4,versionC_stim.csv,READVersionD.csv,"Read Version D","Dissertation, read only version D",WORD,SENTENCE,Study1,F,31,57,Study,User,-,,Study/JOL,"Study Phase2",2363,,,-1,-1,,,,1
w10039584_msc,uglhrbajv3,Nick_Dissertation_EX1,1,220,2020-08-30T16:32:07-07:00,1.6686611175537,4,versionC_stim.csv,READVersionD.csv,"Read Version D","Dissertation, read only version D",FOOT,SHOE,Study1,S,60,66,Study,User,-,,Study/JOL,"Study Phase2",1308,,,-1,-1,,,,1
w10039584_msc,uglhrbajv3,Nick_Dissertation_EX1,1,221,2020-08-30T16:32:09-07:00,1.5882070064545,4,versionC_stim.csv,READVersionD.csv,"Read Version D","Dissertation, read only version D",FLOWER,ORCHID,Study1,B,24,63,Study,User,-,,Study/JOL,"Study Phase2",1150,,,-1,-1,,,,1
w10039584_msc,uglhrbajv3,Nick_Dissertation_EX1,1,222,2020-08-30T16:32:12-07:00,3.3354918956757,4,versionC_stim.csv,READVersionD.csv,"Read Version D","Dissertation, read only version D",WATER,BRIDGE,Study1,B,18,76,Study,User,-,,Study/JOL,"Study Phase2",2765,,,-1,-1,,,,1
w10039584_msc,uglhrbajv3,Nick_Dissertation_EX1,1,223,2020-08-30T16:32:14-07:00,2.2682631015778,4,versionC_stim.csv,READVersionD.csv,"Read Version D","Dissertation, read only version D",BELT,SOON,Study1,U,70,60,Study,User,-,,Study/JOL,"Study Phase2",1825,,,-1,-1,,,,1
w10039584_msc,uglhrbajv3,Nick_Dissertation_EX1,1,224,2020-08-30T16:32:16-07:00,1.4783749580383,4,versionC_stim.csv,READVersionD.csv,"Read Version D","Dissertation, read only version D",DESIGN,ARCHITECTURE,Study1,S,51,61,Study,User,-,,Study/JOL,"Study Phase2",1137,,,-1,-1,,,,1
w10039584_msc,uglhrbajv3,Nick_Dissertation_EX1,1,225,2020-08-30T16:32:17-07:00,1.5236299037933,4,versionC_stim.csv,READVersionD.csv,"Read Version D","Dissertation, read only version D",ACCIDENT,STRONG,Study1,U,80,59,Study,User,-,,Study/JOL,"Study Phase2",1093,,,-1,-1,,,,1
w10039584_msc,uglhrbajv3,Nick_Dissertation_EX1,1,226,2020-08-30T16:32:19-07:00,1.6400821208954,4,versionC_stim.csv,READVersionD.csv,"Read Version D","Dissertation, read only version D",DROWSY,SLEEP,Study1,F,41,36,Study,User,-,,Study/JOL,"Study Phase2",1139,,,-1,-1,,,,1
w10039584_msc,uglhrbajv3,Nick_Dissertation_EX1,1,227,2020-08-30T16:32:20-07:00,1.5208899974823,4,versionC_stim.csv,READVersionD.csv,"Read Version D","Dissertation, read only version D",ROCK,GEOLOGY,Study1,B,19,83,Study,User,-,,Study/JOL,"Study Phase2",1052,,,-1,-1,,,,1
w10039584_msc,uglhrbajv3,Nick_Dissertation_EX1,1,228,2020-08-30T16:32:22-07:00,1.6873400211334,4,versionC_stim.csv,READVersionD.csv,"Read Version D","Dissertation, read only version D",OUT,WAY,Study1,B,16,24,Study,User,-,,Study/JOL,"Study Phase2",1196,,,-1,-1,,,,1
w10039584_msc,uglhrbajv3,Nick_Dissertation_EX1,1,229,2020-08-30T16:32:24-07:00,2.3300290107727,4,versionC_stim.csv,READVersionD.csv,"Read Version D","Dissertation, read only version D",GROWTH,HEIGHT,Study1,F,30,7,Study,User,-,,Study/JOL,"Study Phase2",1895,,,-1,-1,,,,1
w10039584_msc,uglhrbajv3,Nick_Dissertation_EX1,1,230,2020-08-30T16:32:26-07:00,1.6734669208527,4,versionC_stim.csv,READVersionD.csv,"Read Version D","Dissertation, read only version D",WASP,BUG,Study1,F,32,75,Study,User,-,,Study/JOL,"Study Phase2",1324,,,-1,-1,,,,1
w10039584_msc,uglhrbajv3,Nick_Dissertation_EX1,1,231,2020-08-30T16:32:27-07:00,0.98661684989929,4,versionC_stim.csv,READVersionD.csv,"Read Version D","Dissertation, read only version D",ADD,VALLEY,Study1,U,82,52,Study,User,-,,Study/JOL,"Study Phase2",585,,,-1,-1,,,,1
w10039584_msc,uglhrbajv3,Nick_Dissertation_EX1,1,232,2020-08-30T16:32:28-07:00,1.000321149826,4,versionC_stim.csv,READVersionD.csv,"Read Version D","Dissertation, read only version D",PLANT,ROOT,Study1,B,13,69,Study,User,-,,Study/JOL,"Study Phase2",633,,,-1,-1,,,,1
w10039584_msc,uglhrbajv3,Nick_Dissertation_EX1,1,233,2020-08-30T16:32:30-07:00,1.9129309654236,4,versionC_stim.csv,READVersionD.csv,"Read Version D","Dissertation, read only version D",HAMMER,CHISEL,Study1,B,9,79,Study,User,-,,Study/JOL,"Study Phase2",1385,,,-1,-1,,,,1
w10039584_msc,uglhrbajv3,Nick_Dissertation_EX1,1,234,2020-08-30T16:32:31-07:00,1.3361530303955,4,versionC_stim.csv,READVersionD.csv,"Read Version D","Dissertation, read only version D",STOMACH,DIGESTION,Study1,B,7,17,Study,User,-,,Study/JOL,"Study Phase2",906,,,-1,-1,,,,1
w10039584_msc,uglhrbajv3,Nick_Dissertation_EX1,1,235,2020-08-30T16:32:32-07:00,1.0061519145966,4,versionC_stim.csv,READVersionD.csv,"Read Version D","Dissertation, read only version D",NEWS,EDITOR,Study1,B,10,30,Study,User,-,,Study/JOL,"Study Phase2",565,,,-1,-1,,,,1
w10039584_msc,uglhrbajv3,Nick_Dissertation_EX1,1,236,2020-08-30T16:32:33-07:00,1.161318063736,4,versionC_stim.csv,READVersionD.csv,"Read Version D","Dissertation, read only version D",BLAZE,FIRE,Study1,F,45,78,Study,User,-,,Study/JOL,"Study Phase2",692,,,-1,-1,,,,1
w10039584_msc,uglhrbajv3,Nick_Dissertation_EX1,1,237,2020-08-30T16:32:34-07:00,0.82174110412598,4,versionC_stim.csv,READVersionD.csv,"Read Version D","Dissertation, read only version D",ATTORNEY,LAW,Study1,F,34,53,Study,User,-,,Study/JOL,"Study Phase2",390,,,-1,-1,,,,1
w10039584_msc,uglhrbajv3,Nick_Dissertation_EX1,1,238,2020-08-30T16:32:35-07:00,1.2619149684906,4,versionC_stim.csv,READVersionD.csv,"Read Version D","Dissertation, read only version D",CLEAN,HYGIENE,Study1,B,17,55,Study,User,-,,Study/JOL,"Study Phase2",534,,,-1,-1,,,,1
w10039584_msc,uglhrbajv3,Nick_Dissertation_EX1,1,239,2020-08-30T16:32:36-07:00,1.0116348266602,4,versionC_stim.csv,READVersionD.csv,"Read Version D","Dissertation, read only version D",WIND,BLOW,Study1,S,55,49,Study,User,-,,Study/JOL,"Study Phase2",470,,,-1,-1,,,,1
w10039584_msc,uglhrbajv3,Nick_Dissertation_EX1,1,240,2020-08-30T16:32:38-07:00,1.4892640113831,4,versionC_stim.csv,READVersionD.csv,"Read Version D","Dissertation, read only version D",SACKING,DIETARY,Study1,U,67,62,Study,User,-,,Study/JOL,"Study Phase2",790,,,-1,-1,,,,1
w10039584_msc,uglhrbajv3,Nick_Dissertation_EX1,1,241,2020-08-30T16:32:40-07:00,1.5799331665039,4,versionC_stim.csv,READVersionD.csv,"Read Version D","Dissertation, read only version D",ROUND,CIRCLE,Study1,S,65,81,Study,User,-,,Study/JOL,"Study Phase2",1185,,,-1,-1,,,,1
w10039584_msc,uglhrbajv3,Nick_Dissertation_EX1,1,242,2020-08-30T16:32:41-07:00,1.4391648769379,4,versionC_stim.csv,READVersionD.csv,"Read Version D","Dissertation, read only version D",BIRD,SWAN,Study1,B,14,54,Study,User,-,,Study/JOL,"Study Phase2",1063,,,-1,-1,,,,1
w10039584_msc,uglhrbajv3,Nick_Dissertation_EX1,1,243,2020-08-30T16:32:42-07:00,1.3950390815735,4,versionC_stim.csv,READVersionD.csv,"Read Version D","Dissertation, read only version D",TUCK,ALLOW,Study1,U,78,27,Study,User,-,,Study/JOL,"Study Phase2",784,,,-1,-1,,,,1
w10039584_msc,uglhrbajv3,Nick_Dissertation_EX1,1,244,2020-08-30T16:32:45-07:00,2.2082419395447,4,versionC_stim.csv,READVersionD.csv,"Read Version D","Dissertation, read only version D",CAVE,DARK,Study1,F,28,8,Study,User,-,,Study/JOL,"Study Phase2",1849,,,-1,-1,,,,1
w10039584_msc,uglhrbajv3,Nick_Dissertation_EX1,1,245,2020-08-30T16:32:46-07:00,1.7875790596008,4,versionC_stim.csv,READVersionD.csv,"Read Version D","Dissertation, read only version D",SALAD,LETTUCE,Study1,S,59,18,Study,User,-,,Study/JOL,"Study Phase2",1416,,,-1,-1,,,,1
w10039584_msc,uglhrbajv3,Nick_Dissertation_EX1,1,246,2020-08-30T16:32:48-07:00,1.2042620182037,4,versionC_stim.csv,READVersionD.csv,"Read Version D","Dissertation, read only version D",TOILET,BATHROOM,Study1,S,58,22,Study,User,-,,Study/JOL,"Study Phase2",905,,,-1,-1,,,,1
w10039584_msc,uglhrbajv3,Nick_Dissertation_EX1,1,247,2020-08-30T16:32:49-07:00,1.5077948570251,4,versionC_stim.csv,READVersionD.csv,"Read Version D","Dissertation, read only version D",BEE,HONEY,Study1,S,63,39,Study,User,-,,Study/JOL,"Study Phase2",970,,,-1,-1,,,,1
w10039584_msc,uglhrbajv3,Nick_Dissertation_EX1,1,248,2020-08-30T16:32:50-07:00,1.2539691925049,4,versionC_stim.csv,READVersionD.csv,"Read Version D","Dissertation, read only version D",CHILI,HOT,Study1,F,37,40,Study,User,-,,Study/JOL,"Study Phase2",837,,,-1,-1,,,,1
w10039584_msc,uglhrbajv3,Nick_Dissertation_EX1,1,249,2020-08-30T16:32:52-07:00,1.2237019538879,4,versionC_stim.csv,READVersionD.csv,"Read Version D","Dissertation, read only version D",AMOUNT,NUMBER,Study1,S,47,82,Study,User,-,,Study/JOL,"Study Phase2",773,,,-1,-1,,,,1
w10039584_msc,uglhrbajv3,Nick_Dissertation_EX1,1,250,2020-08-30T16:32:53-07:00,1.1607928276062,4,versionC_stim.csv,READVersionD.csv,"Read Version D","Dissertation, read only version D",BRONZE,ARTERY,Study1,U,74,86,Study,User,-,,Study/JOL,"Study Phase2",697,,,-1,-1,,,,1
w10039584_msc,uglhrbajv3,Nick_Dissertation_EX1,1,251,2020-08-30T16:32:55-07:00,1.7909262180328,4,versionC_stim.csv,READVersionD.csv,"Read Version D","Dissertation, read only version D",ENOUGH,FULL,Study1,F,26,10,Study,User,-,,Study/JOL,"Study Phase2",1418,,,-1,-1,,,,1
w10039584_msc,uglhrbajv3,Nick_Dissertation_EX1,1,252,2020-08-30T16:32:56-07:00,1.2557199001312,4,versionC_stim.csv,READVersionD.csv,"Read Version D","Dissertation, read only version D",SITE,LOCATION,Study1,S,48,25,Study,User,-,,Study/JOL,"Study Phase2",786,,,-1,-1,,,,1
w10039584_msc,uglhrbajv3,Nick_Dissertation_EX1,1,253,2020-08-30T16:32:57-07:00,1.3502080440521,4,versionC_stim.csv,READVersionD.csv,"Read Version D","Dissertation, read only version D",HUNGRY,PARK,Study1,U,68,48,Study,User,-,,Study/JOL,"Study Phase2",877,,,-1,-1,,,,1
w10039584_msc,uglhrbajv3,Nick_Dissertation_EX1,1,254,2020-08-30T16:32:58-07:00,1.1559419631958,4,versionC_stim.csv,READVersionD.csv,"Read Version D","Dissertation, read only version D",FUTURE,PAST,Study1,S,61,34,Study,User,-,,Study/JOL,"Study Phase2",617,,,-1,-1,,,,1
w10039584_msc,uglhrbajv3,Nick_Dissertation_EX1,1,255,2020-08-30T16:32:59-07:00,1.1060600280762,4,versionC_stim.csv,READVersionD.csv,"Read Version D","Dissertation, read only version D",SIGHT,DEBATE,Study1,U,73,26,Study,User,-,,Study/JOL,"Study Phase2",744,,,-1,-1,,,,1
w10039584_msc,uglhrbajv3,Nick_Dissertation_EX1,1,256,2020-08-30T16:33:01-07:00,1.820060968399,4,versionC_stim.csv,READVersionD.csv,"Read Version D","Dissertation, read only version D",LIVER,KIDNEY,Study1,S,53,33,Study,User,-,,Study/JOL,"Study Phase2",1415,,,-1,-1,,,,1
w10039584_msc,uglhrbajv3,Nick_Dissertation_EX1,1,257,2020-08-30T16:33:03-07:00,1.3175981044769,4,versionC_stim.csv,READVersionD.csv,"Read Version D","Dissertation, read only version D",CHORE,WORK,Study1,F,39,64,Study,User,-,,Study/JOL,"Study Phase2",946,,,-1,-1,,,,1
w10039584_msc,uglhrbajv3,Nick_Dissertation_EX1,1,258,2020-08-30T16:33:04-07:00,1.635910987854,4,versionC_stim.csv,READVersionD.csv,"Read Version D","Dissertation, read only version D",HAND,FIX,Study1,U,75,29,Study,User,-,,Study/JOL,"Study Phase2",1229,,,-1,-1,,,,1
w10039584_msc,uglhrbajv3,Nick_Dissertation_EX1,1,259,2020-08-30T16:33:06-07:00,1.9416279792786,4,versionC_stim.csv,READVersionD.csv,"Read Version D","Dissertation, read only version D",FANTASTIC,GREAT,Study1,F,35,41,Study,User,-,,Study/JOL,"Study Phase2",1465,,,-1,-1,,,,1
w10039584_msc,uglhrbajv3,Nick_Dissertation_EX1,1,260,2020-08-30T16:33:07-07:00,1.3810408115387,4,versionC_stim.csv,READVersionD.csv,"Read Version D","Dissertation, read only version D",POSITION,MACHINE,Study1,U,76,32,Study,User,-,,Study/JOL,"Study Phase2",849,,,-1,-1,,,,1
w10039584_msc,uglhrbajv3,Nick_Dissertation_EX1,1,261,2020-08-30T16:33:09-07:00,1.2587480545044,4,versionC_stim.csv,READVersionD.csv,"Read Version D","Dissertation, read only version D",CHOCOLATE,MALT,BUFFER2,Buffer,88,90,Study,User,-,,Study/JOL,BUFFER4,653,,,-1,-1,,,,1
w10039584_msc,uglhrbajv3,Nick_Dissertation_EX1,1,262,2020-08-30T16:33:10-07:00,1.5381760597229,4,versionC_stim.csv,READVersionD.csv,"Read Version D","Dissertation, read only version D",POLICE,SHERRIF,BUFFER2,Buffer,87,87,Study,User,-,,Study/JOL,BUFFER4,1078,,,-1,-1,,,,1
w10039584_msc,uglhrbajv3,Nick_Dissertation_EX1,1,263,2020-08-30T16:33:12-07:00,1.3803889751434,4,versionC_stim.csv,READVersionD.csv,"Read Version D","Dissertation, read only version D",STUFF,THING,BUFFER2,Buffer,90,91,Study,User,-,,Study/JOL,BUFFER4,896,,,-1,-1,,,,1
w10039584_msc,uglhrbajv3,Nick_Dissertation_EX1,1,264,2020-08-30T16:33:13-07:00,1.3897929191589,4,versionC_stim.csv,READVersionD.csv,"Read Version D","Dissertation, read only version D",SPACE,MOON,BUFFER2,Buffer,89,89,Study,User,-,,Study/JOL,BUFFER4,658,,,-1,-1,,,,1
w10039584_msc,uglhrbajv3,Nick_Dissertation_EX1,1,265,2020-08-30T16:33:14-07:00,1.1637840270996,4,versionC_stim.csv,READVersionD.csv,"Read Version D","Dissertation, read only version D",GOOSE,GEESE,BUFFER2,Buffer,86,88,Study,User,-,,Study/JOL,BUFFER4,671,,,-1,-1,,,,1
w10039584_msc,uglhrbajv3,Nick_Dissertation_EX1,1,266,2020-08-30T16:33:20-07:00,5.5209221839905,4,versionC_stim.csv,READVersionD.csv,"Read Version D","Dissertation, read only version D",,,,,,0,Instruct,User,-,"You have completed this section. Please press Enter.",Filler_Instruction,Instruct5,5114,,,-1,-1,,,,1
w10039584_msc,uglhrbajv3,Nick_Dissertation_EX1,1,267,2020-08-30T16:35:20-07:00,120.65118789673,4,versionC_stim.csv,READVersionD.csv,"Read Version D","Dissertation, read only version D",,,,,,0,FreeRecall,120,120,"Please list the 50 US states in reverse alphabetical order (z - a). The task will automatically advance to the next screen after two minutes.",,Filler2,120009,"Wyoming Washington Virginia Vermont Utah Texas Tennessee South Dakota South Carolina Pennsylvania ",0,14308,102490,0,0,,1
w10039584_msc,uglhrbajv3,Nick_Dissertation_EX1,1,268,2020-08-30T16:35:33-07:00,12.185698032379,4,versionC_stim.csv,READVersionD.csv,"Read Version D","Dissertation, read only version D",,,,,,0,Instruct,-,10,"You will now be presented with the first word from each of the previously studied item pairs. Please type the missing word. If you do not know the word, you may guess or press Enter to skip forward to the next pair.",,Instruct6,11354,,,-1,-1,,,,1
