Username,ID,ExperimentName,Session,Trial,Date,TimeDif,"Condition Number","Stimuli File","Order File","Condition Description","Condition Notes",Stimuli*Cue,Stimuli*Answer,Stimuli*Shuffle,"Stimuli*Stimuli Notes",Stimuli*Value,Procedure*Item,"Procedure*Trial Type","Procedure*Max Time","Procedure*Min Time",Procedure*Text,"Procedure*Procedure Notes",Procedure*Shuffle,Response*RT,Response*Response,Response*Accuracy,Response*RTfirst,Response*RTlast,Response*strictAcc,Response*lenientAcc,Response*focus,Response*JOL,Response*Focus
w10046000_clt,0dlnavum7m,Nick_Dissertation_EX1,1,1,2020-09-06T16:41:43-07:00,6.5395731925964,10,versionA_stim.csv,JAMVersionB.csv,"JAM Version B","Dissertation, JAM version B",,,,,,0,Instruct,-,5,"In this section, you will be presented with a series of word pairs.",Initial_Instruct,Instruct1,6069,,,-1,-1,,,,,1
w10046000_clt,0dlnavum7m,Nick_Dissertation_EX1,1,2,2020-09-06T16:42:06-07:00,22.460260868073,10,versionA_stim.csv,JAMVersionB.csv,"JAM Version B","Dissertation, JAM version B",,,,,,0,Instruct,-,10,"As you study, you will be asked to rate how often the words in each pair are used together. Assume 100 college students from around the nation gave responses to each CUE (first) word. How many of these 100 students do you think would have given the RESPONSE (second) word?",,Instruct13,21254,,,-1,-1,,,,,1
w10046000_clt,0dlnavum7m,Nick_Dissertation_EX1,1,3,2020-09-06T16:42:25-07:00,18.986418962479,10,versionA_stim.csv,JAMVersionB.csv,"JAM Version B","Dissertation, JAM version B",,,,,,0,Instruct,-,10,"For example, if you are given the pair CAT - DOG, a rating of 0 indicates that DOG is not a commonly given response to the word CAT, while a score of 100 indicates that DOG would be a common response.",,Instruct14,18333,,,-1,-1,,,,,1
w10046000_clt,0dlnavum7m,Nick_Dissertation_EX1,1,4,2020-09-06T16:42:36-07:00,11.388833999634,10,versionA_stim.csv,JAMVersionB.csv,"JAM Version B","Dissertation, JAM version B",,,,,,0,Instruct,-,10,"When making your ratings, it is criticial that you use the full range of the scale. You will be disqualified for only giving ratings of 0 or 100! After making your rating, press Enter to advance to the next pair.",,Instruct15,10778,,,-1,-1,,,,,1
w10046000_clt,0dlnavum7m,Nick_Dissertation_EX1,1,5,2020-09-06T16:42:45-07:00,8.7597410678864,10,versionA_stim.csv,JAMVersionB.csv,"JAM Version B","Dissertation, JAM version B",,,,,,0,Instruct,User,-,"You will now begin the study. Press Enter when you are ready to begin.",,Instruct16,2373,,,-1,-1,,,,,1
w10046000_clt,0dlnavum7m,Nick_Dissertation_EX1,1,6,2020-09-06T16:42:58-07:00,12.494355916977,10,versionA_stim.csv,JAMVersionB.csv,"JAM Version B","Dissertation, JAM version B",SHRIMP,FISH,BUFFER3,Buffer,93,95,JAM,User,-,"How many people out of 100 do you think would respond with the second word if they were only shown the first?|Type your response on a scale from 0-100 and then press Enter.",Study/JOL,BUFFER,11914,,,10648,10764,,,,20,1
w10046000_clt,0dlnavum7m,Nick_Dissertation_EX1,1,7,2020-09-06T16:43:05-07:00,7.0045461654663,10,versionA_stim.csv,JAMVersionB.csv,"JAM Version B","Dissertation, JAM version B",ICE,FROZEN,BUFFER3,Buffer,94,93,JAM,User,-,"How many people out of 100 do you think would respond with the second word if they were only shown the first?|Type your response on a scale from 0-100 and then press Enter.",Study/JOL,BUFFER,6486,,,3282,4960,,,,96,1
w10046000_clt,0dlnavum7m,Nick_Dissertation_EX1,1,8,2020-09-06T16:43:12-07:00,7.0894079208374,10,versionA_stim.csv,JAMVersionB.csv,"JAM Version B","Dissertation, JAM version B",CAMP,ADVENTURE,BUFFER3,Buffer,95,94,JAM,User,-,"How many people out of 100 do you think would respond with the second word if they were only shown the first?|Type your response on a scale from 0-100 and then press Enter.",Study/JOL,BUFFER,6583,,,6029,6029,,,,6,1
w10046000_clt,0dlnavum7m,Nick_Dissertation_EX1,1,9,2020-09-06T16:43:16-07:00,3.8833780288696,10,versionA_stim.csv,JAMVersionB.csv,"JAM Version B","Dissertation, JAM version B",CARROT,POTATO,BUFFER3,Buffer,91,92,JAM,User,-,"How many people out of 100 do you think would respond with the second word if they were only shown the first?|Type your response on a scale from 0-100 and then press Enter.",Study/JOL,BUFFER,3447,,,2062,2062,,,,0,1
w10046000_clt,0dlnavum7m,Nick_Dissertation_EX1,1,10,2020-09-06T16:43:21-07:00,5.9714229106903,10,versionA_stim.csv,JAMVersionB.csv,"JAM Version B","Dissertation, JAM version B",NOODLE,STRING,BUFFER3,Buffer,92,96,JAM,User,-,"How many people out of 100 do you think would respond with the second word if they were only shown the first?|Type your response on a scale from 0-100 and then press Enter.",Study/JOL,BUFFER,4866,,,4040,4040,,,,1,1
w10046000_clt,0dlnavum7m,Nick_Dissertation_EX1,1,11,2020-09-06T16:43:28-07:00,6.0722231864929,10,versionA_stim.csv,JAMVersionB.csv,"JAM Version B","Dissertation, JAM version B",CANDLE,WAX,Study2,S,139,165,JAM,User,-,"How many people out of 100 do you think would respond with the second word if they were only shown the first?|Type your response on a scale from 0-100 and then press Enter.",Study/JOL,"Study Phase",5465,,,4897,5033,,,,55,1
w10046000_clt,0dlnavum7m,Nick_Dissertation_EX1,1,12,2020-09-06T16:43:33-07:00,5.2646918296814,10,versionA_stim.csv,JAMVersionB.csv,"JAM Version B","Dissertation, JAM version B",MULE,DONKEY,Study2,F,108,111,JAM,User,-,"How many people out of 100 do you think would respond with the second word if they were only shown the first?|Type your response on a scale from 0-100 and then press Enter.",Study/JOL,"Study Phase",4813,,,3438,4341,,,,60,1
w10046000_clt,0dlnavum7m,Nick_Dissertation_EX1,1,13,2020-09-06T16:43:37-07:00,4.4424841403961,10,versionA_stim.csv,JAMVersionB.csv,"JAM Version B","Dissertation, JAM version B",WATER,DRINK,Study2,S,143,130,JAM,User,-,"How many people out of 100 do you think would respond with the second word if they were only shown the first?|Type your response on a scale from 0-100 and then press Enter.",Study/JOL,"Study Phase",4040,,,3337,3554,,,,80,1
w10046000_clt,0dlnavum7m,Nick_Dissertation_EX1,1,14,2020-09-06T16:43:42-07:00,4.3855957984924,10,versionA_stim.csv,JAMVersionB.csv,"JAM Version B","Dissertation, JAM version B",BASEBALL,LEAGUE,Study2,B,131,171,JAM,User,-,"How many people out of 100 do you think would respond with the second word if they were only shown the first?|Type your response on a scale from 0-100 and then press Enter.",Study/JOL,"Study Phase",3955,,,3412,3579,,,,40,1
w10046000_clt,0dlnavum7m,Nick_Dissertation_EX1,1,15,2020-09-06T16:43:49-07:00,7.2485380172729,10,versionA_stim.csv,JAMVersionB.csv,"JAM Version B","Dissertation, JAM version B",GONE,AWAY,Study2,S,142,152,JAM,User,-,"How many people out of 100 do you think would respond with the second word if they were only shown the first?|Type your response on a scale from 0-100 and then press Enter.",Study/JOL,"Study Phase",4765,,,3971,4436,,,,70,1
w10046000_clt,0dlnavum7m,Nick_Dissertation_EX1,1,16,2020-09-06T16:43:54-07:00,5.3253040313721,10,versionA_stim.csv,JAMVersionB.csv,"JAM Version B","Dissertation, JAM version B",NAME,HATE,Study2,U,167,129,JAM,User,-,"How many people out of 100 do you think would respond with the second word if they were only shown the first?|Type your response on a scale from 0-100 and then press Enter.",Study/JOL,"Study Phase",4848,,,3893,3893,,,,0,1
w10046000_clt,0dlnavum7m,Nick_Dissertation_EX1,1,17,2020-09-06T16:43:59-07:00,5.0384521484375,10,versionA_stim.csv,JAMVersionB.csv,"JAM Version B","Dissertation, JAM version B",DRIVER,CAR,Study2,F,106,128,JAM,User,-,"How many people out of 100 do you think would respond with the second word if they were only shown the first?|Type your response on a scale from 0-100 and then press Enter.",Study/JOL,"Study Phase",4548,,,4096,4233,,,,30,1
w10046000_clt,0dlnavum7m,Nick_Dissertation_EX1,1,18,2020-09-06T16:44:02-07:00,3.1887059211731,10,versionA_stim.csv,JAMVersionB.csv,"JAM Version B","Dissertation, JAM version B",THREAD,THIMBLE,Study2,B,121,125,JAM,User,-,"How many people out of 100 do you think would respond with the second word if they were only shown the first?|Type your response on a scale from 0-100 and then press Enter.",Study/JOL,"Study Phase",2772,,,2192,2343,,,,50,1
w10046000_clt,0dlnavum7m,Nick_Dissertation_EX1,1,19,2020-09-06T16:44:06-07:00,3.3308329582214,10,versionA_stim.csv,JAMVersionB.csv,"JAM Version B","Dissertation, JAM version B",STRETCH,CLOTH,Study2,U,157,175,JAM,User,-,"How many people out of 100 do you think would respond with the second word if they were only shown the first?|Type your response on a scale from 0-100 and then press Enter.",Study/JOL,"Study Phase",2923,,,2456,2456,,,,0,1
w10046000_clt,0dlnavum7m,Nick_Dissertation_EX1,1,20,2020-09-06T16:44:12-07:00,6.0586440563202,10,versionA_stim.csv,JAMVersionB.csv,"JAM Version B","Dissertation, JAM version B",TANTRUM,TEMPER,Study2,S,154,126,JAM,User,-,"How many people out of 100 do you think would respond with the second word if they were only shown the first?|Type your response on a scale from 0-100 and then press Enter.",Study/JOL,"Study Phase",5454,,,4766,4862,,,,90,1
w10046000_clt,0dlnavum7m,Nick_Dissertation_EX1,1,21,2020-09-06T16:44:16-07:00,4.4222989082336,10,versionA_stim.csv,JAMVersionB.csv,"JAM Version B","Dissertation, JAM version B",MEAT,OBTAIN,Study2,U,161,109,JAM,User,-,"How many people out of 100 do you think would respond with the second word if they were only shown the first?|Type your response on a scale from 0-100 and then press Enter.",Study/JOL,"Study Phase",3493,,,2423,2423,,,,0,1
w10046000_clt,0dlnavum7m,Nick_Dissertation_EX1,1,22,2020-09-06T16:44:20-07:00,3.3471031188965,10,versionA_stim.csv,JAMVersionB.csv,"JAM Version B","Dissertation, JAM version B",BOTH,OUNCE,Study2,U,172,127,JAM,User,-,"How many people out of 100 do you think would respond with the second word if they were only shown the first?|Type your response on a scale from 0-100 and then press Enter.",Study/JOL,"Study Phase",2779,,,2389,2389,,,,0,1
w10046000_clt,0dlnavum7m,Nick_Dissertation_EX1,1,23,2020-09-06T16:44:24-07:00,3.8993289470673,10,versionA_stim.csv,JAMVersionB.csv,"JAM Version B","Dissertation, JAM version B",VEHICLE,CHARM,Study2,U,160,116,JAM,User,-,"How many people out of 100 do you think would respond with the second word if they were only shown the first?|Type your response on a scale from 0-100 and then press Enter.",Study/JOL,"Study Phase",3421,,,3066,3066,,,,0,1
w10046000_clt,0dlnavum7m,Nick_Dissertation_EX1,1,24,2020-09-06T16:44:29-07:00,5.0006721019745,10,versionA_stim.csv,JAMVersionB.csv,"JAM Version B","Dissertation, JAM version B",INCENSE,SMELL,Study2,F,110,146,JAM,User,-,"How many people out of 100 do you think would respond with the second word if they were only shown the first?|Type your response on a scale from 0-100 and then press Enter.",Study/JOL,"Study Phase",4518,,,4203,4203,,,,1,1
w10046000_clt,0dlnavum7m,Nick_Dissertation_EX1,1,25,2020-09-06T16:44:33-07:00,4.103658914566,10,versionA_stim.csv,JAMVersionB.csv,"JAM Version B","Dissertation, JAM version B",MIRROR,CHILDREN,Study2,U,174,163,JAM,User,-,"How many people out of 100 do you think would respond with the second word if they were only shown the first?|Type your response on a scale from 0-100 and then press Enter.",Study/JOL,"Study Phase",3607,,,3166,3166,,,,4,1
w10046000_clt,0dlnavum7m,Nick_Dissertation_EX1,1,26,2020-09-06T16:44:39-07:00,6.5915579795837,10,versionA_stim.csv,JAMVersionB.csv,"JAM Version B","Dissertation, JAM version B",FRUIT,STRAWBERRY,Study2,B,124,98,JAM,User,-,"How many people out of 100 do you think would respond with the second word if they were only shown the first?|Type your response on a scale from 0-100 and then press Enter.",Study/JOL,"Study Phase",5367,,,3488,3571,,,,60,1
w10046000_clt,0dlnavum7m,Nick_Dissertation_EX1,1,27,2020-09-06T16:44:44-07:00,4.3811841011047,10,versionA_stim.csv,JAMVersionB.csv,"JAM Version B","Dissertation, JAM version B",PLANE,AIRCRAFT,Study2,B,129,124,JAM,User,-,"How many people out of 100 do you think would respond with the second word if they were only shown the first?|Type your response on a scale from 0-100 and then press Enter.",Study/JOL,"Study Phase",3856,,,3253,3531,,,,60,1
w10046000_clt,0dlnavum7m,Nick_Dissertation_EX1,1,28,2020-09-06T16:44:50-07:00,5.9741938114166,10,versionA_stim.csv,JAMVersionB.csv,"JAM Version B","Dissertation, JAM version B",CRACKLE,ABLE,Study2,U,162,137,JAM,User,-,"How many people out of 100 do you think would respond with the second word if they were only shown the first?|Type your response on a scale from 0-100 and then press Enter.",Study/JOL,"Study Phase",5279,,,4785,4888,,,,10,1
w10046000_clt,0dlnavum7m,Nick_Dissertation_EX1,1,29,2020-09-06T16:44:58-07:00,8.6750321388245,10,versionA_stim.csv,JAMVersionB.csv,"JAM Version B","Dissertation, JAM version B",DOCUMENT,PAPER,Study2,F,109,119,JAM,User,-,"How many people out of 100 do you think would respond with the second word if they were only shown the first?|Type your response on a scale from 0-100 and then press Enter.",Study/JOL,"Study Phase",8269,,,7680,7857,,,,50,1
w10046000_clt,0dlnavum7m,Nick_Dissertation_EX1,1,30,2020-09-06T16:45:01-07:00,3.1092329025269,10,versionA_stim.csv,JAMVersionB.csv,"JAM Version B","Dissertation, JAM version B",MAIN,SCAR,Study2,U,175,135,JAM,User,-,"How many people out of 100 do you think would respond with the second word if they were only shown the first?|Type your response on a scale from 0-100 and then press Enter.",Study/JOL,"Study Phase",2550,,,1970,1970,,,,0,1
w10046000_clt,0dlnavum7m,Nick_Dissertation_EX1,1,31,2020-09-06T16:45:10-07:00,9.0688021183014,10,versionA_stim.csv,JAMVersionB.csv,"JAM Version B","Dissertation, JAM version B",ROD,REEL,Study2,S,150,114,JAM,User,-,"How many people out of 100 do you think would respond with the second word if they were only shown the first?|Type your response on a scale from 0-100 and then press Enter.",Study/JOL,"Study Phase",8148,,,7634,7805,,,,30,1
w10046000_clt,0dlnavum7m,Nick_Dissertation_EX1,1,32,2020-09-06T16:45:15-07:00,4.8049559593201,10,versionA_stim.csv,JAMVersionB.csv,"JAM Version B","Dissertation, JAM version B",STAR,ACTRESS,Study2,B,120,102,JAM,User,-,"How many people out of 100 do you think would respond with the second word if they were only shown the first?|Type your response on a scale from 0-100 and then press Enter.",Study/JOL,"Study Phase",3362,,,2782,2943,,,,40,1
w10046000_clt,0dlnavum7m,Nick_Dissertation_EX1,1,33,2020-09-06T16:45:20-07:00,4.5187890529633,10,versionA_stim.csv,JAMVersionB.csv,"JAM Version B","Dissertation, JAM version B",MASON,JAR,Study2,S,138,164,JAM,User,-,"How many people out of 100 do you think would respond with the second word if they were only shown the first?|Type your response on a scale from 0-100 and then press Enter.",Study/JOL,"Study Phase",4025,,,2667,3643,,,,100,1
w10046000_clt,0dlnavum7m,Nick_Dissertation_EX1,1,34,2020-09-06T16:45:27-07:00,6.9006099700928,10,versionA_stim.csv,JAMVersionB.csv,"JAM Version B","Dissertation, JAM version B",CLUE,GAME,Study2,F,97,131,JAM,User,-,"How many people out of 100 do you think would respond with the second word if they were only shown the first?|Type your response on a scale from 0-100 and then press Enter.",Study/JOL,"Study Phase",5552,,,5166,5346,,,,45,1
w10046000_clt,0dlnavum7m,Nick_Dissertation_EX1,1,35,2020-09-06T16:45:32-07:00,5.7390110492706,10,versionA_stim.csv,JAMVersionB.csv,"JAM Version B","Dissertation, JAM version B",ALONE,LONELY,Study2,S,145,173,JAM,User,-,"How many people out of 100 do you think would respond with the second word if they were only shown the first?|Type your response on a scale from 0-100 and then press Enter.",Study/JOL,"Study Phase",4992,,,4500,4622,,,,80,1
w10046000_clt,0dlnavum7m,Nick_Dissertation_EX1,1,36,2020-09-06T16:45:37-07:00,4.3948209285736,10,versionA_stim.csv,JAMVersionB.csv,"JAM Version B","Dissertation, JAM version B",EVEN,REVENGE,Study2,B,122,158,JAM,User,-,"How many people out of 100 do you think would respond with the second word if they were only shown the first?|Type your response on a scale from 0-100 and then press Enter.",Study/JOL,"Study Phase",3733,,,3335,3430,,,,20,1
w10046000_clt,0dlnavum7m,Nick_Dissertation_EX1,1,37,2020-09-06T16:45:41-07:00,4.037437915802,10,versionA_stim.csv,JAMVersionB.csv,"JAM Version B","Dissertation, JAM version B",CHOP,CUT,Study2,F,107,100,JAM,User,-,"How many people out of 100 do you think would respond with the second word if they were only shown the first?|Type your response on a scale from 0-100 and then press Enter.",Study/JOL,"Study Phase",3628,,,3155,3290,,,,80,1
w10046000_clt,0dlnavum7m,Nick_Dissertation_EX1,1,38,2020-09-06T16:45:43-07:00,2.6596260070801,10,versionA_stim.csv,JAMVersionB.csv,"JAM Version B","Dissertation, JAM version B",JUSTICE,MAROON,Study2,U,156,148,JAM,User,-,"How many people out of 100 do you think would respond with the second word if they were only shown the first?|Type your response on a scale from 0-100 and then press Enter.",Study/JOL,"Study Phase",2207,,,1738,1738,,,,0,1
w10046000_clt,0dlnavum7m,Nick_Dissertation_EX1,1,39,2020-09-06T16:45:47-07:00,3.4673631191254,10,versionA_stim.csv,JAMVersionB.csv,"JAM Version B","Dissertation, JAM version B",PHONE,COMMUNICATION,Study2,S,149,139,JAM,User,-,"How many people out of 100 do you think would respond with the second word if they were only shown the first?|Type your response on a scale from 0-100 and then press Enter.",Study/JOL,"Study Phase",3056,,,2611,2742,,,,60,1
w10046000_clt,0dlnavum7m,Nick_Dissertation_EX1,1,40,2020-09-06T16:45:53-07:00,5.8926558494568,10,versionA_stim.csv,JAMVersionB.csv,"JAM Version B","Dissertation, JAM version B",LITTER,TRASH,Study2,F,103,167,JAM,User,-,"How many people out of 100 do you think would respond with the second word if they were only shown the first?|Type your response on a scale from 0-100 and then press Enter.",Study/JOL,"Study Phase",5311,,,4824,4967,,,,70,1
w10046000_clt,0dlnavum7m,Nick_Dissertation_EX1,1,41,2020-09-06T16:45:56-07:00,3.2591371536255,10,versionA_stim.csv,JAMVersionB.csv,"JAM Version B","Dissertation, JAM version B",LOAN,SIGN,Study2,U,171,172,JAM,User,-,"How many people out of 100 do you think would respond with the second word if they were only shown the first?|Type your response on a scale from 0-100 and then press Enter.",Study/JOL,"Study Phase",2828,,,2420,2420,,,,0,1
w10046000_clt,0dlnavum7m,Nick_Dissertation_EX1,1,42,2020-09-06T16:45:59-07:00,3.0770139694214,10,versionA_stim.csv,JAMVersionB.csv,"JAM Version B","Dissertation, JAM version B",GLASS,BREAKABLE,Study2,B,127,162,JAM,User,-,"How many people out of 100 do you think would respond with the second word if they were only shown the first?|Type your response on a scale from 0-100 and then press Enter.",Study/JOL,"Study Phase",2713,,,2263,2382,,,,30,1
w10046000_clt,0dlnavum7m,Nick_Dissertation_EX1,1,43,2020-09-06T16:46:02-07:00,3.3192629814148,10,versionA_stim.csv,JAMVersionB.csv,"JAM Version B","Dissertation, JAM version B",SUN,TAN,Study2,S,155,176,JAM,User,-,"How many people out of 100 do you think would respond with the second word if they were only shown the first?|Type your response on a scale from 0-100 and then press Enter.",Study/JOL,"Study Phase",2942,,,2165,2580,,,,100,1
w10046000_clt,0dlnavum7m,Nick_Dissertation_EX1,1,44,2020-09-06T16:46:08-07:00,5.8013188838959,10,versionA_stim.csv,JAMVersionB.csv,"JAM Version B","Dissertation, JAM version B",TRUTH,LIE,Study2,S,148,159,JAM,User,-,"How many people out of 100 do you think would respond with the second word if they were only shown the first?|Type your response on a scale from 0-100 and then press Enter.",Study/JOL,"Study Phase",5077,,,4331,4778,,,,60,1
w10046000_clt,0dlnavum7m,Nick_Dissertation_EX1,1,45,2020-09-06T16:46:15-07:00,6.4115550518036,10,versionA_stim.csv,JAMVersionB.csv,"JAM Version B","Dissertation, JAM version B",FEUD,FIGHT,Study2,F,113,120,JAM,User,-,"How many people out of 100 do you think would respond with the second word if they were only shown the first?|Type your response on a scale from 0-100 and then press Enter.",Study/JOL,"Study Phase",5512,,,5055,5201,,,,40,1
w10046000_clt,0dlnavum7m,Nick_Dissertation_EX1,1,46,2020-09-06T16:46:21-07:00,6.1401219367981,10,versionA_stim.csv,JAMVersionB.csv,"JAM Version B","Dissertation, JAM version B",SHOELACE,TIE,Study2,F,99,157,JAM,User,-,"How many people out of 100 do you think would respond with the second word if they were only shown the first?|Type your response on a scale from 0-100 and then press Enter.",Study/JOL,"Study Phase",5578,,,5185,5272,,,,30,1
w10046000_clt,0dlnavum7m,Nick_Dissertation_EX1,1,47,2020-09-06T16:46:24-07:00,3.6064541339874,10,versionA_stim.csv,JAMVersionB.csv,"JAM Version B","Dissertation, JAM version B",ADJOURN,END,Study2,F,101,151,JAM,User,-,"How many people out of 100 do you think would respond with the second word if they were only shown the first?|Type your response on a scale from 0-100 and then press Enter.",Study/JOL,"Study Phase",3181,,,1038,2866,,,,10,1
w10046000_clt,0dlnavum7m,Nick_Dissertation_EX1,1,48,2020-09-06T16:46:28-07:00,3.7543919086456,10,versionA_stim.csv,JAMVersionB.csv,"JAM Version B","Dissertation, JAM version B",BIRD,PENGUIN,Study2,B,119,136,JAM,User,-,"How many people out of 100 do you think would respond with the second word if they were only shown the first?|Type your response on a scale from 0-100 and then press Enter.",Study/JOL,"Study Phase",3333,,,2925,3049,,,,10,1
w10046000_clt,0dlnavum7m,Nick_Dissertation_EX1,1,49,2020-09-06T16:46:32-07:00,3.6847751140594,10,versionA_stim.csv,JAMVersionB.csv,"JAM Version B","Dissertation, JAM version B",LOUD,NOISE,Study2,S,152,101,JAM,User,-,"How many people out of 100 do you think would respond with the second word if they were only shown the first?|Type your response on a scale from 0-100 and then press Enter.",Study/JOL,"Study Phase",3233,,,2668,2848,,,,90,1
w10046000_clt,0dlnavum7m,Nick_Dissertation_EX1,1,50,2020-09-06T16:46:35-07:00,2.8046350479126,10,versionA_stim.csv,JAMVersionB.csv,"JAM Version B","Dissertation, JAM version B",MOAT,CLEAR,Study2,U,169,169,JAM,User,-,"How many people out of 100 do you think would respond with the second word if they were only shown the first?|Type your response on a scale from 0-100 and then press Enter.",Study/JOL,"Study Phase",2408,,,2075,2075,,,,0,1
w10046000_clt,0dlnavum7m,Nick_Dissertation_EX1,1,51,2020-09-06T16:46:39-07:00,4.5287899971008,10,versionA_stim.csv,JAMVersionB.csv,"JAM Version B","Dissertation, JAM version B",SAFETY,SEATBELT,Study2,S,147,134,JAM,User,-,"How many people out of 100 do you think would respond with the second word if they were only shown the first?|Type your response on a scale from 0-100 and then press Enter.",Study/JOL,"Study Phase",4088,,,3597,3761,,,,60,1
w10046000_clt,0dlnavum7m,Nick_Dissertation_EX1,1,52,2020-09-06T16:46:44-07:00,4.5260379314423,10,versionA_stim.csv,JAMVersionB.csv,"JAM Version B","Dissertation, JAM version B",CAT,PANTHER,Study2,B,126,142,JAM,User,-,"How many people out of 100 do you think would respond with the second word if they were only shown the first?|Type your response on a scale from 0-100 and then press Enter.",Study/JOL,"Study Phase",4114,,,1361,3242,,,,1,1
w10046000_clt,0dlnavum7m,Nick_Dissertation_EX1,1,53,2020-09-06T16:46:47-07:00,3.7083120346069,10,versionA_stim.csv,JAMVersionB.csv,"JAM Version B","Dissertation, JAM version B",Shell,SHAKE,Study2,U,163,115,JAM,User,-,"How many people out of 100 do you think would respond with the second word if they were only shown the first?|Type your response on a scale from 0-100 and then press Enter.",Study/JOL,"Study Phase",3296,,,2955,2955,,,,0,1
w10046000_clt,0dlnavum7m,Nick_Dissertation_EX1,1,54,2020-09-06T16:46:52-07:00,4.7986178398132,10,versionA_stim.csv,JAMVersionB.csv,"JAM Version B","Dissertation, JAM version B",ELEMENT,CARBON,Study2,S,141,97,JAM,User,-,"How many people out of 100 do you think would respond with the second word if they were only shown the first?|Type your response on a scale from 0-100 and then press Enter.",Study/JOL,"Study Phase",4198,,,3752,3817,,,,12,1
w10046000_clt,0dlnavum7m,Nick_Dissertation_EX1,1,55,2020-09-06T16:46:54-07:00,2.2483839988708,10,versionA_stim.csv,JAMVersionB.csv,"JAM Version B","Dissertation, JAM version B",DETECTIVE,MYSTERY,Study2,F,100,166,JAM,User,-,"How many people out of 100 do you think would respond with the second word if they were only shown the first?|Type your response on a scale from 0-100 and then press Enter.",Study/JOL,"Study Phase",1347,,,875,961,,,,13,1
w10046000_clt,0dlnavum7m,Nick_Dissertation_EX1,1,56,2020-09-06T16:46:57-07:00,2.0715270042419,10,versionA_stim.csv,JAMVersionB.csv,"JAM Version B","Dissertation, JAM version B",EXTENSION,LONG,Study2,F,96,123,JAM,User,-,"How many people out of 100 do you think would respond with the second word if they were only shown the first?|Type your response on a scale from 0-100 and then press Enter.",Study/JOL,"Study Phase",1724,,,1347,1434,,,,14,1
w10046000_clt,0dlnavum7m,Nick_Dissertation_EX1,1,57,2020-09-06T16:47:00-07:00,3.4365191459656,10,versionA_stim.csv,JAMVersionB.csv,"JAM Version B","Dissertation, JAM version B",KEYS,JOKE,Study2,U,165,160,JAM,User,-,"How many people out of 100 do you think would respond with the second word if they were only shown the first?|Type your response on a scale from 0-100 and then press Enter.",Study/JOL,"Study Phase",3008,,,2666,2666,,,,0,1
w10046000_clt,0dlnavum7m,Nick_Dissertation_EX1,1,58,2020-09-06T16:47:03-07:00,3.1173958778381,10,versionA_stim.csv,JAMVersionB.csv,"JAM Version B","Dissertation, JAM version B",EARTH,GROUND,Study2,S,144,108,JAM,User,-,"How many people out of 100 do you think would respond with the second word if they were only shown the first?|Type your response on a scale from 0-100 and then press Enter.",Study/JOL,"Study Phase",2745,,,2280,2430,,,,20,1
w10046000_clt,0dlnavum7m,Nick_Dissertation_EX1,1,59,2020-09-06T16:47:06-07:00,3.0104689598083,10,versionA_stim.csv,JAMVersionB.csv,"JAM Version B","Dissertation, JAM version B",HONEST,TRUTHFUL,Study2,B,133,161,JAM,User,-,"How many people out of 100 do you think would respond with the second word if they were only shown the first?|Type your response on a scale from 0-100 and then press Enter.",Study/JOL,"Study Phase",2677,,,2217,2339,,,,70,1
w10046000_clt,0dlnavum7m,Nick_Dissertation_EX1,1,60,2020-09-06T16:47:10-07:00,3.8887271881104,10,versionA_stim.csv,JAMVersionB.csv,"JAM Version B","Dissertation, JAM version B",WRIST,BRACELET,Study2,S,140,113,JAM,User,-,"How many people out of 100 do you think would respond with the second word if they were only shown the first?|Type your response on a scale from 0-100 and then press Enter.",Study/JOL,"Study Phase",3532,,,3066,3105,,,,80,1
w10046000_clt,0dlnavum7m,Nick_Dissertation_EX1,1,61,2020-09-06T16:47:13-07:00,3.3416819572449,10,versionA_stim.csv,JAMVersionB.csv,"JAM Version B","Dissertation, JAM version B",MONEY,BANKER,Study2,B,132,99,JAM,User,-,"How many people out of 100 do you think would respond with the second word if they were only shown the first?|Type your response on a scale from 0-100 and then press Enter.",Study/JOL,"Study Phase",2940,,,2551,2599,,,,80,1
w10046000_clt,0dlnavum7m,Nick_Dissertation_EX1,1,62,2020-09-06T16:47:16-07:00,2.8855109214783,10,versionA_stim.csv,JAMVersionB.csv,"JAM Version B","Dissertation, JAM version B",SCALP,HEAD,Study2,F,105,174,JAM,User,-,"How many people out of 100 do you think would respond with the second word if they were only shown the first?|Type your response on a scale from 0-100 and then press Enter.",Study/JOL,"Study Phase",2526,,,2096,2197,,,,60,1
w10046000_clt,0dlnavum7m,Nick_Dissertation_EX1,1,63,2020-09-06T16:47:22-07:00,5.5641770362854,10,versionA_stim.csv,JAMVersionB.csv,"JAM Version B","Dissertation, JAM version B",CHILL,COLD,Study2,F,114,140,JAM,User,-,"How many people out of 100 do you think would respond with the second word if they were only shown the first?|Type your response on a scale from 0-100 and then press Enter.",Study/JOL,"Study Phase",4690,,,1269,4421,,,,100,1
w10046000_clt,0dlnavum7m,Nick_Dissertation_EX1,1,64,2020-09-06T16:47:26-07:00,4.2000811100006,10,versionA_stim.csv,JAMVersionB.csv,"JAM Version B","Dissertation, JAM version B",FIGHT,BRAWL,Study2,B,135,147,JAM,User,-,"How many people out of 100 do you think would respond with the second word if they were only shown the first?|Type your response on a scale from 0-100 and then press Enter.",Study/JOL,"Study Phase",3217,,,2818,2925,,,,50,1
w10046000_clt,0dlnavum7m,Nick_Dissertation_EX1,1,65,2020-09-06T16:47:53-07:00,26.965621948242,10,versionA_stim.csv,JAMVersionB.csv,"JAM Version B","Dissertation, JAM version B",FISH,SARDINE,Study2,B,130,156,JAM,User,-,"How many people out of 100 do you think would respond with the second word if they were only shown the first?|Type your response on a scale from 0-100 and then press Enter.",Study/JOL,"Study Phase",25835,,,25170,25452,,,,70,1
w10046000_clt,0dlnavum7m,Nick_Dissertation_EX1,1,66,2020-09-06T16:48:02-07:00,9.0091369152069,10,versionA_stim.csv,JAMVersionB.csv,"JAM Version B","Dissertation, JAM version B",MAZE,ELECTION,Study2,U,159,155,JAM,User,-,"How many people out of 100 do you think would respond with the second word if they were only shown the first?|Type your response on a scale from 0-100 and then press Enter.",Study/JOL,"Study Phase",7130,,,6743,6743,,,,0,1
w10046000_clt,0dlnavum7m,Nick_Dissertation_EX1,1,67,2020-09-06T16:48:22-07:00,19.888461112976,10,versionA_stim.csv,JAMVersionB.csv,"JAM Version B","Dissertation, JAM version B",DRY,WET,Study2,S,146,110,JAM,User,-,"How many people out of 100 do you think would respond with the second word if they were only shown the first?|Type your response on a scale from 0-100 and then press Enter.",Study/JOL,"Study Phase",18124,,,17728,17836,,,,30,1
w10046000_clt,0dlnavum7m,Nick_Dissertation_EX1,1,68,2020-09-06T16:48:25-07:00,2.7842609882355,10,versionA_stim.csv,JAMVersionB.csv,"JAM Version B","Dissertation, JAM version B",CACTUS,PLANT,Study2,F,98,118,JAM,User,-,"How many people out of 100 do you think would respond with the second word if they were only shown the first?|Type your response on a scale from 0-100 and then press Enter.",Study/JOL,"Study Phase",2356,,,1946,2087,,,,50,1
w10046000_clt,0dlnavum7m,Nick_Dissertation_EX1,1,69,2020-09-06T16:48:29-07:00,4.5281388759613,10,versionA_stim.csv,JAMVersionB.csv,"JAM Version B","Dissertation, JAM version B",BAD,VILLAIN,Study2,B,118,132,JAM,User,-,"How many people out of 100 do you think would respond with the second word if they were only shown the first?|Type your response on a scale from 0-100 and then press Enter.",Study/JOL,"Study Phase",4070,,,3654,3784,,,,70,1
w10046000_clt,0dlnavum7m,Nick_Dissertation_EX1,1,70,2020-09-06T16:48:32-07:00,2.5314371585846,10,versionA_stim.csv,JAMVersionB.csv,"JAM Version B","Dissertation, JAM version B",SLEEP,NAP,Study2,B,134,150,JAM,User,-,"How many people out of 100 do you think would respond with the second word if they were only shown the first?|Type your response on a scale from 0-100 and then press Enter.",Study/JOL,"Study Phase",2097,,,1588,1880,,,,100,1
w10046000_clt,0dlnavum7m,Nick_Dissertation_EX1,1,71,2020-09-06T16:49:10-07:00,37.824471950531,10,versionA_stim.csv,JAMVersionB.csv,"JAM Version B","Dissertation, JAM version B",SHEARS,SCISSORS,Study2,F,112,112,JAM,User,-,"How many people out of 100 do you think would respond with the second word if they were only shown the first?|Type your response on a scale from 0-100 and then press Enter.",Study/JOL,"Study Phase",37042,,,36551,36738,,,,40,1
w10046000_clt,0dlnavum7m,Nick_Dissertation_EX1,1,72,2020-09-06T16:49:18-07:00,8.6309599876404,10,versionA_stim.csv,JAMVersionB.csv,"JAM Version B","Dissertation, JAM version B",CAR,WINDSHIELD,Study2,B,117,121,JAM,User,-,"How many people out of 100 do you think would respond with the second word if they were only shown the first?|Type your response on a scale from 0-100 and then press Enter.",Study/JOL,"Study Phase",6312,,,5481,6011,,,,30,1
w10046000_clt,0dlnavum7m,Nick_Dissertation_EX1,1,73,2020-09-06T16:49:22-07:00,4.1325628757477,10,versionA_stim.csv,JAMVersionB.csv,"JAM Version B","Dissertation, JAM version B",RAZOR,SHAVE,Study2,S,136,168,JAM,User,-,"How many people out of 100 do you think would respond with the second word if they were only shown the first?|Type your response on a scale from 0-100 and then press Enter.",Study/JOL,"Study Phase",3549,,,3268,3343,,,,76,1
w10046000_clt,0dlnavum7m,Nick_Dissertation_EX1,1,74,2020-09-06T16:49:26-07:00,3.3235120773315,10,versionA_stim.csv,JAMVersionB.csv,"JAM Version B","Dissertation, JAM version B",DINE,EAT,Study2,F,111,107,JAM,User,-,"How many people out of 100 do you think would respond with the second word if they were only shown the first?|Type your response on a scale from 0-100 and then press Enter.",Study/JOL,"Study Phase",2907,,,2182,2592,,,,89,1
w10046000_clt,0dlnavum7m,Nick_Dissertation_EX1,1,75,2020-09-06T16:49:28-07:00,2.6694619655609,10,versionA_stim.csv,JAMVersionB.csv,"JAM Version B","Dissertation, JAM version B",TEMPERATURE,Morning,Study2,U,173,141,JAM,User,-,"How many people out of 100 do you think would respond with the second word if they were only shown the first?|Type your response on a scale from 0-100 and then press Enter.",Study/JOL,"Study Phase",2265,,,1694,1694,,,,0,1
w10046000_clt,0dlnavum7m,Nick_Dissertation_EX1,1,76,2020-09-06T16:49:32-07:00,3.3681180477142,10,versionA_stim.csv,JAMVersionB.csv,"JAM Version B","Dissertation, JAM version B",RIGHTS,EQUAL,Study2,S,137,133,JAM,User,-,"How many people out of 100 do you think would respond with the second word if they were only shown the first?|Type your response on a scale from 0-100 and then press Enter.",Study/JOL,"Study Phase",2952,,,2467,2622,,,,60,1
w10046000_clt,0dlnavum7m,Nick_Dissertation_EX1,1,77,2020-09-06T16:49:35-07:00,3.2438039779663,10,versionA_stim.csv,JAMVersionB.csv,"JAM Version B","Dissertation, JAM version B",LEASE,TOIL,Study2,U,170,153,JAM,User,-,"How many people out of 100 do you think would respond with the second word if they were only shown the first?|Type your response on a scale from 0-100 and then press Enter.",Study/JOL,"Study Phase",2843,,,2503,2503,,,,0,1
w10046000_clt,0dlnavum7m,Nick_Dissertation_EX1,1,78,2020-09-06T16:49:41-07:00,6.5187261104584,10,versionA_stim.csv,JAMVersionB.csv,"JAM Version B","Dissertation, JAM version B",POP,BALLOON,Study2,B,123,145,JAM,User,-,"How many people out of 100 do you think would respond with the second word if they were only shown the first?|Type your response on a scale from 0-100 and then press Enter.",Study/JOL,"Study Phase",5918,,,2326,5618,,,,60,1
w10046000_clt,0dlnavum7m,Nick_Dissertation_EX1,1,79,2020-09-06T16:49:46-07:00,4.3758080005646,10,versionA_stim.csv,JAMVersionB.csv,"JAM Version B","Dissertation, JAM version B",BEST,FAVORITE,Study2,B,125,105,JAM,User,-,"How many people out of 100 do you think would respond with the second word if they were only shown the first?|Type your response on a scale from 0-100 and then press Enter.",Study/JOL,"Study Phase",3960,,,3567,3614,,,,90,1
w10046000_clt,0dlnavum7m,Nick_Dissertation_EX1,1,80,2020-09-06T16:49:49-07:00,2.8362607955933,10,versionA_stim.csv,JAMVersionB.csv,"JAM Version B","Dissertation, JAM version B",FLEA,TICK,Study2,S,151,106,JAM,User,-,"How many people out of 100 do you think would respond with the second word if they were only shown the first?|Type your response on a scale from 0-100 and then press Enter.",Study/JOL,"Study Phase",2451,,,1772,2202,,,,100,1
w10046000_clt,0dlnavum7m,Nick_Dissertation_EX1,1,81,2020-09-06T16:49:51-07:00,2.6300210952759,10,versionA_stim.csv,JAMVersionB.csv,"JAM Version B","Dissertation, JAM version B",GIVE,STEAK,Study2,U,158,104,JAM,User,-,"How many people out of 100 do you think would respond with the second word if they were only shown the first?|Type your response on a scale from 0-100 and then press Enter.",Study/JOL,"Study Phase",2261,,,1670,1670,,,,0,1
w10046000_clt,0dlnavum7m,Nick_Dissertation_EX1,1,82,2020-09-06T16:49:55-07:00,3.6068050861359,10,versionA_stim.csv,JAMVersionB.csv,"JAM Version B","Dissertation, JAM version B",TURN,FLIP,Study2,B,116,144,JAM,User,-,"How many people out of 100 do you think would respond with the second word if they were only shown the first?|Type your response on a scale from 0-100 and then press Enter.",Study/JOL,"Study Phase",3216,,,2793,2917,,,,20,1
w10046000_clt,0dlnavum7m,Nick_Dissertation_EX1,1,83,2020-09-06T16:49:57-07:00,2.3480930328369,10,versionA_stim.csv,JAMVersionB.csv,"JAM Version B","Dissertation, JAM version B",LISTEN,FICTION,Study2,U,164,117,JAM,User,-,"How many people out of 100 do you think would respond with the second word if they were only shown the first?|Type your response on a scale from 0-100 and then press Enter.",Study/JOL,"Study Phase",1957,,,1513,1513,,,,0,1
w10046000_clt,0dlnavum7m,Nick_Dissertation_EX1,1,84,2020-09-06T16:50:00-07:00,2.7752017974854,10,versionA_stim.csv,JAMVersionB.csv,"JAM Version B","Dissertation, JAM version B",DEAD,COFFIN,Study2,B,128,154,JAM,User,-,"How many people out of 100 do you think would respond with the second word if they were only shown the first?|Type your response on a scale from 0-100 and then press Enter.",Study/JOL,"Study Phase",2367,,,1908,2152,,,,100,1
w10046000_clt,0dlnavum7m,Nick_Dissertation_EX1,1,85,2020-09-06T16:50:03-07:00,3.2424840927124,10,versionA_stim.csv,JAMVersionB.csv,"JAM Version B","Dissertation, JAM version B",FURRY,DOG,Study2,F,102,170,JAM,User,-,"How many people out of 100 do you think would respond with the second word if they were only shown the first?|Type your response on a scale from 0-100 and then press Enter.",Study/JOL,"Study Phase",2844,,,2450,2566,,,,60,1
w10046000_clt,0dlnavum7m,Nick_Dissertation_EX1,1,86,2020-09-06T16:50:05-07:00,2.2495050430298,10,versionA_stim.csv,JAMVersionB.csv,"JAM Version B","Dissertation, JAM version B",FUZZY,BANG,Study2,U,168,143,JAM,User,-,"How many people out of 100 do you think would respond with the second word if they were only shown the first?|Type your response on a scale from 0-100 and then press Enter.",Study/JOL,"Study Phase",1791,,,1298,1299,,,,0,1
w10046000_clt,0dlnavum7m,Nick_Dissertation_EX1,1,87,2020-09-06T16:50:11-07:00,5.5050768852234,10,versionA_stim.csv,JAMVersionB.csv,"JAM Version B","Dissertation, JAM version B",CHERRY,RED,Study2,F,104,149,JAM,User,-,"How many people out of 100 do you think would respond with the second word if they were only shown the first?|Type your response on a scale from 0-100 and then press Enter.",Study/JOL,"Study Phase",5082,,,2073,4766,,,,80,1
w10046000_clt,0dlnavum7m,Nick_Dissertation_EX1,1,88,2020-09-06T16:50:20-07:00,9.0651199817657,10,versionA_stim.csv,JAMVersionB.csv,"JAM Version B","Dissertation, JAM version B",CAKE,CLOTHES,Study2,U,166,122,JAM,User,-,"How many people out of 100 do you think would respond with the second word if they were only shown the first?|Type your response on a scale from 0-100 and then press Enter.",Study/JOL,"Study Phase",8170,,,7832,7832,,,,0,1
w10046000_clt,0dlnavum7m,Nick_Dissertation_EX1,1,89,2020-09-06T16:50:24-07:00,3.7460691928864,10,versionA_stim.csv,JAMVersionB.csv,"JAM Version B","Dissertation, JAM version B",OWN,HAVE,Study2,S,153,138,JAM,User,-,"How many people out of 100 do you think would respond with the second word if they were only shown the first?|Type your response on a scale from 0-100 and then press Enter.",Study/JOL,"Study Phase",3282,,,2779,3062,,,,100,1
w10046000_clt,0dlnavum7m,Nick_Dissertation_EX1,1,90,2020-09-06T16:50:27-07:00,2.7676877975464,10,versionA_stim.csv,JAMVersionB.csv,"JAM Version B","Dissertation, JAM version B",AFFECTION,LOVE,Study2,F,115,103,JAM,User,-,"How many people out of 100 do you think would respond with the second word if they were only shown the first?|Type your response on a scale from 0-100 and then press Enter.",Study/JOL,"Study Phase",2394,,,1946,1992,,,,80,1
w10046000_clt,0dlnavum7m,Nick_Dissertation_EX1,1,91,2020-09-06T16:50:30-07:00,3.6432092189789,10,versionA_stim.csv,JAMVersionB.csv,"JAM Version B","Dissertation, JAM version B",OCTOBER,SPOOKY,BUFFER4,Buffer,180,177,JAM,User,-,"How many people out of 100 do you think would respond with the second word if they were only shown the first?|Type your response on a scale from 0-100 and then press Enter.",Study/JOL,BUFFER2,3285,,,2395,3036,,,,75,1
w10046000_clt,0dlnavum7m,Nick_Dissertation_EX1,1,92,2020-09-06T16:50:35-07:00,4.3908448219299,10,versionA_stim.csv,JAMVersionB.csv,"JAM Version B","Dissertation, JAM version B",MONTH,YEAR,BUFFER4,Buffer,177,180,JAM,User,-,"How many people out of 100 do you think would respond with the second word if they were only shown the first?|Type your response on a scale from 0-100 and then press Enter.",Study/JOL,BUFFER2,3981,,,2829,3686,,,,55,1
w10046000_clt,0dlnavum7m,Nick_Dissertation_EX1,1,93,2020-09-06T16:50:40-07:00,5.0041401386261,10,versionA_stim.csv,JAMVersionB.csv,"JAM Version B","Dissertation, JAM version B",TOOL,SHED,BUFFER4,Buffer,178,178,JAM,User,-,"How many people out of 100 do you think would respond with the second word if they were only shown the first?|Type your response on a scale from 0-100 and then press Enter.",Study/JOL,BUFFER2,4646,,,3761,4040,,,,49,1
w10046000_clt,0dlnavum7m,Nick_Dissertation_EX1,1,94,2020-09-06T16:50:43-07:00,3.5776510238647,10,versionA_stim.csv,JAMVersionB.csv,"JAM Version B","Dissertation, JAM version B",DAYS,WEAKS,BUFFER4,Buffer,176,179,JAM,User,-,"How many people out of 100 do you think would respond with the second word if they were only shown the first?|Type your response on a scale from 0-100 and then press Enter.",Study/JOL,BUFFER2,3167,,,2737,2871,,,,30,1
w10046000_clt,0dlnavum7m,Nick_Dissertation_EX1,1,95,2020-09-06T16:50:47-07:00,3.8079679012299,10,versionA_stim.csv,JAMVersionB.csv,"JAM Version B","Dissertation, JAM version B",SPRING,MARCH,BUFFER4,Buffer,179,181,JAM,User,-,"How many people out of 100 do you think would respond with the second word if they were only shown the first?|Type your response on a scale from 0-100 and then press Enter.",Study/JOL,BUFFER2,3395,,,2958,3013,,,,90,1
w10046000_clt,0dlnavum7m,Nick_Dissertation_EX1,1,96,2020-09-06T16:50:50-07:00,2.6896820068359,10,versionA_stim.csv,JAMVersionB.csv,"JAM Version B","Dissertation, JAM version B",,,,,,0,Instruct,User,-,"You have completed this section. Please press Enter.",Filler_Instruction,Instruct2,2321,,,-1,-1,,,,,1
w10046000_clt,0dlnavum7m,Nick_Dissertation_EX1,1,97,2020-09-06T16:52:50-07:00,120.45017290115,10,versionA_stim.csv,JAMVersionB.csv,"JAM Version B","Dissertation, JAM version B",,,,,,0,FreeRecall,120,120,"Please list the 50 US states in alphabetical order. The task will automatically advance to the next screen after two minutes.",,Filler1,120001,"Alabama Alaska Arizona California Connecticut Deleware Florida Idaho Kansas Maine Missouri Mississippi Montana",0,12289,116431,0,0,,,1
w10046000_clt,0dlnavum7m,Nick_Dissertation_EX1,1,98,2020-09-06T16:53:03-07:00,12.819877147675,10,versionA_stim.csv,JAMVersionB.csv,"JAM Version B","Dissertation, JAM version B",,,,,,0,Instruct,-,10,"You will now be presented with the first word from each of the previously studied item pairs. Please type the missing word. If you do not know the word, you may guess or press Enter to skip forward to the next pair.",,Instruct3,12134,,,-1,-1,,,,,1
w10046000_clt,0dlnavum7m,Nick_Dissertation_EX1,1,99,2020-09-06T16:53:10-07:00,6.8486938476562,10,versionA_stim.csv,JAMVersionB.csv,"JAM Version B","Dissertation, JAM version B",CRACKLE,ABLE,Study2,U,162,137,Test,User,-,,Recall,Recall1,6210,Pop,0,4085,4715,0,0,,,1
w10046000_clt,0dlnavum7m,Nick_Dissertation_EX1,1,100,2020-09-06T16:53:20-07:00,9.9695491790771,10,versionA_stim.csv,JAMVersionB.csv,"JAM Version B","Dissertation, JAM version B",MIRROR,CHILDREN,Study2,U,174,163,Test,User,-,,Recall,Recall1,9420,Ball,16.666666666667,7882,8424,0,0,,,1
w10046000_clt,0dlnavum7m,Nick_Dissertation_EX1,1,101,2020-09-06T16:53:25-07:00,5.615681886673,10,versionA_stim.csv,JAMVersionB.csv,"JAM Version B","Dissertation, JAM version B",ADJOURN,END,Study2,F,101,151,Test,User,-,,Recall,Recall1,4843,End,100,2582,2945,1,1,,,1
w10046000_clt,0dlnavum7m,Nick_Dissertation_EX1,1,102,2020-09-06T16:53:36-07:00,10.627263069153,10,versionA_stim.csv,JAMVersionB.csv,"JAM Version B","Dissertation, JAM version B",EVEN,REVENGE,Study2,B,122,158,Test,User,-,,Recall,Recall1,9275,Equal,16.666666666667,6751,7875,0,0,,,1
w10046000_clt,0dlnavum7m,Nick_Dissertation_EX1,1,103,2020-09-06T16:53:43-07:00,7.2814159393311,10,versionA_stim.csv,JAMVersionB.csv,"JAM Version B","Dissertation, JAM version B",DRY,WET,Study2,S,146,110,Test,User,-,,Recall,Recall1,5287,Wet,100,3158,3647,1,1,,,1
w10046000_clt,0dlnavum7m,Nick_Dissertation_EX1,1,104,2020-09-06T16:53:49-07:00,5.7556290626526,10,versionA_stim.csv,JAMVersionB.csv,"JAM Version B","Dissertation, JAM version B",HONEST,TRUTHFUL,Study2,B,133,161,Test,User,-,,Recall,Recall1,5173,Truth,76.923076923077,3366,3854,0,1,,,1
w10046000_clt,0dlnavum7m,Nick_Dissertation_EX1,1,105,2020-09-06T16:53:58-07:00,8.6351680755615,10,versionA_stim.csv,JAMVersionB.csv,"JAM Version B","Dissertation, JAM version B",FURRY,DOG,Study2,F,102,170,Test,User,-,,Recall,Recall1,8085,Dog,100,2469,6249,1,1,,,1
w10046000_clt,0dlnavum7m,Nick_Dissertation_EX1,1,106,2020-09-06T16:54:04-07:00,6.4926369190216,10,versionA_stim.csv,JAMVersionB.csv,"JAM Version B","Dissertation, JAM version B",GONE,AWAY,Study2,S,142,152,Test,User,-,,Recall,Recall1,5708,Leave,22.222222222222,2773,4499,0,0,,,1
w10046000_clt,0dlnavum7m,Nick_Dissertation_EX1,1,107,2020-09-06T16:54:10-07:00,6.1039390563965,10,versionA_stim.csv,JAMVersionB.csv,"JAM Version B","Dissertation, JAM version B",CAKE,CLOTHES,Study2,U,166,122,Test,User,-,,Recall,Recall1,4746,Clothes,100,2674,3538,1,1,,,1
w10046000_clt,0dlnavum7m,Nick_Dissertation_EX1,1,108,2020-09-06T16:54:15-07:00,4.3069128990173,10,versionA_stim.csv,JAMVersionB.csv,"JAM Version B","Dissertation, JAM version B",MULE,DONKEY,Study2,F,108,111,Test,User,-,,Recall,Recall1,3889,Donkey,100,2069,2842,1,1,,,1
w10046000_clt,0dlnavum7m,Nick_Dissertation_EX1,1,109,2020-09-06T16:54:21-07:00,6.1980679035187,10,versionA_stim.csv,JAMVersionB.csv,"JAM Version B","Dissertation, JAM version B",MONEY,BANKER,Study2,B,132,99,Test,User,-,,Recall,Recall1,4355,Bag,44.444444444444,2792,3113,0,0,,,1
w10046000_clt,0dlnavum7m,Nick_Dissertation_EX1,1,110,2020-09-06T16:54:25-07:00,4.397999048233,10,versionA_stim.csv,JAMVersionB.csv,"JAM Version B","Dissertation, JAM version B",LITTER,TRASH,Study2,F,103,167,Test,User,-,,Recall,Recall1,4017,Trash,100,1953,2562,1,1,,,1
w10046000_clt,0dlnavum7m,Nick_Dissertation_EX1,1,111,2020-09-06T16:54:30-07:00,4.7763750553131,10,versionA_stim.csv,JAMVersionB.csv,"JAM Version B","Dissertation, JAM version B",DETECTIVE,MYSTERY,Study2,F,100,166,Test,User,-,,Recall,Recall1,4331,Spy,40,2670,3051,0,0,,,1
w10046000_clt,0dlnavum7m,Nick_Dissertation_EX1,1,112,2020-09-06T16:54:42-07:00,11.980068922043,10,versionA_stim.csv,JAMVersionB.csv,"JAM Version B","Dissertation, JAM version B",LEASE,TOIL,Study2,U,170,153,Test,User,-,,Recall,Recall1,11334,Agreement,15.384615384615,8274,10053,0,0,,,1
w10046000_clt,0dlnavum7m,Nick_Dissertation_EX1,1,113,2020-09-06T16:54:47-07:00,5.1765441894531,10,versionA_stim.csv,JAMVersionB.csv,"JAM Version B","Dissertation, JAM version B",SHOELACE,TIE,Study2,F,99,157,Test,User,-,,Recall,Recall1,4185,Tie,100,2575,2799,1,1,,,1
w10046000_clt,0dlnavum7m,Nick_Dissertation_EX1,1,114,2020-09-06T16:54:53-07:00,6.150750875473,10,versionA_stim.csv,JAMVersionB.csv,"JAM Version B","Dissertation, JAM version B",TRUTH,LIE,Study2,S,148,159,Test,User,-,,Recall,Recall1,5466,Honest,22.222222222222,3454,4227,0,0,,,1
w10046000_clt,0dlnavum7m,Nick_Dissertation_EX1,1,115,2020-09-06T16:55:00-07:00,6.3687839508057,10,versionA_stim.csv,JAMVersionB.csv,"JAM Version B","Dissertation, JAM version B",LOUD,NOISE,Study2,S,152,101,Test,User,-,,Recall,Recall1,5798,Noise,100,4309,4786,1,1,,,1
w10046000_clt,0dlnavum7m,Nick_Dissertation_EX1,1,116,2020-09-06T16:55:38-07:00,38.440194129944,10,versionA_stim.csv,JAMVersionB.csv,"JAM Version B","Dissertation, JAM version B",SHEARS,SCISSORS,Study2,F,112,112,Test,User,-,,Recall,Recall1,37697,"scissors ",100,2311,34397,1,1,,,1
w10046000_clt,0dlnavum7m,Nick_Dissertation_EX1,1,117,2020-09-06T16:55:46-07:00,8.0363898277283,10,versionA_stim.csv,JAMVersionB.csv,"JAM Version B","Dissertation, JAM version B",FISH,SARDINE,Study2,B,130,156,Test,User,-,,Recall,Recall1,7333,shrimp,46.153846153846,4439,5271,0,0,,,1
w10046000_clt,0dlnavum7m,Nick_Dissertation_EX1,1,118,2020-09-06T16:55:53-07:00,6.690731048584,10,versionA_stim.csv,JAMVersionB.csv,"JAM Version B","Dissertation, JAM version B",WRIST,BRACELET,Study2,S,140,113,Test,User,-,,Recall,Recall1,5710,Arm,18.181818181818,4884,5231,0,0,,,1
w10046000_clt,0dlnavum7m,Nick_Dissertation_EX1,1,119,2020-09-06T16:55:56-07:00,3.4548981189728,10,versionA_stim.csv,JAMVersionB.csv,"JAM Version B","Dissertation, JAM version B",MEAT,OBTAIN,Study2,U,161,109,Test,User,-,,Recall,Recall1,2970,Bone,40,1627,2735,0,0,,,1
w10046000_clt,0dlnavum7m,Nick_Dissertation_EX1,1,120,2020-09-06T16:56:03-07:00,6.5976719856262,10,versionA_stim.csv,JAMVersionB.csv,"JAM Version B","Dissertation, JAM version B",NAME,HATE,Study2,U,167,129,Test,User,-,,Recall,Recall1,5716,Game,50,5116,5473,0,0,,,1
w10046000_clt,0dlnavum7m,Nick_Dissertation_EX1,1,121,2020-09-06T16:56:07-07:00,4.4194829463959,10,versionA_stim.csv,JAMVersionB.csv,"JAM Version B","Dissertation, JAM version B",PLANE,AIRCRAFT,Study2,B,129,124,Test,User,-,,Recall,Recall1,3966,aircraft,100,2534,3701,1,1,,,1
w10046000_clt,0dlnavum7m,Nick_Dissertation_EX1,1,122,2020-09-06T16:56:10-07:00,2.9597899913788,10,versionA_stim.csv,JAMVersionB.csv,"JAM Version B","Dissertation, JAM version B",TEMPERATURE,Morning,Study2,U,173,141,Test,User,-,,Recall,Recall1,2562,cold,18.181818181818,1781,2258,0,0,,,1
w10046000_clt,0dlnavum7m,Nick_Dissertation_EX1,1,123,2020-09-06T16:56:14-07:00,3.8559210300446,10,versionA_stim.csv,JAMVersionB.csv,"JAM Version B","Dissertation, JAM version B",WATER,DRINK,Study2,S,143,130,Test,User,-,,Recall,Recall1,3431,ice,25,2555,2760,0,0,,,1
w10046000_clt,0dlnavum7m,Nick_Dissertation_EX1,1,124,2020-09-06T16:56:17-07:00,2.8943018913269,10,versionA_stim.csv,JAMVersionB.csv,"JAM Version B","Dissertation, JAM version B",BASEBALL,LEAGUE,Study2,B,131,171,Test,User,-,,Recall,Recall1,2440,bat,22.222222222222,1675,1978,0,0,,,1
w10046000_clt,0dlnavum7m,Nick_Dissertation_EX1,1,125,2020-09-06T16:56:20-07:00,2.6052091121674,10,versionA_stim.csv,JAMVersionB.csv,"JAM Version B","Dissertation, JAM version B",CHILL,COLD,Study2,F,114,140,Test,User,-,,Recall,Recall1,2195,cold,100,1501,1921,1,1,,,1
w10046000_clt,0dlnavum7m,Nick_Dissertation_EX1,1,126,2020-09-06T16:56:27-07:00,7.53293800354,10,versionA_stim.csv,JAMVersionB.csv,"JAM Version B","Dissertation, JAM version B",ALONE,LONELY,Study2,S,145,173,Test,User,-,,Recall,Recall1,5434,lonely,100,4255,5121,1,1,,,1
w10046000_clt,0dlnavum7m,Nick_Dissertation_EX1,1,127,2020-09-06T16:56:31-07:00,3.3975899219513,10,versionA_stim.csv,JAMVersionB.csv,"JAM Version B","Dissertation, JAM version B",AFFECTION,LOVE,Study2,F,115,103,Test,User,-,,Recall,Recall1,2059,love,100,1316,1788,1,1,,,1
w10046000_clt,0dlnavum7m,Nick_Dissertation_EX1,1,128,2020-09-06T16:56:34-07:00,3.6443901062012,10,versionA_stim.csv,JAMVersionB.csv,"JAM Version B","Dissertation, JAM version B",STRETCH,CLOTH,Study2,U,157,175,Test,User,-,,Recall,Recall1,3111,shrink,18.181818181818,2006,2838,0,0,,,1
w10046000_clt,0dlnavum7m,Nick_Dissertation_EX1,1,129,2020-09-06T16:56:37-07:00,2.7948620319366,10,versionA_stim.csv,JAMVersionB.csv,"JAM Version B","Dissertation, JAM version B",TURN,FLIP,Study2,B,116,144,Test,User,-,,Recall,Recall1,2347,around,0,1445,2175,0,0,,,1
w10046000_clt,0dlnavum7m,Nick_Dissertation_EX1,1,130,2020-09-06T16:56:39-07:00,2.3260889053345,10,versionA_stim.csv,JAMVersionB.csv,"JAM Version B","Dissertation, JAM version B",SCALP,HEAD,Study2,F,105,174,Test,User,-,,Recall,Recall1,1908,head,100,1349,1695,1,1,,,1
w10046000_clt,0dlnavum7m,Nick_Dissertation_EX1,1,131,2020-09-06T16:56:42-07:00,2.756884098053,10,versionA_stim.csv,JAMVersionB.csv,"JAM Version B","Dissertation, JAM version B",CANDLE,WAX,Study2,S,139,165,Test,User,-,,Recall,Recall1,2375,wax,100,1085,1985,1,1,,,1
w10046000_clt,0dlnavum7m,Nick_Dissertation_EX1,1,132,2020-09-06T16:56:46-07:00,4.3152589797974,10,versionA_stim.csv,JAMVersionB.csv,"JAM Version B","Dissertation, JAM version B",Shell,SHAKE,Study2,U,163,115,Test,User,-,,Recall,Recall1,3927,snail,40,2879,3593,0,0,,,1
w10046000_clt,0dlnavum7m,Nick_Dissertation_EX1,1,133,2020-09-06T16:56:51-07:00,4.2787849903107,10,versionA_stim.csv,JAMVersionB.csv,"JAM Version B","Dissertation, JAM version B",SUN,TAN,Study2,S,155,176,Test,User,-,,Recall,Recall1,2229,moon,28.571428571429,1510,1978,0,0,,,1
w10046000_clt,0dlnavum7m,Nick_Dissertation_EX1,1,134,2020-09-06T16:56:55-07:00,3.8972148895264,10,versionA_stim.csv,JAMVersionB.csv,"JAM Version B","Dissertation, JAM version B",RIGHTS,EQUAL,Study2,S,137,133,Test,User,-,,Recall,Recall1,2772,equal,100,1606,2432,1,1,,,1
w10046000_clt,0dlnavum7m,Nick_Dissertation_EX1,1,135,2020-09-06T16:56:58-07:00,3.5334460735321,10,versionA_stim.csv,JAMVersionB.csv,"JAM Version B","Dissertation, JAM version B",BIRD,PENGUIN,Study2,B,119,136,Test,User,-,,Recall,Recall1,2923,plane,33.333333333333,1857,2740,0,0,,,1
w10046000_clt,0dlnavum7m,Nick_Dissertation_EX1,1,136,2020-09-06T16:57:03-07:00,5.4123899936676,10,versionA_stim.csv,JAMVersionB.csv,"JAM Version B","Dissertation, JAM version B",ELEMENT,CARBON,Study2,S,141,97,Test,User,-,,Recall,Recall1,4818,atom,40,1920,4504,0,0,,,1
w10046000_clt,0dlnavum7m,Nick_Dissertation_EX1,1,137,2020-09-06T16:57:06-07:00,2.574481010437,10,versionA_stim.csv,JAMVersionB.csv,"JAM Version B","Dissertation, JAM version B",CAR,WINDSHIELD,Study2,B,117,121,Test,User,-,,Recall,Recall1,2089,driver,37.5,1124,1843,0,0,,,1
w10046000_clt,0dlnavum7m,Nick_Dissertation_EX1,1,138,2020-09-06T16:57:09-07:00,3.4159579277039,10,versionA_stim.csv,JAMVersionB.csv,"JAM Version B","Dissertation, JAM version B",DINE,EAT,Study2,F,111,107,Test,User,-,,Recall,Recall1,2839,eat,100,2387,2607,1,1,,,1
w10046000_clt,0dlnavum7m,Nick_Dissertation_EX1,1,139,2020-09-06T16:57:13-07:00,3.422865152359,10,versionA_stim.csv,JAMVersionB.csv,"JAM Version B","Dissertation, JAM version B",MAZE,ELECTION,Study2,U,159,155,Test,User,-,,Recall,Recall1,3006,election,100,1495,2722,1,1,,,1
w10046000_clt,0dlnavum7m,Nick_Dissertation_EX1,1,140,2020-09-06T16:57:17-07:00,3.9418759346008,10,versionA_stim.csv,JAMVersionB.csv,"JAM Version B","Dissertation, JAM version B",LISTEN,FICTION,Study2,U,164,117,Test,User,-,,Recall,Recall1,3459,hear,0,2943,3218,0,0,,,1
w10046000_clt,0dlnavum7m,Nick_Dissertation_EX1,1,141,2020-09-06T16:57:20-07:00,2.8754930496216,10,versionA_stim.csv,JAMVersionB.csv,"JAM Version B","Dissertation, JAM version B",JUSTICE,MAROON,Study2,U,156,148,Test,User,-,,Recall,Recall1,2469,court,18.181818181818,1710,2256,0,0,,,1
w10046000_clt,0dlnavum7m,Nick_Dissertation_EX1,1,142,2020-09-06T16:57:23-07:00,3.680526971817,10,versionA_stim.csv,JAMVersionB.csv,"JAM Version B","Dissertation, JAM version B",SLEEP,NAP,Study2,B,134,150,Test,User,-,,Recall,Recall1,3286,tired,0,1776,3055,0,0,,,1
w10046000_clt,0dlnavum7m,Nick_Dissertation_EX1,1,143,2020-09-06T16:57:27-07:00,3.5701608657837,10,versionA_stim.csv,JAMVersionB.csv,"JAM Version B","Dissertation, JAM version B",BAD,VILLAIN,Study2,B,118,132,Test,User,-,,Recall,Recall1,3138,terrible,26.666666666667,1877,2937,0,0,,,1
w10046000_clt,0dlnavum7m,Nick_Dissertation_EX1,1,144,2020-09-06T16:57:33-07:00,5.7582120895386,10,versionA_stim.csv,JAMVersionB.csv,"JAM Version B","Dissertation, JAM version B",THREAD,THIMBLE,Study2,B,121,125,Test,User,-,,Recall,Recall1,4894,thimble,100,1681,4651,1,1,,,1
w10046000_clt,0dlnavum7m,Nick_Dissertation_EX1,1,145,2020-09-06T16:57:35-07:00,2.7616169452667,10,versionA_stim.csv,JAMVersionB.csv,"JAM Version B","Dissertation, JAM version B",DRIVER,CAR,Study2,F,106,128,Test,User,-,,Recall,Recall1,2320,rider,25,1674,2136,0,0,,,1
w10046000_clt,0dlnavum7m,Nick_Dissertation_EX1,1,146,2020-09-06T16:57:39-07:00,3.7186119556427,10,versionA_stim.csv,JAMVersionB.csv,"JAM Version B","Dissertation, JAM version B",SAFETY,SEATBELT,Study2,S,147,134,Test,User,-,,Recall,Recall1,3329,seatbelt,100,1455,3117,1,1,,,1
w10046000_clt,0dlnavum7m,Nick_Dissertation_EX1,1,147,2020-09-06T16:57:42-07:00,2.9908800125122,10,versionA_stim.csv,JAMVersionB.csv,"JAM Version B","Dissertation, JAM version B",BOTH,OUNCE,Study2,U,172,127,Test,User,-,,Recall,Recall1,2600,two,25,2052,2316,0,0,,,1
w10046000_clt,0dlnavum7m,Nick_Dissertation_EX1,1,148,2020-09-06T16:57:47-07:00,4.3557391166687,10,versionA_stim.csv,JAMVersionB.csv,"JAM Version B","Dissertation, JAM version B",FRUIT,STRAWBERRY,Study2,B,124,98,Test,User,-,,Recall,Recall1,3912,seed,28.571428571429,3234,3759,0,0,,,1
w10046000_clt,0dlnavum7m,Nick_Dissertation_EX1,1,149,2020-09-06T16:57:49-07:00,2.5205669403076,10,versionA_stim.csv,JAMVersionB.csv,"JAM Version B","Dissertation, JAM version B",CHERRY,RED,Study2,F,104,149,Test,User,-,,Recall,Recall1,2076,red,100,1132,1453,1,1,,,1
w10046000_clt,0dlnavum7m,Nick_Dissertation_EX1,1,150,2020-09-06T16:57:53-07:00,3.4250960350037,10,versionA_stim.csv,JAMVersionB.csv,"JAM Version B","Dissertation, JAM version B",RAZOR,SHAVE,Study2,S,136,168,Test,User,-,,Recall,Recall1,2959,shave,100,2290,2797,1,1,,,1
w10046000_clt,0dlnavum7m,Nick_Dissertation_EX1,1,151,2020-09-06T16:57:55-07:00,2.4909749031067,10,versionA_stim.csv,JAMVersionB.csv,"JAM Version B","Dissertation, JAM version B",OWN,HAVE,Study2,S,153,138,Test,User,-,,Recall,Recall1,2073,have,100,1323,1645,1,1,,,1
w10046000_clt,0dlnavum7m,Nick_Dissertation_EX1,1,152,2020-09-06T16:58:00-07:00,4.7017669677734,10,versionA_stim.csv,JAMVersionB.csv,"JAM Version B","Dissertation, JAM version B",LOAN,SIGN,Study2,U,171,172,Test,User,-,,Recall,Recall1,3031,money,22.222222222222,1366,2582,0,0,,,1
w10046000_clt,0dlnavum7m,Nick_Dissertation_EX1,1,153,2020-09-06T16:58:04-07:00,4.2140550613403,10,versionA_stim.csv,JAMVersionB.csv,"JAM Version B","Dissertation, JAM version B",POP,BALLOON,Study2,B,123,145,Test,User,-,,Recall,Recall1,3223,corn,36.363636363636,2603,2909,0,0,,,1
w10046000_clt,0dlnavum7m,Nick_Dissertation_EX1,1,154,2020-09-06T16:58:08-07:00,3.9742829799652,10,versionA_stim.csv,JAMVersionB.csv,"JAM Version B","Dissertation, JAM version B",FIGHT,BRAWL,Study2,B,135,147,Test,User,-,,Recall,Recall1,3504,punch,0,2526,3222,0,0,,,1
w10046000_clt,0dlnavum7m,Nick_Dissertation_EX1,1,155,2020-09-06T16:58:15-07:00,7.5270600318909,10,versionA_stim.csv,JAMVersionB.csv,"JAM Version B","Dissertation, JAM version B",BEST,FAVORITE,Study2,B,125,105,Test,User,-,,Recall,Recall1,6404,lovely,28.571428571429,5499,6188,0,0,,,1
w10046000_clt,0dlnavum7m,Nick_Dissertation_EX1,1,156,2020-09-06T16:58:18-07:00,2.4845111370087,10,versionA_stim.csv,JAMVersionB.csv,"JAM Version B","Dissertation, JAM version B",FEUD,FIGHT,Study2,F,113,120,Test,User,-,,Recall,Recall1,2103,fight,100,1369,1816,1,1,,,1
w10046000_clt,0dlnavum7m,Nick_Dissertation_EX1,1,157,2020-09-06T16:58:21-07:00,3.5472049713135,10,versionA_stim.csv,JAMVersionB.csv,"JAM Version B","Dissertation, JAM version B",ROD,REEL,Study2,S,150,114,Test,User,-,,Recall,Recall1,3118,lightning,15.384615384615,1852,2919,0,0,,,1
w10046000_clt,0dlnavum7m,Nick_Dissertation_EX1,1,158,2020-09-06T16:58:24-07:00,2.7728250026703,10,versionA_stim.csv,JAMVersionB.csv,"JAM Version B","Dissertation, JAM version B",DOCUMENT,PAPER,Study2,F,109,119,Test,User,-,,Recall,Recall1,2405,paper,100,1473,2025,1,1,,,1
w10046000_clt,0dlnavum7m,Nick_Dissertation_EX1,1,159,2020-09-06T16:58:27-07:00,3.1972398757935,10,versionA_stim.csv,JAMVersionB.csv,"JAM Version B","Dissertation, JAM version B",CLUE,GAME,Study2,F,97,131,Test,User,-,,Recall,Recall1,1717,game,100,1147,1534,1,1,,,1
w10046000_clt,0dlnavum7m,Nick_Dissertation_EX1,1,160,2020-09-06T16:58:30-07:00,2.5623240470886,10,versionA_stim.csv,JAMVersionB.csv,"JAM Version B","Dissertation, JAM version B",FLEA,TICK,Study2,S,151,106,Test,User,-,,Recall,Recall1,2006,tick,100,1253,1707,1,1,,,1
w10046000_clt,0dlnavum7m,Nick_Dissertation_EX1,1,161,2020-09-06T16:58:35-07:00,5.4320960044861,10,versionA_stim.csv,JAMVersionB.csv,"JAM Version B","Dissertation, JAM version B",GLASS,BREAKABLE,Study2,B,127,162,Test,User,-,,Recall,Recall1,4935,shatter,25,3988,4802,0,0,,,1
w10046000_clt,0dlnavum7m,Nick_Dissertation_EX1,1,162,2020-09-06T16:58:39-07:00,3.3611209392548,10,versionA_stim.csv,JAMVersionB.csv,"JAM Version B","Dissertation, JAM version B",VEHICLE,CHARM,Study2,U,160,116,Test,User,-,,Recall,Recall1,2936,drive,20,1472,2686,0,0,,,1
w10046000_clt,0dlnavum7m,Nick_Dissertation_EX1,1,163,2020-09-06T16:58:44-07:00,5.1941289901733,10,versionA_stim.csv,JAMVersionB.csv,"JAM Version B","Dissertation, JAM version B",INCENSE,SMELL,Study2,F,110,146,Test,User,-,,Recall,Recall1,4692,smear,60,3824,4475,0,0,,,1
w10046000_clt,0dlnavum7m,Nick_Dissertation_EX1,1,164,2020-09-06T16:58:47-07:00,3.4776871204376,10,versionA_stim.csv,JAMVersionB.csv,"JAM Version B","Dissertation, JAM version B",CACTUS,PLANT,Study2,F,98,118,Test,User,-,,Recall,Recall1,2703,plant,100,1277,2454,1,1,,,1
w10046000_clt,0dlnavum7m,Nick_Dissertation_EX1,1,165,2020-09-06T16:58:52-07:00,4.3904309272766,10,versionA_stim.csv,JAMVersionB.csv,"JAM Version B","Dissertation, JAM version B",EXTENSION,LONG,Study2,F,96,123,Test,User,-,,Recall,Recall1,3958,time,0,3032,3782,0,0,,,1
w10046000_clt,0dlnavum7m,Nick_Dissertation_EX1,1,166,2020-09-06T16:58:55-07:00,2.944139957428,10,versionA_stim.csv,JAMVersionB.csv,"JAM Version B","Dissertation, JAM version B",STAR,ACTRESS,Study2,B,120,102,Test,User,-,,Recall,Recall1,2490,shotting,13.333333333333,1414,2325,0,0,,,1
w10046000_clt,0dlnavum7m,Nick_Dissertation_EX1,1,167,2020-09-06T16:58:57-07:00,2.486955165863,10,versionA_stim.csv,JAMVersionB.csv,"JAM Version B","Dissertation, JAM version B",EARTH,GROUND,Study2,S,144,108,Test,User,-,,Recall,Recall1,1907,plant,18.181818181818,1158,1686,0,0,,,1
w10046000_clt,0dlnavum7m,Nick_Dissertation_EX1,1,168,2020-09-06T16:59:00-07:00,2.9315938949585,10,versionA_stim.csv,JAMVersionB.csv,"JAM Version B","Dissertation, JAM version B",TANTRUM,TEMPER,Study2,S,154,126,Test,User,-,,Recall,Recall1,2420,temper,100,1297,2117,1,1,,,1
w10046000_clt,0dlnavum7m,Nick_Dissertation_EX1,1,169,2020-09-06T16:59:02-07:00,1.9175670146942,10,versionA_stim.csv,JAMVersionB.csv,"JAM Version B","Dissertation, JAM version B",CAT,PANTHER,Study2,B,126,142,Test,User,-,,Recall,Recall1,1488,dog,0,1019,1263,0,0,,,1
w10046000_clt,0dlnavum7m,Nick_Dissertation_EX1,1,170,2020-09-06T16:59:04-07:00,2.2456810474396,10,versionA_stim.csv,JAMVersionB.csv,"JAM Version B","Dissertation, JAM version B",KEYS,JOKE,Study2,U,165,160,Test,User,-,,Recall,Recall1,1757,car,0,1340,1567,0,0,,,1
w10046000_clt,0dlnavum7m,Nick_Dissertation_EX1,1,171,2020-09-06T16:59:06-07:00,2.1231799125671,10,versionA_stim.csv,JAMVersionB.csv,"JAM Version B","Dissertation, JAM version B",MASON,JAR,Study2,S,138,164,Test,User,-,,Recall,Recall1,1683,jar,100,1091,1239,1,1,,,1
w10046000_clt,0dlnavum7m,Nick_Dissertation_EX1,1,172,2020-09-06T16:59:09-07:00,2.0331881046295,10,versionA_stim.csv,JAMVersionB.csv,"JAM Version B","Dissertation, JAM version B",FUZZY,BANG,Study2,U,168,143,Test,User,-,,Recall,Recall1,1580,dog,28.571428571429,1178,1414,0,0,,,1
w10046000_clt,0dlnavum7m,Nick_Dissertation_EX1,1,173,2020-09-06T16:59:12-07:00,3.0084118843079,10,versionA_stim.csv,JAMVersionB.csv,"JAM Version B","Dissertation, JAM version B",CHOP,CUT,Study2,F,107,100,Test,User,-,,Recall,Recall1,2609,knife,0,1909,2457,0,0,,,1
w10046000_clt,0dlnavum7m,Nick_Dissertation_EX1,1,174,2020-09-06T16:59:14-07:00,2.4269890785217,10,versionA_stim.csv,JAMVersionB.csv,"JAM Version B","Dissertation, JAM version B",MOAT,CLEAR,Study2,U,169,169,Test,User,-,,Recall,Recall1,2051,clear,100,1467,1846,1,1,,,1
w10046000_clt,0dlnavum7m,Nick_Dissertation_EX1,1,175,2020-09-06T16:59:16-07:00,2.13507604599,10,versionA_stim.csv,JAMVersionB.csv,"JAM Version B","Dissertation, JAM version B",GIVE,STEAK,Study2,U,158,104,Test,User,-,,Recall,Recall1,1736,up,0,1282,1472,0,0,,,1
w10046000_clt,0dlnavum7m,Nick_Dissertation_EX1,1,176,2020-09-06T16:59:19-07:00,2.9007480144501,10,versionA_stim.csv,JAMVersionB.csv,"JAM Version B","Dissertation, JAM version B",PHONE,COMMUNICATION,Study2,S,149,139,Test,User,-,,Recall,Recall1,2520,cell,11.764705882353,1948,2301,0,0,,,1
w10046000_clt,0dlnavum7m,Nick_Dissertation_EX1,1,177,2020-09-06T16:59:22-07:00,3.2350168228149,10,versionA_stim.csv,JAMVersionB.csv,"JAM Version B","Dissertation, JAM version B",DEAD,COFFIN,Study2,B,128,154,Test,User,-,,Recall,Recall1,2749,died,20,2234,2606,0,0,,,1
w10046000_clt,0dlnavum7m,Nick_Dissertation_EX1,1,178,2020-09-06T16:59:29-07:00,6.6436851024628,10,versionA_stim.csv,JAMVersionB.csv,"JAM Version B","Dissertation, JAM version B",MAIN,SCAR,Study2,U,175,135,Test,User,-,,Recall,Recall1,5749,exclusive,15.384615384615,4110,5603,0,0,,,1
w10046000_clt,0dlnavum7m,Nick_Dissertation_EX1,1,179,2020-09-06T16:59:40-07:00,11.34473991394,10,versionA_stim.csv,JAMVersionB.csv,"JAM Version B","Dissertation, JAM version B",,,,,,0,Instruct,-,10,"You will now be presented with a new set of word pairs. Please study each pair. Remember that your memory will be tested! When finished, press Enter to move to the next pair.",Initial_Instruct,Instruct4,10602,,,-1,-1,,,,,1
w10046000_clt,0dlnavum7m,Nick_Dissertation_EX1,1,180,2020-09-06T16:59:52-07:00,11.724603176117,10,versionA_stim.csv,JAMVersionB.csv,"JAM Version B","Dissertation, JAM version B",,,,,,0,Instruct,-,10,"As you study, you will be asked to rate how often the words in each pair are used together. Assume 100 college students from around the nation gave responses to each CUE (first) word. How many of these 100 students do you think would have given the RESPONSE (second) word?",,Instruct20ASDFASDF,10492,,,-1,-1,,,,,1
