Username,ID,Trial,Question,Type,RT,Response
w10068374CG,13la3l8qp7,1,"Did the experiment go smoothly or were there problems? (Note: Your compensation will not depend on your answer below, so please be honest.)!!!",Radio,14990,Smooth
w10068374CG,13la3l8qp7,2,"Have you participated in this experiment (or another experiment using the same learning materials) before?",Radio,7281,Naive
w10068374CG,13la3l8qp7,3,"How much fun was this experiment? <p>1 being very fun -- 7 being the MOST FUN EVER</p>",Likert,11382,5
w10068374CG,13la3l8qp7,4,"Were you doing anything else while this experiment was going on? You will get credit no matter how you respond here.",Text,8932,"Yes haha"
w10068374CG,13la3l8qp7,5,"Which of the following problems did you have?",Checkbox,8276,reload
w10022351_jam,csfpk7whub,1,"Did the experiment go smoothly or were there problems? (Note: Your compensation will not depend on your answer below, so please be honest.)!!!",Radio,13430,Smooth
w10022351_jam,csfpk7whub,2,"Have you participated in this experiment (or another experiment using the same learning materials) before?",Radio,5254,Naive
w10022351_jam,csfpk7whub,3,"How much fun was this experiment? <p>1 being very fun -- 7 being the MOST FUN EVER</p>",Likert,4782,1
w10022351_jam,csfpk7whub,4,"Were you doing anything else while this experiment was going on? You will get credit no matter how you respond here.",Text,11862,"Listening to a podcast"
w10022351_jam,csfpk7whub,5,"Which of the following problems did you have?",Checkbox,6525,none
w980000_lf,5iqf61ok6f,1,"Did the experiment go smoothly or were there problems? (Note: Your compensation will not depend on your answer below, so please be honest.)!!!",Radio,7919,Smooth
w980000_lf,5iqf61ok6f,2,"Have you participated in this experiment (or another experiment using the same learning materials) before?",Radio,5525,Naive
w980000_lf,5iqf61ok6f,3,"How much fun was this experiment? <p>1 being very fun -- 7 being the MOST FUN EVER</p>",Likert,9395,2
w980000_lf,5iqf61ok6f,4,"Were you doing anything else while this experiment was going on? You will get credit no matter how you respond here.",Text,6789,No
w980000_lf,5iqf61ok6f,5,"Which of the following problems did you have?",Checkbox,6722,none
w10089076_AG,dn2tw7qhld,1,"Did the experiment go smoothly or were there problems? (Note: Your compensation will not depend on your answer below, so please be honest.)!!!",Radio,11115,ExcludeMe
w10089076_AG,dn2tw7qhld,2,"Have you participated in this experiment (or another experiment using the same learning materials) before?",Radio,5525,Naive
w10089076_AG,dn2tw7qhld,3,"How much fun was this experiment? <p>1 being very fun -- 7 being the MOST FUN EVER</p>",Likert,5463,1
w10089076_AG,dn2tw7qhld,4,"Were you doing anything else while this experiment was going on? You will get credit no matter how you respond here.",Text,12205,"on my phone"
w10089076_AG,dn2tw7qhld,5,"Which of the following problems did you have?",Checkbox,8898,none
w10065817_CEB,opx3i7by7w,1,"Did the experiment go smoothly or were there problems? (Note: Your compensation will not depend on your answer below, so please be honest.)!!!",Radio,10813,MinorBumps
w10065817_CEB,opx3i7by7w,2,"Have you participated in this experiment (or another experiment using the same learning materials) before?",Radio,5037,Naive
w10065817_CEB,opx3i7by7w,3,"How much fun was this experiment? <p>1 being very fun -- 7 being the MOST FUN EVER</p>",Likert,8901,3
w10065817_CEB,opx3i7by7w,4,"Were you doing anything else while this experiment was going on? You will get credit no matter how you respond here.",Text,9259,"Listening to music"
w10065817_CEB,opx3i7by7w,5,"Which of the following problems did you have?",Checkbox,7469,none
w995669_AML,7y573dzooc,1,"Did the experiment go smoothly or were there problems? (Note: Your compensation will not depend on your answer below, so please be honest.)!!!",Radio,12820,MinorBumps
w995669_AML,7y573dzooc,2,"Have you participated in this experiment (or another experiment using the same learning materials) before?",Radio,7247,Naive
w995669_AML,7y573dzooc,3,"How much fun was this experiment? <p>1 being very fun -- 7 being the MOST FUN EVER</p>",Likert,8810,5
w995669_AML,7y573dzooc,4,"Were you doing anything else while this experiment was going on? You will get credit no matter how you respond here.",Text,17253,"Actually nothing"
w995669_AML,7y573dzooc,5,"Which of the following problems did you have?",Checkbox,12199,none
w10030814_cms,y9j7oel6i2,1,"Did the experiment go smoothly or were there problems? (Note: Your compensation will not depend on your answer below, so please be honest.)!!!",Radio,5031,Smooth
w10030814_cms,y9j7oel6i2,2,"Have you participated in this experiment (or another experiment using the same learning materials) before?",Radio,6601,Naive
w10030814_cms,y9j7oel6i2,3,"How much fun was this experiment? <p>1 being very fun -- 7 being the MOST FUN EVER</p>",Likert,7057,5
w10030814_cms,y9j7oel6i2,4,"Were you doing anything else while this experiment was going on? You will get credit no matter how you respond here.",Text,21238,"Quiet Music in the background"
w10030814_cms,y9j7oel6i2,5,"Which of the following problems did you have?",Checkbox,5369,none
905158TA,owhcr7ur6j,1,"Did the experiment go smoothly or were there problems? (Note: Your compensation will not depend on your answer below, so please be honest.)!!!",Radio,6166,Smooth
905158TA,owhcr7ur6j,2,"Have you participated in this experiment (or another experiment using the same learning materials) before?",Radio,8553,Naive
905158TA,owhcr7ur6j,3,"How much fun was this experiment? <p>1 being very fun -- 7 being the MOST FUN EVER</p>",Likert,7824,6
905158TA,owhcr7ur6j,4,"Were you doing anything else while this experiment was going on? You will get credit no matter how you respond here.",Text,7050,NO
905158TA,owhcr7ur6j,5,"Which of the following problems did you have?",Checkbox,14323,reload
w10048422AB,bes7sqds8b,1,"Did the experiment go smoothly or were there problems? (Note: Your compensation will not depend on your answer below, so please be honest.)!!!",Radio,4140,Smooth
w10048422AB,bes7sqds8b,2,"Have you participated in this experiment (or another experiment using the same learning materials) before?",Radio,6171,Naive
w10048422AB,bes7sqds8b,3,"How much fun was this experiment? <p>1 being very fun -- 7 being the MOST FUN EVER</p>",Likert,9302,2
w10048422AB,bes7sqds8b,4,"Were you doing anything else while this experiment was going on? You will get credit no matter how you respond here.",Text,8894,"Listening to Music"
w10048422AB,bes7sqds8b,5,"Which of the following problems did you have?",Checkbox,10230,none
w10059358_arw,rretvymjj3,1,"Did the experiment go smoothly or were there problems? (Note: Your compensation will not depend on your answer below, so please be honest.)!!!",Radio,4891,Smooth
w10059358_arw,rretvymjj3,2,"Have you participated in this experiment (or another experiment using the same learning materials) before?",Radio,7918,Naive
w10059358_arw,rretvymjj3,3,"How much fun was this experiment? <p>1 being very fun -- 7 being the MOST FUN EVER</p>",Likert,10061,4
w10059358_arw,rretvymjj3,4,"Were you doing anything else while this experiment was going on? You will get credit no matter how you respond here.",Text,10460,"the tv was on in the background"
w10059358_arw,rretvymjj3,5,"Which of the following problems did you have?",Checkbox,4337,none
W10106164HPR,qjhh35oz5s,1,"Did the experiment go smoothly or were there problems? (Note: Your compensation will not depend on your answer below, so please be honest.)!!!",Radio,3351,Smooth
W10106164HPR,qjhh35oz5s,2,"Have you participated in this experiment (or another experiment using the same learning materials) before?",Radio,6194,DoneItBefore
W10106164HPR,qjhh35oz5s,3,"How much fun was this experiment? <p>1 being very fun -- 7 being the MOST FUN EVER</p>",Likert,7918,2
W10106164HPR,qjhh35oz5s,4,"Were you doing anything else while this experiment was going on? You will get credit no matter how you respond here.",Text,8183,no
W10106164HPR,qjhh35oz5s,5,"Which of the following problems did you have?",Checkbox,8180,none
10084195jh,nlmr0t3ap4,1,"Did the experiment go smoothly or were there problems? (Note: Your compensation will not depend on your answer below, so please be honest.)!!!",Radio,17229,MinorBumps
10084195jh,nlmr0t3ap4,2,"Have you participated in this experiment (or another experiment using the same learning materials) before?",Radio,15360,Naive
10084195jh,nlmr0t3ap4,3,"How much fun was this experiment? <p>1 being very fun -- 7 being the MOST FUN EVER</p>",Likert,11737,4
10084195jh,nlmr0t3ap4,4,"Were you doing anything else while this experiment was going on? You will get credit no matter how you respond here.",Text,9846,no.
10084195jh,nlmr0t3ap4,5,"Which of the following problems did you have?",Checkbox,9011,none
w934494_APK,vzhb7wv7na,1,"Did the experiment go smoothly or were there problems? (Note: Your compensation will not depend on your answer below, so please be honest.)!!!",Radio,15483,Smooth
w934494_APK,vzhb7wv7na,2,"Have you participated in this experiment (or another experiment using the same learning materials) before?",Radio,13297,DoneItBefore
w934494_APK,vzhb7wv7na,3,"How much fun was this experiment? <p>1 being very fun -- 7 being the MOST FUN EVER</p>",Likert,15911,5
w934494_APK,vzhb7wv7na,4,"Were you doing anything else while this experiment was going on? You will get credit no matter how you respond here.",Text,8020,No
w934494_APK,vzhb7wv7na,5,"Which of the following problems did you have?",Checkbox,16025,reload
w10043024,tt3ocznl5l,1,"Did the experiment go smoothly or were there problems? (Note: Your compensation will not depend on your answer below, so please be honest.)!!!",Radio,5139,Smooth
w10043024,tt3ocznl5l,2,"Have you participated in this experiment (or another experiment using the same learning materials) before?",Radio,5139,DoneItBefore
w10043024,tt3ocznl5l,3,"How much fun was this experiment? <p>1 being very fun -- 7 being the MOST FUN EVER</p>",Likert,8107,4
w10043024,tt3ocznl5l,4,"Were you doing anything else while this experiment was going on? You will get credit no matter how you respond here.",Text,5917,no
w10043024,tt3ocznl5l,5,"Which of the following problems did you have?",Checkbox,7529,none
w10046977_ajg,aq48tebm4r,1,"Did the experiment go smoothly or were there problems? (Note: Your compensation will not depend on your answer below, so please be honest.)!!!",Radio,8932,Smooth
w10046977_ajg,aq48tebm4r,2,"Have you participated in this experiment (or another experiment using the same learning materials) before?",Radio,10081,DoneItBefore
w10046977_ajg,aq48tebm4r,3,"How much fun was this experiment? <p>1 being very fun -- 7 being the MOST FUN EVER</p>",Likert,13218,4
w10046977_ajg,aq48tebm4r,4,"Were you doing anything else while this experiment was going on? You will get credit no matter how you respond here.",Text,42904,"I was on my phone sometimes. "
w10046977_ajg,aq48tebm4r,5,"Which of the following problems did you have?",Checkbox,6633,none
w10013081,xedqvq5mon,1,"Did the experiment go smoothly or were there problems? (Note: Your compensation will not depend on your answer below, so please be honest.)!!!",Radio,8101,MinorBumps
w10013081,xedqvq5mon,2,"Have you participated in this experiment (or another experiment using the same learning materials) before?",Radio,5291,Naive
w10013081,xedqvq5mon,3,"How much fun was this experiment? <p>1 being very fun -- 7 being the MOST FUN EVER</p>",Likert,5294,4
w10013081,xedqvq5mon,4,"Were you doing anything else while this experiment was going on? You will get credit no matter how you respond here.",Text,8176,No
w10013081,xedqvq5mon,5,"Which of the following problems did you have?",Checkbox,8665,none
w10062352_bow,vys7miuxjh,1,"Did the experiment go smoothly or were there problems? (Note: Your compensation will not depend on your answer below, so please be honest.)!!!",Radio,9392,Smooth
w10062352_bow,vys7miuxjh,2,"Have you participated in this experiment (or another experiment using the same learning materials) before?",Radio,7036,Naive
w10062352_bow,vys7miuxjh,3,"How much fun was this experiment? <p>1 being very fun -- 7 being the MOST FUN EVER</p>",Likert,7499,5
w10062352_bow,vys7miuxjh,4,"Were you doing anything else while this experiment was going on? You will get credit no matter how you respond here.",Text,5629,no
w10062352_bow,vys7miuxjh,5,"Which of the following problems did you have?",Checkbox,10320,none
w10037861HE,rw93gulkn3,1,"Did the experiment go smoothly or were there problems? (Note: Your compensation will not depend on your answer below, so please be honest.)!!!",Radio,5205,Smooth
w10037861HE,rw93gulkn3,2,"Have you participated in this experiment (or another experiment using the same learning materials) before?",Radio,8129,Naive
w10037861HE,rw93gulkn3,3,"How much fun was this experiment? <p>1 being very fun -- 7 being the MOST FUN EVER</p>",Likert,3522,5
w10037861HE,rw93gulkn3,4,"Were you doing anything else while this experiment was going on? You will get credit no matter how you respond here.",Text,4379,no
w10037861HE,rw93gulkn3,5,"Which of the following problems did you have?",Checkbox,7137,none
w100547_HRO,rpdvw5ogfu,1,"Did the experiment go smoothly or were there problems? (Note: Your compensation will not depend on your answer below, so please be honest.)!!!",Radio,3585,Smooth
w100547_HRO,rpdvw5ogfu,2,"Have you participated in this experiment (or another experiment using the same learning materials) before?",Radio,5746,Naive
w100547_HRO,rpdvw5ogfu,3,"How much fun was this experiment? <p>1 being very fun -- 7 being the MOST FUN EVER</p>",Likert,5992,5
w100547_HRO,rpdvw5ogfu,4,"Were you doing anything else while this experiment was going on? You will get credit no matter how you respond here.",Text,10072,"My girlfriend was in the room"
w100547_HRO,rpdvw5ogfu,5,"Which of the following problems did you have?",Checkbox,5066,none
w10088462_kb,wxkjfdbcjm,1,"Did the experiment go smoothly or were there problems? (Note: Your compensation will not depend on your answer below, so please be honest.)!!!",Radio,3524,Smooth
w10088462_kb,wxkjfdbcjm,2,"Have you participated in this experiment (or another experiment using the same learning materials) before?",Radio,9926,DoneItBefore
w10088462_kb,wxkjfdbcjm,3,"How much fun was this experiment? <p>1 being very fun -- 7 being the MOST FUN EVER</p>",Likert,9156,5
w10088462_kb,wxkjfdbcjm,4,"Were you doing anything else while this experiment was going on? You will get credit no matter how you respond here.",Text,5717,No
w10088462_kb,wxkjfdbcjm,5,"Which of the following problems did you have?",Checkbox,4564,none
w10096966,djo4tnwx70,1,"Did the experiment go smoothly or were there problems? (Note: Your compensation will not depend on your answer below, so please be honest.)!!!",Radio,12693,Smooth
w10096966,djo4tnwx70,2,"Have you participated in this experiment (or another experiment using the same learning materials) before?",Radio,6194,Naive
w10096966,djo4tnwx70,3,"How much fun was this experiment? <p>1 being very fun -- 7 being the MOST FUN EVER</p>",Likert,18990,1
w10096966,djo4tnwx70,4,"Were you doing anything else while this experiment was going on? You will get credit no matter how you respond here.",Text,18388,"drinking tea "
w10096966,djo4tnwx70,5,"Which of the following problems did you have?",Checkbox,16555,none
982346DJ,fd2iyxikvm,1,"Did the experiment go smoothly or were there problems? (Note: Your compensation will not depend on your answer below, so please be honest.)!!!",Radio,4262,MinorBumps
982346DJ,fd2iyxikvm,2,"Have you participated in this experiment (or another experiment using the same learning materials) before?",Radio,4011,Naive
982346DJ,fd2iyxikvm,3,"How much fun was this experiment? <p>1 being very fun -- 7 being the MOST FUN EVER</p>",Likert,6151,1
982346DJ,fd2iyxikvm,4,"Were you doing anything else while this experiment was going on? You will get credit no matter how you respond here.",Text,4613,no
982346DJ,fd2iyxikvm,5,"Which of the following problems did you have?",Checkbox,5397,none
w535119_jll,9ow3oocti8,1,"Did the experiment go smoothly or were there problems? (Note: Your compensation will not depend on your answer below, so please be honest.)!!!",Radio,8802,Smooth
w535119_jll,9ow3oocti8,2,"Have you participated in this experiment (or another experiment using the same learning materials) before?",Radio,6860,Naive
w535119_jll,9ow3oocti8,3,"How much fun was this experiment? <p>1 being very fun -- 7 being the MOST FUN EVER</p>",Likert,11606,8
w535119_jll,9ow3oocti8,4,"Were you doing anything else while this experiment was going on? You will get credit no matter how you respond here.",Text,8030,no
w535119_jll,9ow3oocti8,5,"Which of the following problems did you have?",Checkbox,6417,none
w10036134AN,ea1n15sqdc,1,"Did the experiment go smoothly or were there problems? (Note: Your compensation will not depend on your answer below, so please be honest.)!!!",Radio,8769,Smooth
w10036134AN,ea1n15sqdc,2,"Have you participated in this experiment (or another experiment using the same learning materials) before?",Radio,7236,DoneItBefore
w10036134AN,ea1n15sqdc,3,"How much fun was this experiment? <p>1 being very fun -- 7 being the MOST FUN EVER</p>",Likert,10304,4
w10036134AN,ea1n15sqdc,4,"Were you doing anything else while this experiment was going on? You will get credit no matter how you respond here.",Text,5959,no
w10036134AN,ea1n15sqdc,5,"Which of the following problems did you have?",Checkbox,4724,none
w10088466_kad,hyiaywoi9i,1,"Did the experiment go smoothly or were there problems? (Note: Your compensation will not depend on your answer below, so please be honest.)!!!",Radio,5951,Smooth
w10088466_kad,hyiaywoi9i,2,"Have you participated in this experiment (or another experiment using the same learning materials) before?",Radio,4341,Naive
w10088466_kad,hyiaywoi9i,3,"How much fun was this experiment? <p>1 being very fun -- 7 being the MOST FUN EVER</p>",Likert,3613,4
w10088466_kad,hyiaywoi9i,4,"Were you doing anything else while this experiment was going on? You will get credit no matter how you respond here.",Text,7529,No
w10088466_kad,hyiaywoi9i,5,"Which of the following problems did you have?",Checkbox,4481,none
w10012551_ash,bvsaffp013,1,"Did the experiment go smoothly or were there problems? (Note: Your compensation will not depend on your answer below, so please be honest.)!!!",Radio,3028,Smooth
w10012551_ash,bvsaffp013,2,"Have you participated in this experiment (or another experiment using the same learning materials) before?",Radio,2511,DoneItBefore
w10012551_ash,bvsaffp013,3,"How much fun was this experiment? <p>1 being very fun -- 7 being the MOST FUN EVER</p>",Likert,1330,1
w10012551_ash,bvsaffp013,4,"Were you doing anything else while this experiment was going on? You will get credit no matter how you respond here.",Text,1645,
w10012551_ash,bvsaffp013,5,"Which of the following problems did you have?",Checkbox,4643,none
w10021803mm,qotkxc9me9,1,"Did the experiment go smoothly or were there problems? (Note: Your compensation will not depend on your answer below, so please be honest.)!!!",Radio,3721,Smooth
w10021803mm,qotkxc9me9,2,"Have you participated in this experiment (or another experiment using the same learning materials) before?",Radio,2435,DoneItBefore
w10021803mm,qotkxc9me9,3,"How much fun was this experiment? <p>1 being very fun -- 7 being the MOST FUN EVER</p>",Likert,10037,1
w10021803mm,qotkxc9me9,4,"Were you doing anything else while this experiment was going on? You will get credit no matter how you respond here.",Text,4560,NO
w10021803mm,qotkxc9me9,5,"Which of the following problems did you have?",Checkbox,7021,"internet connectivity problems"
w10021803mm,qotkxc9me9,5,"Which of the following problems did you have?",Checkbox,7021,none
w10059664CB,yrhopih0e7,1,"Did the experiment go smoothly or were there problems? (Note: Your compensation will not depend on your answer below, so please be honest.)!!!",Radio,8657,MinorBumps
w10059664CB,yrhopih0e7,2,"Have you participated in this experiment (or another experiment using the same learning materials) before?",Radio,5498,Naive
w10059664CB,yrhopih0e7,3,"How much fun was this experiment? <p>1 being very fun -- 7 being the MOST FUN EVER</p>",Likert,15558,"0 no fun at all. "
w10059664CB,yrhopih0e7,4,"Were you doing anything else while this experiment was going on? You will get credit no matter how you respond here.",Text,12246,"sadly, i was not. "
w10059664CB,yrhopih0e7,5,"Which of the following problems did you have?",Checkbox,17420,none
w10049766_AYN,nnamtajdia,1,"Did the experiment go smoothly or were there problems? (Note: Your compensation will not depend on your answer below, so please be honest.)!!!",Radio,3839,Smooth
w10049766_AYN,nnamtajdia,2,"Have you participated in this experiment (or another experiment using the same learning materials) before?",Radio,7157,Naive
w10049766_AYN,nnamtajdia,3,"How much fun was this experiment? <p>1 being very fun -- 7 being the MOST FUN EVER</p>",Likert,11784,3
w10049766_AYN,nnamtajdia,4,"Were you doing anything else while this experiment was going on? You will get credit no matter how you respond here.",Text,6237,no
w10049766_AYN,nnamtajdia,5,"Which of the following problems did you have?",Checkbox,5400,none
w10033012_TMB,0cqqkplzht,1,"Did the experiment go smoothly or were there problems? (Note: Your compensation will not depend on your answer below, so please be honest.)!!!",Radio,8570,Smooth
w10033012_TMB,0cqqkplzht,2,"Have you participated in this experiment (or another experiment using the same learning materials) before?",Radio,6812,Naive
w10033012_TMB,0cqqkplzht,3,"How much fun was this experiment? <p>1 being very fun -- 7 being the MOST FUN EVER</p>",Likert,13059,1
w10033012_TMB,0cqqkplzht,4,"Were you doing anything else while this experiment was going on? You will get credit no matter how you respond here.",Text,8503,no
w10033012_TMB,0cqqkplzht,5,"Which of the following problems did you have?",Checkbox,9338,none
w10022439_mlr,t1wqv872d0,1,"Did the experiment go smoothly or were there problems? (Note: Your compensation will not depend on your answer below, so please be honest.)!!!",Radio,5286,Smooth
w10022439_mlr,t1wqv872d0,2,"Have you participated in this experiment (or another experiment using the same learning materials) before?",Radio,12527,DoneItBefore
w10022439_mlr,t1wqv872d0,3,"How much fun was this experiment? <p>1 being very fun -- 7 being the MOST FUN EVER</p>",Likert,6372,6
w10022439_mlr,t1wqv872d0,4,"Were you doing anything else while this experiment was going on? You will get credit no matter how you respond here.",Text,4442,no
w10022439_mlr,t1wqv872d0,5,"Which of the following problems did you have?",Checkbox,4873,none
w10082599_LD,u7x96q1nyv,1,"Did the experiment go smoothly or were there problems? (Note: Your compensation will not depend on your answer below, so please be honest.)!!!",Radio,13425,Smooth
w10082599_LD,u7x96q1nyv,2,"Have you participated in this experiment (or another experiment using the same learning materials) before?",Radio,7075,Naive
w10082599_LD,u7x96q1nyv,3,"How much fun was this experiment? <p>1 being very fun -- 7 being the MOST FUN EVER</p>",Likert,13953,4
w10082599_LD,u7x96q1nyv,4,"Were you doing anything else while this experiment was going on? You will get credit no matter how you respond here.",Text,39048,"No I was lying down. My roommate however was in a zoom that was out loud."
w10082599_LD,u7x96q1nyv,5,"Which of the following problems did you have?",Checkbox,15709,none
w10050832_sgm,kckvjiaful,1,"Did the experiment go smoothly or were there problems? (Note: Your compensation will not depend on your answer below, so please be honest.)!!!",Radio,4545,Smooth
w10050832_sgm,kckvjiaful,2,"Have you participated in this experiment (or another experiment using the same learning materials) before?",Radio,10839,DoneItBefore
w10050832_sgm,kckvjiaful,3,"How much fun was this experiment? <p>1 being very fun -- 7 being the MOST FUN EVER</p>",Likert,4245,2
w10050832_sgm,kckvjiaful,4,"Were you doing anything else while this experiment was going on? You will get credit no matter how you respond here.",Text,17824,"i was on a phone call, and i had just recently failed a test"
w10050832_sgm,kckvjiaful,5,"Which of the following problems did you have?",Checkbox,5451,none
w10004245,g4n97f78gj,1,"Did the experiment go smoothly or were there problems? (Note: Your compensation will not depend on your answer below, so please be honest.)!!!",Radio,20302,Smooth
w10004245,g4n97f78gj,2,"Have you participated in this experiment (or another experiment using the same learning materials) before?",Radio,4308,DoneItBefore
w10004245,g4n97f78gj,3,"How much fun was this experiment? <p>1 being very fun -- 7 being the MOST FUN EVER</p>",Likert,1426,1
w10004245,g4n97f78gj,4,"Were you doing anything else while this experiment was going on? You will get credit no matter how you respond here.",Text,5389,nothing
w10004245,g4n97f78gj,5,"Which of the following problems did you have?",Checkbox,27380,none
w10045963_lnp,wdghf6klc3,1,"Did the experiment go smoothly or were there problems? (Note: Your compensation will not depend on your answer below, so please be honest.)!!!",Radio,6385,Smooth
w10045963_lnp,wdghf6klc3,2,"Have you participated in this experiment (or another experiment using the same learning materials) before?",Radio,5304,Naive
w10045963_lnp,wdghf6klc3,3,"How much fun was this experiment? <p>1 being very fun -- 7 being the MOST FUN EVER</p>",Likert,9036,4
w10045963_lnp,wdghf6klc3,4,"Were you doing anything else while this experiment was going on? You will get credit no matter how you respond here.",Text,13846,
w10045963_lnp,wdghf6klc3,5,"Which of the following problems did you have?",Checkbox,8812,none
w10019988_kh,e65qq6b69l,1,"Did the experiment go smoothly or were there problems? (Note: Your compensation will not depend on your answer below, so please be honest.)!!!",Radio,7800,Smooth
w10019988_kh,e65qq6b69l,2,"Have you participated in this experiment (or another experiment using the same learning materials) before?",Radio,3950,Naive
w10019988_kh,e65qq6b69l,3,"How much fun was this experiment? <p>1 being very fun -- 7 being the MOST FUN EVER</p>",Likert,5159,3
w10019988_kh,e65qq6b69l,4,"Were you doing anything else while this experiment was going on? You will get credit no matter how you respond here.",Text,3014,
w10019988_kh,e65qq6b69l,5,"Which of the following problems did you have?",Checkbox,5443,none
w984273RS,xww1bzgwla,1,"Did the experiment go smoothly or were there problems? (Note: Your compensation will not depend on your answer below, so please be honest.)!!!",Radio,3874,Smooth
w984273RS,xww1bzgwla,2,"Have you participated in this experiment (or another experiment using the same learning materials) before?",Radio,3452,DoneItBefore
w984273RS,xww1bzgwla,3,"How much fun was this experiment? <p>1 being very fun -- 7 being the MOST FUN EVER</p>",Likert,3090,1
w984273RS,xww1bzgwla,4,"Were you doing anything else while this experiment was going on? You will get credit no matter how you respond here.",Text,7543,No
w984273RS,xww1bzgwla,5,"Which of the following problems did you have?",Checkbox,4488,none
w10103818,jrma3hjqpt,1,"Did the experiment go smoothly or were there problems? (Note: Your compensation will not depend on your answer below, so please be honest.)!!!",Radio,7292,Smooth
w10103818,jrma3hjqpt,2,"Have you participated in this experiment (or another experiment using the same learning materials) before?",Radio,3515,Naive
w10103818,jrma3hjqpt,3,"How much fun was this experiment? <p>1 being very fun -- 7 being the MOST FUN EVER</p>",Likert,8410,6
w10103818,jrma3hjqpt,4,"Were you doing anything else while this experiment was going on? You will get credit no matter how you respond here.",Text,12580,no
w10103818,jrma3hjqpt,5,"Which of the following problems did you have?",Checkbox,10484,reload
w10103818,jrma3hjqpt,5,"Which of the following problems did you have?",Checkbox,10484,"blank page"
w10103818,jrma3hjqpt,5,"Which of the following problems did you have?",Checkbox,10484,"internet connectivity problems"
w997000jy,rkwq8olarx,1,"Did the experiment go smoothly or were there problems? (Note: Your compensation will not depend on your answer below, so please be honest.)!!!",Radio,1863,Smooth
w997000jy,rkwq8olarx,2,"Have you participated in this experiment (or another experiment using the same learning materials) before?",Radio,2596,DoneItBefore
w997000jy,rkwq8olarx,3,"How much fun was this experiment? <p>1 being very fun -- 7 being the MOST FUN EVER</p>",Likert,4955,6
w997000jy,rkwq8olarx,4,"Were you doing anything else while this experiment was going on? You will get credit no matter how you respond here.",Text,3467,no
w997000jy,rkwq8olarx,5,"Which of the following problems did you have?",Checkbox,2645,none
w10059558_rch,5ksyq7l8wm,1,"Did the experiment go smoothly or were there problems? (Note: Your compensation will not depend on your answer below, so please be honest.)!!!",Radio,3307,Smooth
w10059558_rch,5ksyq7l8wm,2,"Have you participated in this experiment (or another experiment using the same learning materials) before?",Radio,4850,Naive
w10059558_rch,5ksyq7l8wm,3,"How much fun was this experiment? <p>1 being very fun -- 7 being the MOST FUN EVER</p>",Likert,3821,1
w10059558_rch,5ksyq7l8wm,4,"Were you doing anything else while this experiment was going on? You will get credit no matter how you respond here.",Text,5015,no
w10059558_rch,5ksyq7l8wm,5,"Which of the following problems did you have?",Checkbox,3033,none
w10030757JP,sf71upj9lw,1,"Did the experiment go smoothly or were there problems? (Note: Your compensation will not depend on your answer below, so please be honest.)!!!",Radio,8273,MinorBumps
w10030757JP,sf71upj9lw,2,"Have you participated in this experiment (or another experiment using the same learning materials) before?",Radio,5209,Naive
w10030757JP,sf71upj9lw,3,"How much fun was this experiment? <p>1 being very fun -- 7 being the MOST FUN EVER</p>",Likert,7748,3
w10030757JP,sf71upj9lw,4,"Were you doing anything else while this experiment was going on? You will get credit no matter how you respond here.",Text,6372,no
w10030757JP,sf71upj9lw,5,"Which of the following problems did you have?",Checkbox,8253,none
10069503MDSA,ox0ruwx97y,1,"Did the experiment go smoothly or were there problems? (Note: Your compensation will not depend on your answer below, so please be honest.)!!!",Radio,14587,Smooth
10069503MDSA,ox0ruwx97y,2,"Have you participated in this experiment (or another experiment using the same learning materials) before?",Radio,4448,Naive
10069503MDSA,ox0ruwx97y,3,"How much fun was this experiment? <p>1 being very fun -- 7 being the MOST FUN EVER</p>",Likert,6375,3
10069503MDSA,ox0ruwx97y,4,"Were you doing anything else while this experiment was going on? You will get credit no matter how you respond here.",Text,14183,"listening to music "
10069503MDSA,ox0ruwx97y,5,"Which of the following problems did you have?",Checkbox,6062,none
10104845FH,r1emwkx808,1,"Did the experiment go smoothly or were there problems? (Note: Your compensation will not depend on your answer below, so please be honest.)!!!",Radio,6290,Smooth
10104845FH,r1emwkx808,2,"Have you participated in this experiment (or another experiment using the same learning materials) before?",Radio,7960,Naive
10104845FH,r1emwkx808,3,"How much fun was this experiment? <p>1 being very fun -- 7 being the MOST FUN EVER</p>",Likert,3854,1
10104845FH,r1emwkx808,4,"Were you doing anything else while this experiment was going on? You will get credit no matter how you respond here.",Text,6304,NO
10104845FH,r1emwkx808,5,"Which of the following problems did you have?",Checkbox,4620,none
w10044868_as,ssihuxm6ak,1,"Did the experiment go smoothly or were there problems? (Note: Your compensation will not depend on your answer below, so please be honest.)!!!",Radio,3847,MinorBumps
w10044868_as,ssihuxm6ak,2,"Have you participated in this experiment (or another experiment using the same learning materials) before?",Radio,4374,DoneItBefore
w10044868_as,ssihuxm6ak,3,"How much fun was this experiment? <p>1 being very fun -- 7 being the MOST FUN EVER</p>",Likert,3027,4
w10044868_as,ssihuxm6ak,4,"Were you doing anything else while this experiment was going on? You will get credit no matter how you respond here.",Text,17142,nope
w10044868_as,ssihuxm6ak,5,"Which of the following problems did you have?",Checkbox,3716,reload
w10071305_mkt,qfiu32gvcg,1,"Did the experiment go smoothly or were there problems? (Note: Your compensation will not depend on your answer below, so please be honest.)!!!",Radio,7958,Smooth
w10071305_mkt,qfiu32gvcg,2,"Have you participated in this experiment (or another experiment using the same learning materials) before?",Radio,4188,Naive
w10071305_mkt,qfiu32gvcg,3,"How much fun was this experiment? <p>1 being very fun -- 7 being the MOST FUN EVER</p>",Likert,11633,2
w10071305_mkt,qfiu32gvcg,4,"Were you doing anything else while this experiment was going on? You will get credit no matter how you respond here.",Text,7638,No
w10071305_mkt,qfiu32gvcg,5,"Which of the following problems did you have?",Checkbox,7219,none
w10011881_dnd,zo29qz86em,1,"Did the experiment go smoothly or were there problems? (Note: Your compensation will not depend on your answer below, so please be honest.)!!!",Radio,12266,Smooth
w10011881_dnd,zo29qz86em,2,"Have you participated in this experiment (or another experiment using the same learning materials) before?",Radio,3380,Naive
w10011881_dnd,zo29qz86em,3,"How much fun was this experiment? <p>1 being very fun -- 7 being the MOST FUN EVER</p>",Likert,15386,1
w10011881_dnd,zo29qz86em,4,"Were you doing anything else while this experiment was going on? You will get credit no matter how you respond here.",Text,8333,No
w10011881_dnd,zo29qz86em,5,"Which of the following problems did you have?",Checkbox,11021,reload
w10029010,3uguohoh9g,1,"Did the experiment go smoothly or were there problems? (Note: Your compensation will not depend on your answer below, so please be honest.)!!!",Radio,3600,Smooth
w10029010,3uguohoh9g,2,"Have you participated in this experiment (or another experiment using the same learning materials) before?",Radio,10503,DoneItBefore
w10029010,3uguohoh9g,3,"How much fun was this experiment? <p>1 being very fun -- 7 being the MOST FUN EVER</p>",Likert,4094,5
w10029010,3uguohoh9g,4,"Were you doing anything else while this experiment was going on? You will get credit no matter how you respond here.",Text,5357,No
w10029010,3uguohoh9g,5,"Which of the following problems did you have?",Checkbox,3665,none
w10065796_sjb,2j69kwr1hm,1,"Did the experiment go smoothly or were there problems? (Note: Your compensation will not depend on your answer below, so please be honest.)!!!",Radio,4773,Smooth
w10065796_sjb,2j69kwr1hm,2,"Have you participated in this experiment (or another experiment using the same learning materials) before?",Radio,7280,DoneItBefore
w10065796_sjb,2j69kwr1hm,3,"How much fun was this experiment? <p>1 being very fun -- 7 being the MOST FUN EVER</p>",Likert,3423,6
w10065796_sjb,2j69kwr1hm,4,"Were you doing anything else while this experiment was going on? You will get credit no matter how you respond here.",Text,7104,no
w10065796_sjb,2j69kwr1hm,5,"Which of the following problems did you have?",Checkbox,3291,none
w10076541_mim,lz1xku94xr,1,"Did the experiment go smoothly or were there problems? (Note: Your compensation will not depend on your answer below, so please be honest.)!!!",Radio,2616,Smooth
w10076541_mim,lz1xku94xr,2,"Have you participated in this experiment (or another experiment using the same learning materials) before?",Radio,9528,DoneItBefore
w10076541_mim,lz1xku94xr,3,"How much fun was this experiment? <p>1 being very fun -- 7 being the MOST FUN EVER</p>",Likert,12137,2
w10076541_mim,lz1xku94xr,4,"Were you doing anything else while this experiment was going on? You will get credit no matter how you respond here.",Text,7285,No
w10076541_mim,lz1xku94xr,5,"Which of the following problems did you have?",Checkbox,5024,none
10071305_mkt,6ph3bzrfyf,1,"Did the experiment go smoothly or were there problems? (Note: Your compensation will not depend on your answer below, so please be honest.)!!!",Radio,2702,Smooth
10071305_mkt,6ph3bzrfyf,2,"Have you participated in this experiment (or another experiment using the same learning materials) before?",Radio,7617,DoneItBefore
10071305_mkt,6ph3bzrfyf,3,"How much fun was this experiment? <p>1 being very fun -- 7 being the MOST FUN EVER</p>",Likert,5287,4
10071305_mkt,6ph3bzrfyf,4,"Were you doing anything else while this experiment was going on? You will get credit no matter how you respond here.",Text,4598,no
10071305_mkt,6ph3bzrfyf,5,"Which of the following problems did you have?",Checkbox,3357,none
w10082046_ac,pbg3wqcd9x,1,"Did the experiment go smoothly or were there problems? (Note: Your compensation will not depend on your answer below, so please be honest.)!!!",Radio,10144,Smooth
w10082046_ac,pbg3wqcd9x,2,"Have you participated in this experiment (or another experiment using the same learning materials) before?",Radio,8625,Naive
w10082046_ac,pbg3wqcd9x,3,"How much fun was this experiment? <p>1 being very fun -- 7 being the MOST FUN EVER</p>",Likert,8668,3
w10082046_ac,pbg3wqcd9x,4,"Were you doing anything else while this experiment was going on? You will get credit no matter how you respond here.",Text,11635,"eating "
w10082046_ac,pbg3wqcd9x,5,"Which of the following problems did you have?",Checkbox,9106,none
w919795_nrb,75qidj0pa3,1,"Did the experiment go smoothly or were there problems? (Note: Your compensation will not depend on your answer below, so please be honest.)!!!",Radio,4445,MinorBumps
w919795_nrb,75qidj0pa3,2,"Have you participated in this experiment (or another experiment using the same learning materials) before?",Radio,4726,Naive
w919795_nrb,75qidj0pa3,3,"How much fun was this experiment? <p>1 being very fun -- 7 being the MOST FUN EVER</p>",Likert,6905,3
w919795_nrb,75qidj0pa3,4,"Were you doing anything else while this experiment was going on? You will get credit no matter how you respond here.",Text,19389,yes
w919795_nrb,75qidj0pa3,5,"Which of the following problems did you have?",Checkbox,12857,none
w10006036_mlh,4bh46mpg60,1,"Did the experiment go smoothly or were there problems? (Note: Your compensation will not depend on your answer below, so please be honest.)!!!",Radio,9965,Smooth
w10006036_mlh,4bh46mpg60,2,"Have you participated in this experiment (or another experiment using the same learning materials) before?",Radio,4897,Naive
w10006036_mlh,4bh46mpg60,3,"How much fun was this experiment? <p>1 being very fun -- 7 being the MOST FUN EVER</p>",Likert,11198,4
w10006036_mlh,4bh46mpg60,4,"Were you doing anything else while this experiment was going on? You will get credit no matter how you respond here.",Text,13633,"texting "
w10006036_mlh,4bh46mpg60,5,"Which of the following problems did you have?",Checkbox,17346,reload
334685WJ,h9lkz6d664,1,"Did the experiment go smoothly or were there problems? (Note: Your compensation will not depend on your answer below, so please be honest.)!!!",Radio,12165,Smooth
334685WJ,h9lkz6d664,2,"Have you participated in this experiment (or another experiment using the same learning materials) before?",Radio,8177,Naive
334685WJ,h9lkz6d664,3,"How much fun was this experiment? <p>1 being very fun -- 7 being the MOST FUN EVER</p>",Likert,11114,5
334685WJ,h9lkz6d664,4,"Were you doing anything else while this experiment was going on? You will get credit no matter how you respond here.",Text,17762,"Listening to music"
334685WJ,h9lkz6d664,5,"Which of the following problems did you have?",Checkbox,10633,none
w10037565TT,abu50hptkg,1,"Did the experiment go smoothly or were there problems? (Note: Your compensation will not depend on your answer below, so please be honest.)!!!",Radio,9868,MinorBumps
w10037565TT,abu50hptkg,2,"Have you participated in this experiment (or another experiment using the same learning materials) before?",Radio,5314,Naive
w10037565TT,abu50hptkg,3,"How much fun was this experiment? <p>1 being very fun -- 7 being the MOST FUN EVER</p>",Likert,7863,4
w10037565TT,abu50hptkg,4,"Were you doing anything else while this experiment was going on? You will get credit no matter how you respond here.",Text,8893,no
w10037565TT,abu50hptkg,5,"Which of the following problems did you have?",Checkbox,8929,reload
w10037565TT,abu50hptkg,5,"Which of the following problems did you have?",Checkbox,8929,"blank page"
w10037565TT,abu50hptkg,5,"Which of the following problems did you have?",Checkbox,8929,"internet connectivity problems"
w10016442_mb,nh7n0lo4ni,1,"Did the experiment go smoothly or were there problems? (Note: Your compensation will not depend on your answer below, so please be honest.)!!!",Radio,3444,Smooth
w10016442_mb,nh7n0lo4ni,2,"Have you participated in this experiment (or another experiment using the same learning materials) before?",Radio,5736,Naive
w10016442_mb,nh7n0lo4ni,3,"How much fun was this experiment? <p>1 being very fun -- 7 being the MOST FUN EVER</p>",Likert,7428,4
w10016442_mb,nh7n0lo4ni,4,"Were you doing anything else while this experiment was going on? You will get credit no matter how you respond here.",Text,4519,no
w10016442_mb,nh7n0lo4ni,5,"Which of the following problems did you have?",Checkbox,5681,none
w10088817_XD,4xz6vcrirt,1,"Did the experiment go smoothly or were there problems? (Note: Your compensation will not depend on your answer below, so please be honest.)!!!",Radio,5826,Smooth
w10088817_XD,4xz6vcrirt,2,"Have you participated in this experiment (or another experiment using the same learning materials) before?",Radio,5121,Naive
w10088817_XD,4xz6vcrirt,3,"How much fun was this experiment? <p>1 being very fun -- 7 being the MOST FUN EVER</p>",Likert,5468,6
w10088817_XD,4xz6vcrirt,4,"Were you doing anything else while this experiment was going on? You will get credit no matter how you respond here.",Text,7670,No
w10088817_XD,4xz6vcrirt,5,"Which of the following problems did you have?",Checkbox,8163,"blank page"
w10030825FS,bfjallmiq3,1,"Did the experiment go smoothly or were there problems? (Note: Your compensation will not depend on your answer below, so please be honest.)!!!",Radio,4485,Smooth
w10030825FS,bfjallmiq3,2,"Have you participated in this experiment (or another experiment using the same learning materials) before?",Radio,4516,Naive
w10030825FS,bfjallmiq3,3,"How much fun was this experiment? <p>1 being very fun -- 7 being the MOST FUN EVER</p>",Likert,6355,6
w10030825FS,bfjallmiq3,4,"Were you doing anything else while this experiment was going on? You will get credit no matter how you respond here.",Text,11035,"Listening to music"
w10030825FS,bfjallmiq3,5,"Which of the following problems did you have?",Checkbox,4264,none
w10067540jer,zmxficnz89,1,"Did the experiment go smoothly or were there problems? (Note: Your compensation will not depend on your answer below, so please be honest.)!!!",Radio,7308,Smooth
w10067540jer,zmxficnz89,2,"Have you participated in this experiment (or another experiment using the same learning materials) before?",Radio,5983,DoneItBefore
w10067540jer,zmxficnz89,3,"How much fun was this experiment? <p>1 being very fun -- 7 being the MOST FUN EVER</p>",Likert,6521,2
w10067540jer,zmxficnz89,4,"Were you doing anything else while this experiment was going on? You will get credit no matter how you respond here.",Text,6870,no
w10067540jer,zmxficnz89,5,"Which of the following problems did you have?",Checkbox,4344,none
977524rc,nybu72v5og,1,"Did the experiment go smoothly or were there problems? (Note: Your compensation will not depend on your answer below, so please be honest.)!!!",Radio,3574,Smooth
977524rc,nybu72v5og,2,"Have you participated in this experiment (or another experiment using the same learning materials) before?",Radio,5481,Naive
977524rc,nybu72v5og,3,"How much fun was this experiment? <p>1 being very fun -- 7 being the MOST FUN EVER</p>",Likert,6573,5
977524rc,nybu72v5og,4,"Were you doing anything else while this experiment was going on? You will get credit no matter how you respond here.",Text,6409,no
977524rc,nybu72v5og,5,"Which of the following problems did you have?",Checkbox,6152,none
w10067789_JT,wi1lbwlvxt,1,"Did the experiment go smoothly or were there problems? (Note: Your compensation will not depend on your answer below, so please be honest.)!!!",Radio,13060,MinorBumps
w10067789_JT,wi1lbwlvxt,2,"Have you participated in this experiment (or another experiment using the same learning materials) before?",Radio,7589,Naive
w10067789_JT,wi1lbwlvxt,3,"How much fun was this experiment? <p>1 being very fun -- 7 being the MOST FUN EVER</p>",Likert,14435,4
w10067789_JT,wi1lbwlvxt,4,"Were you doing anything else while this experiment was going on? You will get credit no matter how you respond here.",Text,9564,no
w10067789_JT,wi1lbwlvxt,5,"Which of the following problems did you have?",Checkbox,14546,none
w10085323,oa8fyu9hqw,1,"Did the experiment go smoothly or were there problems? (Note: Your compensation will not depend on your answer below, so please be honest.)!!!",Radio,6127,Smooth
w10085323,oa8fyu9hqw,2,"Have you participated in this experiment (or another experiment using the same learning materials) before?",Radio,8084,Naive
w10085323,oa8fyu9hqw,3,"How much fun was this experiment? <p>1 being very fun -- 7 being the MOST FUN EVER</p>",Likert,8531,5
w10085323,oa8fyu9hqw,4,"Were you doing anything else while this experiment was going on? You will get credit no matter how you respond here.",Text,6530,no
w10085323,oa8fyu9hqw,5,"Which of the following problems did you have?",Checkbox,9569,none
w10106212EB,1saz5rxp0u,1,"Did the experiment go smoothly or were there problems? (Note: Your compensation will not depend on your answer below, so please be honest.)!!!",Radio,6514,Smooth
w10106212EB,1saz5rxp0u,2,"Have you participated in this experiment (or another experiment using the same learning materials) before?",Radio,6608,Naive
w10106212EB,1saz5rxp0u,3,"How much fun was this experiment? <p>1 being very fun -- 7 being the MOST FUN EVER</p>",Likert,7992,1
w10106212EB,1saz5rxp0u,4,"Were you doing anything else while this experiment was going on? You will get credit no matter how you respond here.",Text,7102,no
w10106212EB,1saz5rxp0u,5,"Which of the following problems did you have?",Checkbox,6191,none
w10027292MK,pyt7nhnn8e,1,"Did the experiment go smoothly or were there problems? (Note: Your compensation will not depend on your answer below, so please be honest.)!!!",Radio,2492,Smooth
w10027292MK,pyt7nhnn8e,2,"Have you participated in this experiment (or another experiment using the same learning materials) before?",Radio,3872,DoneItBefore
w10027292MK,pyt7nhnn8e,3,"How much fun was this experiment? <p>1 being very fun -- 7 being the MOST FUN EVER</p>",Likert,2085,4
w10027292MK,pyt7nhnn8e,4,"Were you doing anything else while this experiment was going on? You will get credit no matter how you respond here.",Text,3990,no
w10027292MK,pyt7nhnn8e,5,"Which of the following problems did you have?",Checkbox,2868,none
w10065682_amm,ncvtuh9i33,1,"Did the experiment go smoothly or were there problems? (Note: Your compensation will not depend on your answer below, so please be honest.)!!!",Radio,8300,Smooth
w10065682_amm,ncvtuh9i33,2,"Have you participated in this experiment (or another experiment using the same learning materials) before?",Radio,2480,Naive
w10065682_amm,ncvtuh9i33,3,"How much fun was this experiment? <p>1 being very fun -- 7 being the MOST FUN EVER</p>",Likert,5924,3
w10065682_amm,ncvtuh9i33,4,"Were you doing anything else while this experiment was going on? You will get credit no matter how you respond here.",Text,3837,no
w10065682_amm,ncvtuh9i33,5,"Which of the following problems did you have?",Checkbox,5953,none
w10069845,8psv62nms9,1,"Did the experiment go smoothly or were there problems? (Note: Your compensation will not depend on your answer below, so please be honest.)!!!",Radio,4076,Smooth
w10069845,8psv62nms9,2,"Have you participated in this experiment (or another experiment using the same learning materials) before?",Radio,4473,DoneItBefore
w10069845,8psv62nms9,3,"How much fun was this experiment? <p>1 being very fun -- 7 being the MOST FUN EVER</p>",Likert,4054,7
w10069845,8psv62nms9,4,"Were you doing anything else while this experiment was going on? You will get credit no matter how you respond here.",Text,7171,nope
w10069845,8psv62nms9,5,"Which of the following problems did you have?",Checkbox,5166,none
w10104941_mrp,kubq9folo9,1,"Did the experiment go smoothly or were there problems? (Note: Your compensation will not depend on your answer below, so please be honest.)!!!",Radio,6845,Smooth
w10104941_mrp,kubq9folo9,2,"Have you participated in this experiment (or another experiment using the same learning materials) before?",Radio,4165,Naive
w10104941_mrp,kubq9folo9,3,"How much fun was this experiment? <p>1 being very fun -- 7 being the MOST FUN EVER</p>",Likert,13766,5
w10104941_mrp,kubq9folo9,4,"Were you doing anything else while this experiment was going on? You will get credit no matter how you respond here.",Text,6293,No
w10104941_mrp,kubq9folo9,5,"Which of the following problems did you have?",Checkbox,6194,none
10064478oc,jnnw6fcx5j,1,"Did the experiment go smoothly or were there problems? (Note: Your compensation will not depend on your answer below, so please be honest.)!!!",Radio,17786,Smooth
10064478oc,jnnw6fcx5j,2,"Have you participated in this experiment (or another experiment using the same learning materials) before?",Radio,6643,Naive
10064478oc,jnnw6fcx5j,3,"How much fun was this experiment? <p>1 being very fun -- 7 being the MOST FUN EVER</p>",Likert,16809,2
10064478oc,jnnw6fcx5j,4,"Were you doing anything else while this experiment was going on? You will get credit no matter how you respond here.",Text,8511,no
10064478oc,jnnw6fcx5j,5,"Which of the following problems did you have?",Checkbox,10899,none
10097621LS,1sv35ojuyy,1,"Did the experiment go smoothly or were there problems? (Note: Your compensation will not depend on your answer below, so please be honest.)!!!",Radio,10940,ExcludeMe
10097621LS,1sv35ojuyy,2,"Have you participated in this experiment (or another experiment using the same learning materials) before?",Radio,8074,Naive
10097621LS,1sv35ojuyy,3,"How much fun was this experiment? <p>1 being very fun -- 7 being the MOST FUN EVER</p>",Likert,5397,1
10097621LS,1sv35ojuyy,4,"Were you doing anything else while this experiment was going on? You will get credit no matter how you respond here.",Text,5616,no
10097621LS,1sv35ojuyy,5,"Which of the following problems did you have?",Checkbox,8969,"internet connectivity problems"
w10077356JS,7zgcyotqkn,1,"Did the experiment go smoothly or were there problems? (Note: Your compensation will not depend on your answer below, so please be honest.)!!!",Radio,5843,Smooth
w10077356JS,7zgcyotqkn,2,"Have you participated in this experiment (or another experiment using the same learning materials) before?",Radio,3346,DoneItBefore
w10077356JS,7zgcyotqkn,3,"How much fun was this experiment? <p>1 being very fun -- 7 being the MOST FUN EVER</p>",Likert,6430,1
w10077356JS,7zgcyotqkn,4,"Were you doing anything else while this experiment was going on? You will get credit no matter how you respond here.",Text,4211,no
w10077356JS,7zgcyotqkn,5,"Which of the following problems did you have?",Checkbox,3265,none
w10079099_msr,lum2656xuu,1,"Did the experiment go smoothly or were there problems? (Note: Your compensation will not depend on your answer below, so please be honest.)!!!",Radio,11102,Smooth
w10079099_msr,lum2656xuu,2,"Have you participated in this experiment (or another experiment using the same learning materials) before?",Radio,4002,Naive
w10079099_msr,lum2656xuu,3,"How much fun was this experiment? <p>1 being very fun -- 7 being the MOST FUN EVER</p>",Likert,11385,4
w10079099_msr,lum2656xuu,4,"Were you doing anything else while this experiment was going on? You will get credit no matter how you respond here.",Text,5240,"No "
w10079099_msr,lum2656xuu,5,"Which of the following problems did you have?",Checkbox,16914,none
w10098918_eks,eir1g0ez1f,1,"Did the experiment go smoothly or were there problems? (Note: Your compensation will not depend on your answer below, so please be honest.)!!!",Radio,14128,Smooth
w10098918_eks,eir1g0ez1f,2,"Have you participated in this experiment (or another experiment using the same learning materials) before?",Radio,5802,Naive
w10098918_eks,eir1g0ez1f,3,"How much fun was this experiment? <p>1 being very fun -- 7 being the MOST FUN EVER</p>",Likert,7211,6
w10098918_eks,eir1g0ez1f,4,"Were you doing anything else while this experiment was going on? You will get credit no matter how you respond here.",Text,11848,no
w10098918_eks,eir1g0ez1f,5,"Which of the following problems did you have?",Checkbox,11289,none
w10040181_lb,gpi32doev1,1,"Did the experiment go smoothly or were there problems? (Note: Your compensation will not depend on your answer below, so please be honest.)!!!",Radio,11631,Smooth
w10040181_lb,gpi32doev1,2,"Have you participated in this experiment (or another experiment using the same learning materials) before?",Radio,7287,Naive
w10040181_lb,gpi32doev1,3,"How much fun was this experiment? <p>1 being very fun -- 7 being the MOST FUN EVER</p>",Likert,8093,1
w10040181_lb,gpi32doev1,4,"Were you doing anything else while this experiment was going on? You will get credit no matter how you respond here.",Text,7125,No
w10040181_lb,gpi32doev1,5,"Which of the following problems did you have?",Checkbox,6356,none
10047038AM,e2drtigww1,1,"Did the experiment go smoothly or were there problems? (Note: Your compensation will not depend on your answer below, so please be honest.)!!!",Radio,6249,Smooth
10047038AM,e2drtigww1,2,"Have you participated in this experiment (or another experiment using the same learning materials) before?",Radio,4546,Naive
10047038AM,e2drtigww1,3,"How much fun was this experiment? <p>1 being very fun -- 7 being the MOST FUN EVER</p>",Likert,6521,5
10047038AM,e2drtigww1,4,"Were you doing anything else while this experiment was going on? You will get credit no matter how you respond here.",Text,12770,"I did have a friend in the room"
10047038AM,e2drtigww1,5,"Which of the following problems did you have?",Checkbox,37177,none
w218848BM,lvgly3ljxx,1,"Did the experiment go smoothly or were there problems? (Note: Your compensation will not depend on your answer below, so please be honest.)!!!",Radio,2579,Smooth
w218848BM,lvgly3ljxx,2,"Have you participated in this experiment (or another experiment using the same learning materials) before?",Radio,7472,Naive
w218848BM,lvgly3ljxx,3,"How much fun was this experiment? <p>1 being very fun -- 7 being the MOST FUN EVER</p>",Likert,10272,3
w218848BM,lvgly3ljxx,4,"Were you doing anything else while this experiment was going on? You will get credit no matter how you respond here.",Text,4774,NO
w218848BM,lvgly3ljxx,5,"Which of the following problems did you have?",Checkbox,7682,"internet connectivity problems"
w10049640,5a65kyarkq,1,"Did the experiment go smoothly or were there problems? (Note: Your compensation will not depend on your answer below, so please be honest.)!!!",Radio,3886,MinorBumps
w10049640,5a65kyarkq,2,"Have you participated in this experiment (or another experiment using the same learning materials) before?",Radio,3076,Naive
w10049640,5a65kyarkq,3,"How much fun was this experiment? <p>1 being very fun -- 7 being the MOST FUN EVER</p>",Likert,5269,1
w10049640,5a65kyarkq,4,"Were you doing anything else while this experiment was going on? You will get credit no matter how you respond here.",Text,3179,
w10049640,5a65kyarkq,5,"Which of the following problems did you have?",Checkbox,4513,reload
w10065910_kb,zplycx6kb5,1,"Did the experiment go smoothly or were there problems? (Note: Your compensation will not depend on your answer below, so please be honest.)!!!",Radio,18756,Smooth
w10065910_kb,zplycx6kb5,2,"Have you participated in this experiment (or another experiment using the same learning materials) before?",Radio,5380,Naive
w10065910_kb,zplycx6kb5,3,"How much fun was this experiment? <p>1 being very fun -- 7 being the MOST FUN EVER</p>",Likert,11798,3
w10065910_kb,zplycx6kb5,4,"Were you doing anything else while this experiment was going on? You will get credit no matter how you respond here.",Text,36336,"My sister watched me do the experiment"
w10065910_kb,zplycx6kb5,5,"Which of the following problems did you have?",Checkbox,10308,reload
