Username,ID,ExperimentName,Session,Trial,Date,TimeDif,"Condition Number","Stimuli File","Order File","Condition Description","Condition Notes",Stimuli*Cue,Stimuli*Answer,Stimuli*Shuffle,"Stimuli*Stimuli Notes",Stimuli*Value,Procedure*Item,"Procedure*Trial Type","Procedure*Max Time","Procedure*Min Time",Procedure*Text,"Procedure*Procedure Notes",Procedure*Shuffle,Response*RT,Response*Response,Response*Accuracy,Response*RTfirst,Response*RTlast,Response*strictAcc,Response*lenientAcc,Response*focus,Response*Focus
5efe07ae5c74040d238693ce,5kcs3zlti1,"Deep vs Shallow",1,1,2020-07-08T14:40:24-07:00,12.082833051682,4,versionC_stim.csv,RLVersionD.csv,"Relational Version D","Relational, read only version D",,,,,,0,Instruct,-,10,"In this section, you will be presented with a series of word pairs. Please study both items in the pair.",,Instruct13,11695,,,-1,-1,,,,1
5efe07ae5c74040d238693ce,5kcs3zlti1,"Deep vs Shallow",1,2,2020-07-08T14:40:50-07:00,26.309606790543,4,versionC_stim.csv,RLVersionD.csv,"Relational Version D","Relational, read only version D",,,,,,0,Instruct,-,15,"As you study, please think about how the two concepts are RELATED to each other. For example, if you see the pair TURTLE-CAT, think about how both are alive, they are both animals, and both can be kept as pets.",,Instruct19,25702,,,-1,-1,,,,1
5efe07ae5c74040d238693ce,5kcs3zlti1,"Deep vs Shallow",1,3,2020-07-08T14:41:07-07:00,16.899554014206,4,versionC_stim.csv,RLVersionD.csv,"Relational Version D","Relational, read only version D",,,,,,0,FreeRecall,-,10,"What you should think about as you study each item pair? Type your response in the box below.",,CHECK1,16366,"How the 2 items are related",0,7400,13178,0,0,,1
5efe07ae5c74040d238693ce,5kcs3zlti1,"Deep vs Shallow",1,4,2020-07-08T14:41:12-07:00,4.910973072052,4,versionC_stim.csv,RLVersionD.csv,"Relational Version D","Relational, read only version D",,,,,,0,Instruct,User,-,"You will now begin the experiment. Press ENTER when you are ready to begin.",,Instruct000,4391,,,-1,-1,,,,1
5efe07ae5c74040d238693ce,5kcs3zlti1,"Deep vs Shallow",1,5,2020-07-08T14:41:16-07:00,3.5868060588837,4,versionC_stim.csv,RLVersionD.csv,"Relational Version D","Relational, read only version D",ADVENTURE,CAMP,BUFFER3,Buffer,95,94,Study,User,-,,Study/JOL,BUFFER,2962,,,-1,-1,,,,1
5efe07ae5c74040d238693ce,5kcs3zlti1,"Deep vs Shallow",1,6,2020-07-08T14:41:20-07:00,4.2122640609741,4,versionC_stim.csv,RLVersionD.csv,"Relational Version D","Relational, read only version D",POTATO,CARROT,BUFFER3,Buffer,91,93,Study,User,-,,Study/JOL,BUFFER,3693,,,-1,-1,,,,1
5efe07ae5c74040d238693ce,5kcs3zlti1,"Deep vs Shallow",1,7,2020-07-08T14:41:25-07:00,5.3165338039398,4,versionC_stim.csv,RLVersionD.csv,"Relational Version D","Relational, read only version D",STRING,NOODLE,BUFFER3,Buffer,92,92,Study,User,-,,Study/JOL,BUFFER,4774,,,-1,-1,,,,1
5efe07ae5c74040d238693ce,5kcs3zlti1,"Deep vs Shallow",1,8,2020-07-08T14:41:27-07:00,2.1506571769714,4,versionC_stim.csv,RLVersionD.csv,"Relational Version D","Relational, read only version D",FROZEN,ICE,BUFFER3,Buffer,94,95,Study,User,-,,Study/JOL,BUFFER,1599,,,-1,-1,,,,1
5efe07ae5c74040d238693ce,5kcs3zlti1,"Deep vs Shallow",1,9,2020-07-08T14:41:31-07:00,3.7890939712524,4,versionC_stim.csv,RLVersionD.csv,"Relational Version D","Relational, read only version D",FISH,SHRIMP,BUFFER3,Buffer,93,96,Study,User,-,,Study/JOL,BUFFER,3273,,,-1,-1,,,,1
5efe07ae5c74040d238693ce,5kcs3zlti1,"Deep vs Shallow",1,10,2020-07-08T14:41:34-07:00,2.4540579319,4,versionC_stim.csv,RLVersionD.csv,"Relational Version D","Relational, read only version D",Morning,TEMPERATURE,Study2,U,173,149,Study,User,-,,Study/JOL,"Study Phase",1856,,,-1,-1,,,,1
5efe07ae5c74040d238693ce,5kcs3zlti1,"Deep vs Shallow",1,11,2020-07-08T14:41:37-07:00,2.9687941074371,4,versionC_stim.csv,RLVersionD.csv,"Relational Version D","Relational, read only version D",BREAKABLE,GLASS,Study2,F,127,131,Study,User,-,,Study/JOL,"Study Phase",2478,,,-1,-1,,,,1
5efe07ae5c74040d238693ce,5kcs3zlti1,"Deep vs Shallow",1,12,2020-07-08T14:41:39-07:00,2.675225019455,4,versionC_stim.csv,RLVersionD.csv,"Relational Version D","Relational, read only version D",WAX,CANDLE,Study2,S,139,99,Study,User,-,,Study/JOL,"Study Phase",2052,,,-1,-1,,,,1
5efe07ae5c74040d238693ce,5kcs3zlti1,"Deep vs Shallow",1,13,2020-07-08T14:41:45-07:00,5.7215988636017,4,versionC_stim.csv,RLVersionD.csv,"Relational Version D","Relational, read only version D",TICK,FLEA,Study2,S,151,136,Study,User,-,,Study/JOL,"Study Phase",5181,,,-1,-1,,,,1
5efe07ae5c74040d238693ce,5kcs3zlti1,"Deep vs Shallow",1,14,2020-07-08T14:41:50-07:00,4.8134689331055,4,versionC_stim.csv,RLVersionD.csv,"Relational Version D","Relational, read only version D",ABLE,CRACKLE,Study2,U,162,125,Study,User,-,,Study/JOL,"Study Phase",4200,,,-1,-1,,,,1
5efe07ae5c74040d238693ce,5kcs3zlti1,"Deep vs Shallow",1,15,2020-07-08T14:41:52-07:00,2.2618060112,4,versionC_stim.csv,RLVersionD.csv,"Relational Version D","Relational, read only version D",SCISSORS,SHEARS,Study2,B,112,97,Study,User,-,,Study/JOL,"Study Phase",1665,,,-1,-1,,,,1
5efe07ae5c74040d238693ce,5kcs3zlti1,"Deep vs Shallow",1,16,2020-07-08T14:41:55-07:00,2.8567481040955,4,versionC_stim.csv,RLVersionD.csv,"Relational Version D","Relational, read only version D",RED,CHERRY,Study2,B,104,111,Study,User,-,,Study/JOL,"Study Phase",2326,,,-1,-1,,,,1
5efe07ae5c74040d238693ce,5kcs3zlti1,"Deep vs Shallow",1,17,2020-07-08T14:42:06-07:00,10.954838037491,4,versionC_stim.csv,RLVersionD.csv,"Relational Version D","Relational, read only version D",COMMUNICATION,PHONE,Study2,S,149,132,Study,User,-,,Study/JOL,"Study Phase",10324,,,-1,-1,,,,1
5efe07ae5c74040d238693ce,5kcs3zlti1,"Deep vs Shallow",1,18,2020-07-08T14:42:08-07:00,1.9477829933167,4,versionC_stim.csv,RLVersionD.csv,"Relational Version D","Relational, read only version D",SMELL,INCENSE,Study2,B,110,137,Study,User,-,,Study/JOL,"Study Phase",1346,,,-1,-1,,,,1
5efe07ae5c74040d238693ce,5kcs3zlti1,"Deep vs Shallow",1,19,2020-07-08T14:42:10-07:00,1.7440378665924,4,versionC_stim.csv,RLVersionD.csv,"Relational Version D","Relational, read only version D",PANTHER,CAT,Study2,F,126,176,Study,User,-,,Study/JOL,"Study Phase",1181,,,-1,-1,,,,1
5efe07ae5c74040d238693ce,5kcs3zlti1,"Deep vs Shallow",1,20,2020-07-08T14:42:12-07:00,2.6469120979309,4,versionC_stim.csv,RLVersionD.csv,"Relational Version D","Relational, read only version D",OUNCE,BOTH,Study2,U,172,162,Study,User,-,,Study/JOL,"Study Phase",2170,,,-1,-1,,,,1
5efe07ae5c74040d238693ce,5kcs3zlti1,"Deep vs Shallow",1,21,2020-07-08T14:42:20-07:00,7.6952638626099,4,versionC_stim.csv,RLVersionD.csv,"Relational Version D","Relational, read only version D",TEMPER,TANTRUM,Study2,S,154,122,Study,User,-,,Study/JOL,"Study Phase",7228,,,-1,-1,,,,1
5efe07ae5c74040d238693ce,5kcs3zlti1,"Deep vs Shallow",1,22,2020-07-08T14:42:25-07:00,4.6032822132111,4,versionC_stim.csv,RLVersionD.csv,"Relational Version D","Relational, read only version D",TAN,SUN,Study2,S,155,163,Study,User,-,,Study/JOL,"Study Phase",3978,,,-1,-1,,,,1
5efe07ae5c74040d238693ce,5kcs3zlti1,"Deep vs Shallow",1,23,2020-07-08T14:42:27-07:00,2.2549908161163,4,versionC_stim.csv,RLVersionD.csv,"Relational Version D","Relational, read only version D",SHAKE,Shell,Study2,U,163,158,Study,User,-,,Study/JOL,"Study Phase",1654,,,-1,-1,,,,1
5efe07ae5c74040d238693ce,5kcs3zlti1,"Deep vs Shallow",1,24,2020-07-08T14:42:28-07:00,1.5391621589661,4,versionC_stim.csv,RLVersionD.csv,"Relational Version D","Relational, read only version D",NAP,SLEEP,Study2,F,134,110,Study,User,-,,Study/JOL,"Study Phase",1031,,,-1,-1,,,,1
5efe07ae5c74040d238693ce,5kcs3zlti1,"Deep vs Shallow",1,25,2020-07-08T14:42:30-07:00,1.5334379673004,4,versionC_stim.csv,RLVersionD.csv,"Relational Version D","Relational, read only version D",CLEAR,MOAT,Study2,U,169,100,Study,User,-,,Study/JOL,"Study Phase",956,,,-1,-1,,,,1
5efe07ae5c74040d238693ce,5kcs3zlti1,"Deep vs Shallow",1,26,2020-07-08T14:42:32-07:00,2.4912400245667,4,versionC_stim.csv,RLVersionD.csv,"Relational Version D","Relational, read only version D",COLD,CHILL,Study2,B,114,166,Study,User,-,,Study/JOL,"Study Phase",2042,,,-1,-1,,,,1
5efe07ae5c74040d238693ce,5kcs3zlti1,"Deep vs Shallow",1,27,2020-07-08T14:42:34-07:00,1.9162559509277,4,versionC_stim.csv,RLVersionD.csv,"Relational Version D","Relational, read only version D",GAME,CLUE,Study2,B,97,138,Study,User,-,,Study/JOL,"Study Phase",1349,,,-1,-1,,,,1
5efe07ae5c74040d238693ce,5kcs3zlti1,"Deep vs Shallow",1,28,2020-07-08T14:42:38-07:00,3.9903340339661,4,versionC_stim.csv,RLVersionD.csv,"Relational Version D","Relational, read only version D",CHARM,VEHICLE,Study2,U,160,154,Study,User,-,,Study/JOL,"Study Phase",3375,,,-1,-1,,,,1
5efe07ae5c74040d238693ce,5kcs3zlti1,"Deep vs Shallow",1,29,2020-07-08T14:42:40-07:00,1.7428359985352,4,versionC_stim.csv,RLVersionD.csv,"Relational Version D","Relational, read only version D",VILLAIN,BAD,Study2,F,118,167,Study,User,-,,Study/JOL,"Study Phase",1156,,,-1,-1,,,,1
5efe07ae5c74040d238693ce,5kcs3zlti1,"Deep vs Shallow",1,30,2020-07-08T14:42:42-07:00,1.8409810066223,4,versionC_stim.csv,RLVersionD.csv,"Relational Version D","Relational, read only version D",SARDINE,FISH,Study2,F,130,107,Study,User,-,,Study/JOL,"Study Phase",1344,,,-1,-1,,,,1
5efe07ae5c74040d238693ce,5kcs3zlti1,"Deep vs Shallow",1,31,2020-07-08T14:42:54-07:00,11.772192001343,4,versionC_stim.csv,RLVersionD.csv,"Relational Version D","Relational, read only version D",SIGN,LOAN,Study2,U,171,119,Study,User,-,,Study/JOL,"Study Phase",10237,,,-1,-1,,,,1
5efe07ae5c74040d238693ce,5kcs3zlti1,"Deep vs Shallow",1,32,2020-07-08T14:42:56-07:00,1.9446070194244,4,versionC_stim.csv,RLVersionD.csv,"Relational Version D","Relational, read only version D",DRINK,WATER,Study2,S,143,105,Study,User,-,,Study/JOL,"Study Phase",1352,,,-1,-1,,,,1
5efe07ae5c74040d238693ce,5kcs3zlti1,"Deep vs Shallow",1,33,2020-07-08T14:42:57-07:00,1.5446989536285,4,versionC_stim.csv,RLVersionD.csv,"Relational Version D","Relational, read only version D",BANKER,MONEY,Study2,F,132,171,Study,User,-,,Study/JOL,"Study Phase",1044,,,-1,-1,,,,1
5efe07ae5c74040d238693ce,5kcs3zlti1,"Deep vs Shallow",1,34,2020-07-08T14:42:59-07:00,1.9375710487366,4,versionC_stim.csv,RLVersionD.csv,"Relational Version D","Relational, read only version D",REEL,ROD,Study2,S,150,101,Study,User,-,,Study/JOL,"Study Phase",1360,,,-1,-1,,,,1
5efe07ae5c74040d238693ce,5kcs3zlti1,"Deep vs Shallow",1,35,2020-07-08T14:43:08-07:00,8.5851759910583,4,versionC_stim.csv,RLVersionD.csv,"Relational Version D","Relational, read only version D",PLANT,CACTUS,Study2,B,98,130,Study,User,-,,Study/JOL,"Study Phase",7077,,,-1,-1,,,,1
5efe07ae5c74040d238693ce,5kcs3zlti1,"Deep vs Shallow",1,36,2020-07-08T14:43:10-07:00,2.3810729980469,4,versionC_stim.csv,RLVersionD.csv,"Relational Version D","Relational, read only version D",TRASH,LITTER,Study2,B,103,106,Study,User,-,,Study/JOL,"Study Phase",1841,,,-1,-1,,,,1
5efe07ae5c74040d238693ce,5kcs3zlti1,"Deep vs Shallow",1,37,2020-07-08T14:43:14-07:00,4.3984830379486,4,versionC_stim.csv,RLVersionD.csv,"Relational Version D","Relational, read only version D",THIMBLE,THREAD,Study2,F,121,159,Study,User,-,,Study/JOL,"Study Phase",3606,,,-1,-1,,,,1
5efe07ae5c74040d238693ce,5kcs3zlti1,"Deep vs Shallow",1,38,2020-07-08T14:43:17-07:00,2.3545339107513,4,versionC_stim.csv,RLVersionD.csv,"Relational Version D","Relational, read only version D",CLOTH,STRETCH,Study2,U,157,133,Study,User,-,,Study/JOL,"Study Phase",1737,,,-1,-1,,,,1
5efe07ae5c74040d238693ce,5kcs3zlti1,"Deep vs Shallow",1,39,2020-07-08T14:43:23-07:00,6.2241818904877,4,versionC_stim.csv,RLVersionD.csv,"Relational Version D","Relational, read only version D",LONELY,ALONE,Study2,S,145,126,Study,User,-,,Study/JOL,"Study Phase",4667,,,-1,-1,,,,1
5efe07ae5c74040d238693ce,5kcs3zlti1,"Deep vs Shallow",1,40,2020-07-08T14:43:25-07:00,1.7605521678925,4,versionC_stim.csv,RLVersionD.csv,"Relational Version D","Relational, read only version D",FIGHT,FEUD,Study2,B,113,140,Study,User,-,,Study/JOL,"Study Phase",1127,,,-1,-1,,,,1
5efe07ae5c74040d238693ce,5kcs3zlti1,"Deep vs Shallow",1,41,2020-07-08T14:43:29-07:00,3.9001369476318,4,versionC_stim.csv,RLVersionD.csv,"Relational Version D","Relational, read only version D",AIRCRAFT,PLANE,Study2,F,129,139,Study,User,-,,Study/JOL,"Study Phase",3344,,,-1,-1,,,,1
5efe07ae5c74040d238693ce,5kcs3zlti1,"Deep vs Shallow",1,42,2020-07-08T14:43:31-07:00,2.6566028594971,4,versionC_stim.csv,RLVersionD.csv,"Relational Version D","Relational, read only version D",COFFIN,DEAD,Study2,F,128,114,Study,User,-,,Study/JOL,"Study Phase",1057,,,-1,-1,,,,1
5efe07ae5c74040d238693ce,5kcs3zlti1,"Deep vs Shallow",1,43,2020-07-08T14:43:36-07:00,4.7869160175323,4,versionC_stim.csv,RLVersionD.csv,"Relational Version D","Relational, read only version D",SHAVE,RAZOR,Study2,S,136,120,Study,User,-,,Study/JOL,"Study Phase",2231,,,-1,-1,,,,1
5efe07ae5c74040d238693ce,5kcs3zlti1,"Deep vs Shallow",1,44,2020-07-08T14:43:42-07:00,5.4533650875092,4,versionC_stim.csv,RLVersionD.csv,"Relational Version D","Relational, read only version D",,,,,,0,Instruct,-,3,"Remember to focus on how the two items are similiar while you study!",,CHECK2,4729,,,-1,-1,,,,1
5efe07ae5c74040d238693ce,5kcs3zlti1,"Deep vs Shallow",1,45,2020-07-08T14:43:49-07:00,7.8181331157684,4,versionC_stim.csv,RLVersionD.csv,"Relational Version D","Relational, read only version D",WINDSHIELD,CAR,Study2,F,117,170,Study,User,-,,Study/JOL,"Study Phase",7279,,,-1,-1,,,,1
5efe07ae5c74040d238693ce,5kcs3zlti1,"Deep vs Shallow",1,46,2020-07-08T14:43:53-07:00,3.5478749275208,4,versionC_stim.csv,RLVersionD.csv,"Relational Version D","Relational, read only version D",BALLOON,POP,Study2,F,123,112,Study,User,-,,Study/JOL,"Study Phase",3064,,,-1,-1,,,,1
5efe07ae5c74040d238693ce,5kcs3zlti1,"Deep vs Shallow",1,47,2020-07-08T14:43:59-07:00,6.452868938446,4,versionC_stim.csv,RLVersionD.csv,"Relational Version D","Relational, read only version D",CHILDREN,MIRROR,Study2,U,174,118,Study,User,-,,Study/JOL,"Study Phase",5877,,,-1,-1,,,,1
5efe07ae5c74040d238693ce,5kcs3zlti1,"Deep vs Shallow",1,48,2020-07-08T14:44:02-07:00,2.8740439414978,4,versionC_stim.csv,RLVersionD.csv,"Relational Version D","Relational, read only version D",MAROON,JUSTICE,Study2,U,156,98,Study,User,-,,Study/JOL,"Study Phase",1200,,,-1,-1,,,,1
5efe07ae5c74040d238693ce,5kcs3zlti1,"Deep vs Shallow",1,49,2020-07-08T14:44:14-07:00,11.667386054993,4,versionC_stim.csv,RLVersionD.csv,"Relational Version D","Relational, read only version D",CARBON,ELEMENT,Study2,S,141,145,Study,User,-,,Study/JOL,"Study Phase",11157,,,-1,-1,,,,1
5efe07ae5c74040d238693ce,5kcs3zlti1,"Deep vs Shallow",1,50,2020-07-08T14:44:20-07:00,6.3482451438904,4,versionC_stim.csv,RLVersionD.csv,"Relational Version D","Relational, read only version D",CAR,DRIVER,Study2,B,106,134,Study,User,-,,Study/JOL,"Study Phase",5746,,,-1,-1,,,,1
5efe07ae5c74040d238693ce,5kcs3zlti1,"Deep vs Shallow",1,51,2020-07-08T14:44:23-07:00,2.7649438381195,4,versionC_stim.csv,RLVersionD.csv,"Relational Version D","Relational, read only version D",REVENGE,EVEN,Study2,F,122,174,Study,User,-,,Study/JOL,"Study Phase",2134,,,-1,-1,,,,1
5efe07ae5c74040d238693ce,5kcs3zlti1,"Deep vs Shallow",1,52,2020-07-08T14:44:26-07:00,3.1940841674805,4,versionC_stim.csv,RLVersionD.csv,"Relational Version D","Relational, read only version D",FICTION,LISTEN,Study2,U,164,168,Study,User,-,,Study/JOL,"Study Phase",2720,,,-1,-1,,,,1
5efe07ae5c74040d238693ce,5kcs3zlti1,"Deep vs Shallow",1,53,2020-07-08T14:44:35-07:00,9.2543308734894,4,versionC_stim.csv,RLVersionD.csv,"Relational Version D","Relational, read only version D",PENGUIN,BIRD,Study2,F,119,157,Study,User,-,,Study/JOL,"Study Phase",7631,,,-1,-1,,,,1
5efe07ae5c74040d238693ce,5kcs3zlti1,"Deep vs Shallow",1,54,2020-07-08T14:44:37-07:00,1.8885409832001,4,versionC_stim.csv,RLVersionD.csv,"Relational Version D","Relational, read only version D",WET,DRY,Study2,S,146,109,Study,User,-,,Study/JOL,"Study Phase",1179,,,-1,-1,,,,1
5efe07ae5c74040d238693ce,5kcs3zlti1,"Deep vs Shallow",1,55,2020-07-08T14:44:41-07:00,3.3748080730438,4,versionC_stim.csv,RLVersionD.csv,"Relational Version D","Relational, read only version D",STRAWBERRY,FRUIT,Study2,F,124,146,Study,User,-,,Study/JOL,"Study Phase",2798,,,-1,-1,,,,1
5efe07ae5c74040d238693ce,5kcs3zlti1,"Deep vs Shallow",1,56,2020-07-08T14:44:48-07:00,7.1740000247955,4,versionC_stim.csv,RLVersionD.csv,"Relational Version D","Relational, read only version D",DOG,FURRY,Study2,B,102,164,Study,User,-,,Study/JOL,"Study Phase",6634,,,-1,-1,,,,1
5efe07ae5c74040d238693ce,5kcs3zlti1,"Deep vs Shallow",1,57,2020-07-08T14:44:50-07:00,1.7413928508759,4,versionC_stim.csv,RLVersionD.csv,"Relational Version D","Relational, read only version D",END,ADJOURN,Study2,B,101,127,Study,User,-,,Study/JOL,"Study Phase",1130,,,-1,-1,,,,1
5efe07ae5c74040d238693ce,5kcs3zlti1,"Deep vs Shallow",1,58,2020-07-08T14:44:57-07:00,7.0625669956207,4,versionC_stim.csv,RLVersionD.csv,"Relational Version D","Relational, read only version D",JAR,MASON,Study2,S,138,169,Study,User,-,,Study/JOL,"Study Phase",6501,,,-1,-1,,,,1
5efe07ae5c74040d238693ce,5kcs3zlti1,"Deep vs Shallow",1,59,2020-07-08T14:44:58-07:00,1.3323690891266,4,versionC_stim.csv,RLVersionD.csv,"Relational Version D","Relational, read only version D",LIE,TRUTH,Study2,S,148,175,Study,User,-,,Study/JOL,"Study Phase",911,,,-1,-1,,,,1
5efe07ae5c74040d238693ce,5kcs3zlti1,"Deep vs Shallow",1,60,2020-07-08T14:45:00-07:00,1.6355609893799,4,versionC_stim.csv,RLVersionD.csv,"Relational Version D","Relational, read only version D",BRACELET,WRIST,Study2,S,140,153,Study,User,-,,Study/JOL,"Study Phase",1053,,,-1,-1,,,,1
5efe07ae5c74040d238693ce,5kcs3zlti1,"Deep vs Shallow",1,61,2020-07-08T14:45:02-07:00,1.9083580970764,4,versionC_stim.csv,RLVersionD.csv,"Relational Version D","Relational, read only version D",JOKE,KEYS,Study2,U,165,129,Study,User,-,,Study/JOL,"Study Phase",1384,,,-1,-1,,,,1
5efe07ae5c74040d238693ce,5kcs3zlti1,"Deep vs Shallow",1,62,2020-07-08T14:45:03-07:00,1.7828049659729,4,versionC_stim.csv,RLVersionD.csv,"Relational Version D","Relational, read only version D",FAVORITE,BEST,Study2,F,125,148,Study,User,-,,Study/JOL,"Study Phase",1343,,,-1,-1,,,,1
5efe07ae5c74040d238693ce,5kcs3zlti1,"Deep vs Shallow",1,63,2020-07-08T14:45:08-07:00,4.8192059993744,4,versionC_stim.csv,RLVersionD.csv,"Relational Version D","Relational, read only version D",TRUTHFUL,HONEST,Study2,F,133,151,Study,User,-,,Study/JOL,"Study Phase",4302,,,-1,-1,,,,1
5efe07ae5c74040d238693ce,5kcs3zlti1,"Deep vs Shallow",1,64,2020-07-08T14:45:10-07:00,1.5225858688354,4,versionC_stim.csv,RLVersionD.csv,"Relational Version D","Relational, read only version D",OBTAIN,MEAT,Study2,U,161,121,Study,User,-,,Study/JOL,"Study Phase",949,,,-1,-1,,,,1
5efe07ae5c74040d238693ce,5kcs3zlti1,"Deep vs Shallow",1,65,2020-07-08T14:45:15-07:00,5.04421210289,4,versionC_stim.csv,RLVersionD.csv,"Relational Version D","Relational, read only version D",MYSTERY,DETECTIVE,Study2,B,100,108,Study,User,-,,Study/JOL,"Study Phase",4579,,,-1,-1,,,,1
5efe07ae5c74040d238693ce,5kcs3zlti1,"Deep vs Shallow",1,66,2020-07-08T14:45:16-07:00,1.6159000396729,4,versionC_stim.csv,RLVersionD.csv,"Relational Version D","Relational, read only version D",NOISE,LOUD,Study2,S,152,115,Study,User,-,,Study/JOL,"Study Phase",1010,,,-1,-1,,,,1
5efe07ae5c74040d238693ce,5kcs3zlti1,"Deep vs Shallow",1,67,2020-07-08T14:45:18-07:00,1.5393328666687,4,versionC_stim.csv,RLVersionD.csv,"Relational Version D","Relational, read only version D",HATE,NAME,Study2,U,167,104,Study,User,-,,Study/JOL,"Study Phase",1044,,,-1,-1,,,,1
5efe07ae5c74040d238693ce,5kcs3zlti1,"Deep vs Shallow",1,68,2020-07-08T14:45:20-07:00,1.6347181797028,4,versionC_stim.csv,RLVersionD.csv,"Relational Version D","Relational, read only version D",BRAWL,FIGHT,Study2,F,135,117,Study,User,-,,Study/JOL,"Study Phase",1129,,,-1,-1,,,,1
5efe07ae5c74040d238693ce,5kcs3zlti1,"Deep vs Shallow",1,69,2020-07-08T14:45:23-07:00,3.4824569225311,4,versionC_stim.csv,RLVersionD.csv,"Relational Version D","Relational, read only version D",STEAK,GIVE,Study2,U,158,123,Study,User,-,,Study/JOL,"Study Phase",2971,,,-1,-1,,,,1
5efe07ae5c74040d238693ce,5kcs3zlti1,"Deep vs Shallow",1,70,2020-07-08T14:45:25-07:00,1.5402429103851,4,versionC_stim.csv,RLVersionD.csv,"Relational Version D","Relational, read only version D",TOIL,LEASE,Study2,U,170,150,Study,User,-,,Study/JOL,"Study Phase",988,,,-1,-1,,,,1
5efe07ae5c74040d238693ce,5kcs3zlti1,"Deep vs Shallow",1,71,2020-07-08T14:45:26-07:00,1.8438401222229,4,versionC_stim.csv,RLVersionD.csv,"Relational Version D","Relational, read only version D",LONG,EXTENSION,Study2,B,96,124,Study,User,-,,Study/JOL,"Study Phase",1315,,,-1,-1,,,,1
5efe07ae5c74040d238693ce,5kcs3zlti1,"Deep vs Shallow",1,72,2020-07-08T14:45:28-07:00,1.7402338981628,4,versionC_stim.csv,RLVersionD.csv,"Relational Version D","Relational, read only version D",CLOTHES,CAKE,Study2,U,166,142,Study,User,-,,Study/JOL,"Study Phase",1234,,,-1,-1,,,,1
5efe07ae5c74040d238693ce,5kcs3zlti1,"Deep vs Shallow",1,73,2020-07-08T14:45:29-07:00,1.2239861488342,4,versionC_stim.csv,RLVersionD.csv,"Relational Version D","Relational, read only version D",AWAY,GONE,Study2,S,142,156,Study,User,-,,Study/JOL,"Study Phase",872,,,-1,-1,,,,1
5efe07ae5c74040d238693ce,5kcs3zlti1,"Deep vs Shallow",1,74,2020-07-08T14:45:31-07:00,1.6813328266144,4,versionC_stim.csv,RLVersionD.csv,"Relational Version D","Relational, read only version D",HAVE,OWN,Study2,S,153,161,Study,User,-,,Study/JOL,"Study Phase",959,,,-1,-1,,,,1
5efe07ae5c74040d238693ce,5kcs3zlti1,"Deep vs Shallow",1,75,2020-07-08T14:45:33-07:00,1.5971031188965,4,versionC_stim.csv,RLVersionD.csv,"Relational Version D","Relational, read only version D",ELECTION,MAZE,Study2,U,159,165,Study,User,-,,Study/JOL,"Study Phase",1015,,,-1,-1,,,,1
5efe07ae5c74040d238693ce,5kcs3zlti1,"Deep vs Shallow",1,76,2020-07-08T14:45:35-07:00,2.0524189472198,4,versionC_stim.csv,RLVersionD.csv,"Relational Version D","Relational, read only version D",GROUND,EARTH,Study2,S,144,155,Study,User,-,,Study/JOL,"Study Phase",1484,,,-1,-1,,,,1
5efe07ae5c74040d238693ce,5kcs3zlti1,"Deep vs Shallow",1,77,2020-07-08T14:45:36-07:00,1.5414800643921,4,versionC_stim.csv,RLVersionD.csv,"Relational Version D","Relational, read only version D",DONKEY,MULE,Study2,B,108,172,Study,User,-,,Study/JOL,"Study Phase",949,,,-1,-1,,,,1
5efe07ae5c74040d238693ce,5kcs3zlti1,"Deep vs Shallow",1,78,2020-07-08T14:45:38-07:00,1.8353989124298,4,versionC_stim.csv,RLVersionD.csv,"Relational Version D","Relational, read only version D",EQUAL,RIGHTS,Study2,S,137,173,Study,User,-,,Study/JOL,"Study Phase",1244,,,-1,-1,,,,1
5efe07ae5c74040d238693ce,5kcs3zlti1,"Deep vs Shallow",1,79,2020-07-08T14:45:40-07:00,1.5369539260864,4,versionC_stim.csv,RLVersionD.csv,"Relational Version D","Relational, read only version D",EAT,DINE,Study2,B,111,103,Study,User,-,,Study/JOL,"Study Phase",1042,,,-1,-1,,,,1
5efe07ae5c74040d238693ce,5kcs3zlti1,"Deep vs Shallow",1,80,2020-07-08T14:45:42-07:00,1.9432110786438,4,versionC_stim.csv,RLVersionD.csv,"Relational Version D","Relational, read only version D",FLIP,TURN,Study2,F,116,102,Study,User,-,,Study/JOL,"Study Phase",1398,,,-1,-1,,,,1
5efe07ae5c74040d238693ce,5kcs3zlti1,"Deep vs Shallow",1,81,2020-07-08T14:45:43-07:00,1.8438360691071,4,versionC_stim.csv,RLVersionD.csv,"Relational Version D","Relational, read only version D",SEATBELT,SAFETY,Study2,S,147,116,Study,User,-,,Study/JOL,"Study Phase",1360,,,-1,-1,,,,1
5efe07ae5c74040d238693ce,5kcs3zlti1,"Deep vs Shallow",1,82,2020-07-08T14:45:50-07:00,6.5472009181976,4,versionC_stim.csv,RLVersionD.csv,"Relational Version D","Relational, read only version D",PAPER,DOCUMENT,Study2,B,109,144,Study,User,-,,Study/JOL,"Study Phase",6059,,,-1,-1,,,,1
5efe07ae5c74040d238693ce,5kcs3zlti1,"Deep vs Shallow",1,83,2020-07-08T14:45:57-07:00,7.3904240131378,4,versionC_stim.csv,RLVersionD.csv,"Relational Version D","Relational, read only version D",LEAGUE,BASEBALL,Study2,F,131,113,Study,User,-,,Study/JOL,"Study Phase",6841,,,-1,-1,,,,1
5efe07ae5c74040d238693ce,5kcs3zlti1,"Deep vs Shallow",1,84,2020-07-08T14:46:04-07:00,6.9496350288391,4,versionC_stim.csv,RLVersionD.csv,"Relational Version D","Relational, read only version D",SCAR,MAIN,Study2,U,175,147,Study,User,-,,Study/JOL,"Study Phase",6410,,,-1,-1,,,,1
5efe07ae5c74040d238693ce,5kcs3zlti1,"Deep vs Shallow",1,85,2020-07-08T14:46:06-07:00,1.847473859787,4,versionC_stim.csv,RLVersionD.csv,"Relational Version D","Relational, read only version D",BANG,FUZZY,Study2,U,168,143,Study,User,-,,Study/JOL,"Study Phase",1234,,,-1,-1,,,,1
5efe07ae5c74040d238693ce,5kcs3zlti1,"Deep vs Shallow",1,86,2020-07-08T14:46:09-07:00,3.2764270305634,4,versionC_stim.csv,RLVersionD.csv,"Relational Version D","Relational, read only version D",ACTRESS,STAR,Study2,F,120,160,Study,User,-,,Study/JOL,"Study Phase",2749,,,-1,-1,,,,1
5efe07ae5c74040d238693ce,5kcs3zlti1,"Deep vs Shallow",1,87,2020-07-08T14:46:11-07:00,1.6367270946503,4,versionC_stim.csv,RLVersionD.csv,"Relational Version D","Relational, read only version D",LOVE,AFFECTION,Study2,B,115,141,Study,User,-,,Study/JOL,"Study Phase",1047,,,-1,-1,,,,1
5efe07ae5c74040d238693ce,5kcs3zlti1,"Deep vs Shallow",1,88,2020-07-08T14:46:13-07:00,1.5407319068909,4,versionC_stim.csv,RLVersionD.csv,"Relational Version D","Relational, read only version D",CUT,CHOP,Study2,B,107,135,Study,User,-,,Study/JOL,"Study Phase",1016,,,-1,-1,,,,1
5efe07ae5c74040d238693ce,5kcs3zlti1,"Deep vs Shallow",1,89,2020-07-08T14:46:14-07:00,1.6355051994324,4,versionC_stim.csv,RLVersionD.csv,"Relational Version D","Relational, read only version D",TIE,SHOELACE,Study2,B,99,152,Study,User,-,,Study/JOL,"Study Phase",1016,,,-1,-1,,,,1
5efe07ae5c74040d238693ce,5kcs3zlti1,"Deep vs Shallow",1,90,2020-07-08T14:46:17-07:00,3.171642780304,4,versionC_stim.csv,RLVersionD.csv,"Relational Version D","Relational, read only version D",HEAD,SCALP,Study2,B,105,128,Study,User,-,,Study/JOL,"Study Phase",2609,,,-1,-1,,,,1
5efe07ae5c74040d238693ce,5kcs3zlti1,"Deep vs Shallow",1,91,2020-07-08T14:46:19-07:00,1.3102521896362,4,versionC_stim.csv,RLVersionD.csv,"Relational Version D","Relational, read only version D",YEAR,MONTH,BUFFER4,Buffer,177,181,Study,User,-,,Study/JOL,BUFFER2,885,,,-1,-1,,,,1
5efe07ae5c74040d238693ce,5kcs3zlti1,"Deep vs Shallow",1,92,2020-07-08T14:46:23-07:00,4.3205280303955,4,versionC_stim.csv,RLVersionD.csv,"Relational Version D","Relational, read only version D",SHED,TOOL,BUFFER4,Buffer,178,179,Study,User,-,,Study/JOL,BUFFER2,3800,,,-1,-1,,,,1
5efe07ae5c74040d238693ce,5kcs3zlti1,"Deep vs Shallow",1,93,2020-07-08T14:46:27-07:00,3.7990899085999,4,versionC_stim.csv,RLVersionD.csv,"Relational Version D","Relational, read only version D",MARCH,SPRING,BUFFER4,Buffer,179,180,Study,User,-,,Study/JOL,BUFFER2,3227,,,-1,-1,,,,1
5efe07ae5c74040d238693ce,5kcs3zlti1,"Deep vs Shallow",1,94,2020-07-08T14:46:30-07:00,2.825483083725,4,versionC_stim.csv,RLVersionD.csv,"Relational Version D","Relational, read only version D",SPOOKY,OCTOBER,BUFFER4,Buffer,180,177,Study,User,-,,Study/JOL,BUFFER2,2304,,,-1,-1,,,,1
5efe07ae5c74040d238693ce,5kcs3zlti1,"Deep vs Shallow",1,95,2020-07-08T14:46:33-07:00,2.9054780006409,4,versionC_stim.csv,RLVersionD.csv,"Relational Version D","Relational, read only version D",WEAKS,DAYS,BUFFER4,Buffer,176,178,Study,User,-,,Study/JOL,BUFFER2,2401,,,-1,-1,,,,1
5efe07ae5c74040d238693ce,5kcs3zlti1,"Deep vs Shallow",1,96,2020-07-08T14:46:36-07:00,3.2717409133911,4,versionC_stim.csv,RLVersionD.csv,"Relational Version D","Relational, read only version D",,,,,,0,Instruct,User,-,"You have completed this section. Please press Enter.",Filler_Instruction,Instruct2,2710,,,-1,-1,,,,1
5efe07ae5c74040d238693ce,5kcs3zlti1,"Deep vs Shallow",1,97,2020-07-08T14:46:39-07:00,2.7675020694733,4,versionC_stim.csv,RLVersionD.csv,"Relational Version D","Relational, read only version D",,,,,,0,Instruct,User,-,"You have completed this section. Please press Enter.",Filler_Instruction,Instruct5,2168,,,-1,-1,,,,1
5efe07ae5c74040d238693ce,5kcs3zlti1,"Deep vs Shallow",1,98,2020-07-08T14:46:57-07:00,18.743335008621,4,versionC_stim.csv,RLVersionD.csv,"Relational Version D","Relational, read only version D",,,,,,0,FreeRecall,-,10,"What were you supposed to focus on while you studied each pair? (Hint: Think back to the instructions). Type your answer in the space below.",,CHECK3,18114,"The relationship between the items ",0,5480,12291,0,0,,1
5efe07ae5c74040d238693ce,5kcs3zlti1,"Deep vs Shallow",1,99,2020-07-08T14:48:58-07:00,120.63039493561,4,versionC_stim.csv,RLVersionD.csv,"Relational Version D","Relational, read only version D",,,,,,0,FreeRecall,120,120,"Please list the 50 US states in alphabetical order. The task will automatically advance to the next screen after two minutes.",,Filler1,120004,"Arizona Alabama Alaska California Dakota New York Ohio Texas Wyoming ",0,8445,91335,0,0,,1
5efe07ae5c74040d238693ce,5kcs3zlti1,"Deep vs Shallow",1,100,2020-07-08T14:49:10-07:00,11.649162054062,4,versionC_stim.csv,RLVersionD.csv,"Relational Version D","Relational, read only version D",,,,,,0,Instruct,-,10,"You will now be presented with the first word from each of the previously studied item pairs. Please type the missing word. If you do not know the word, you may guess or press Enter to skip forward to the next pair.",,Instruct3,11116,,,-1,-1,,,,1
5efe07ae5c74040d238693ce,5kcs3zlti1,"Deep vs Shallow",1,101,2020-07-08T14:49:18-07:00,8.0059750080109,4,versionC_stim.csv,RLVersionD.csv,"Relational Version D","Relational, read only version D",JAR,MASON,Study2,S,138,169,Test,User,-,,Recall,Recall1,7450,Pickle,0,4008,4704,0,0,,1
5efe07ae5c74040d238693ce,5kcs3zlti1,"Deep vs Shallow",1,102,2020-07-08T14:49:23-07:00,5.7293000221252,4,versionC_stim.csv,RLVersionD.csv,"Relational Version D","Relational, read only version D",CHARM,VEHICLE,Study2,U,160,154,Test,User,-,,Recall,Recall1,5130,Bracelet,40,2491,4157,0,0,,1
5efe07ae5c74040d238693ce,5kcs3zlti1,"Deep vs Shallow",1,103,2020-07-08T14:49:27-07:00,3.9995548725128,4,versionC_stim.csv,RLVersionD.csv,"Relational Version D","Relational, read only version D",WINDSHIELD,CAR,Study2,F,117,170,Test,User,-,,Recall,Recall1,3438,Car,100,2133,2546,1,1,,1
5efe07ae5c74040d238693ce,5kcs3zlti1,"Deep vs Shallow",1,104,2020-07-08T14:49:34-07:00,7.0707719326019,4,versionC_stim.csv,RLVersionD.csv,"Relational Version D","Relational, read only version D",LIE,TRUTH,Study2,S,148,175,Test,User,-,,Recall,Recall1,5382,Down,0,4207,4467,0,0,,1
5efe07ae5c74040d238693ce,5kcs3zlti1,"Deep vs Shallow",1,105,2020-07-08T14:49:43-07:00,8.3446810245514,4,versionC_stim.csv,RLVersionD.csv,"Relational Version D","Relational, read only version D",FLIP,TURN,Study2,F,116,102,Test,User,-,,Recall,Recall1,6990,Over,25,5422,6093,0,0,,1
5efe07ae5c74040d238693ce,5kcs3zlti1,"Deep vs Shallow",1,106,2020-07-08T14:49:55-07:00,11.822309017181,4,versionC_stim.csv,RLVersionD.csv,"Relational Version D","Relational, read only version D",TOIL,LEASE,Study2,U,170,150,Test,User,-,,Recall,Recall1,11095,Trouble,33.333333333333,9267,10248,0,0,,1
5efe07ae5c74040d238693ce,5kcs3zlti1,"Deep vs Shallow",1,107,2020-07-08T14:49:59-07:00,4.1015319824219,4,versionC_stim.csv,RLVersionD.csv,"Relational Version D","Relational, read only version D",REEL,ROD,Study2,S,150,101,Test,User,-,,Recall,Recall1,3498,Fish,0,2200,2538,0,0,,1
5efe07ae5c74040d238693ce,5kcs3zlti1,"Deep vs Shallow",1,108,2020-07-08T14:50:04-07:00,5.1142950057983,4,versionC_stim.csv,RLVersionD.csv,"Relational Version D","Relational, read only version D",AWAY,GONE,Study2,S,142,156,Test,User,-,,Recall,Recall1,4470,Days,0,2965,3365,0,0,,1
5efe07ae5c74040d238693ce,5kcs3zlti1,"Deep vs Shallow",1,109,2020-07-08T14:50:12-07:00,7.7835929393768,4,versionC_stim.csv,RLVersionD.csv,"Relational Version D","Relational, read only version D",GAME,CLUE,Study2,B,97,138,Test,User,-,,Recall,Recall1,7125,Play,25,5813,6226,0,0,,1
5efe07ae5c74040d238693ce,5kcs3zlti1,"Deep vs Shallow",1,110,2020-07-08T14:50:27-07:00,15.361673116684,4,versionC_stim.csv,RLVersionD.csv,"Relational Version D","Relational, read only version D",COFFIN,DEAD,Study2,F,128,114,Test,User,-,,Recall,Recall1,14874,Cold,25,4096,7665,0,0,,1
5efe07ae5c74040d238693ce,5kcs3zlti1,"Deep vs Shallow",1,111,2020-07-08T14:51:02-07:00,34.61065196991,4,versionC_stim.csv,RLVersionD.csv,"Relational Version D","Relational, read only version D",PLANT,CACTUS,Study2,B,98,130,Test,User,-,,Recall,Recall1,34015,Pot,22.222222222222,9370,33014,0,0,,1
5efe07ae5c74040d238693ce,5kcs3zlti1,"Deep vs Shallow",1,112,2020-07-08T14:51:12-07:00,10.756873130798,4,versionC_stim.csv,RLVersionD.csv,"Relational Version D","Relational, read only version D",Morning,TEMPERATURE,Study2,U,173,149,Test,User,-,,Recall,Recall1,10100,Wind,0,2714,9322,0,0,,1
5efe07ae5c74040d238693ce,5kcs3zlti1,"Deep vs Shallow",1,113,2020-07-08T14:51:29-07:00,16.379838943481,4,versionC_stim.csv,RLVersionD.csv,"Relational Version D","Relational, read only version D",BANG,FUZZY,Study2,U,168,143,Test,User,-,,Recall,Recall1,15763,Gun,25,13751,14258,0,0,,1
5efe07ae5c74040d238693ce,5kcs3zlti1,"Deep vs Shallow",1,114,2020-07-08T14:51:46-07:00,17.409716844559,4,versionC_stim.csv,RLVersionD.csv,"Relational Version D","Relational, read only version D",DRINK,WATER,Study2,S,143,105,Test,User,-,,Recall,Recall1,16827,Plenty,18.181818181818,15064,15899,0,0,,1
5efe07ae5c74040d238693ce,5kcs3zlti1,"Deep vs Shallow",1,115,2020-07-08T14:51:58-07:00,12.078763008118,4,versionC_stim.csv,RLVersionD.csv,"Relational Version D","Relational, read only version D",ABLE,CRACKLE,Study2,U,162,125,Test,User,-,,Recall,Recall1,11591,Do,0,10537,10713,0,0,,1
5efe07ae5c74040d238693ce,5kcs3zlti1,"Deep vs Shallow",1,116,2020-07-08T14:52:03-07:00,4.5088231563568,4,versionC_stim.csv,RLVersionD.csv,"Relational Version D","Relational, read only version D",CUT,CHOP,Study2,B,107,135,Test,User,-,,Recall,Recall1,3962,Scissors,33.333333333333,1996,3061,0,0,,1
5efe07ae5c74040d238693ce,5kcs3zlti1,"Deep vs Shallow",1,117,2020-07-08T14:53:06-07:00,62.874460935593,4,versionC_stim.csv,RLVersionD.csv,"Relational Version D","Relational, read only version D",JOKE,KEYS,Study2,U,165,129,Test,User,-,,Recall,Recall1,62293,Tale,25,59390,60648,0,0,,1
5efe07ae5c74040d238693ce,5kcs3zlti1,"Deep vs Shallow",1,118,2020-07-08T14:53:11-07:00,5.9413781166077,4,versionC_stim.csv,RLVersionD.csv,"Relational Version D","Relational, read only version D",CLOTH,STRETCH,Study2,U,157,133,Test,User,-,,Recall,Recall1,5334,Loin,0,3312,3825,0,0,,1
5efe07ae5c74040d238693ce,5kcs3zlti1,"Deep vs Shallow",1,119,2020-07-08T14:53:24-07:00,12.082680940628,4,versionC_stim.csv,RLVersionD.csv,"Relational Version D","Relational, read only version D",STEAK,GIVE,Study2,U,158,123,Test,User,-,,Recall,Recall1,11479,Job,0,9999,10393,0,0,,1
5efe07ae5c74040d238693ce,5kcs3zlti1,"Deep vs Shallow",1,120,2020-07-08T14:53:29-07:00,5.1197278499603,4,versionC_stim.csv,RLVersionD.csv,"Relational Version D","Relational, read only version D",ELECTION,MAZE,Study2,U,159,165,Test,User,-,,Recall,Recall1,4546,Promise,36.363636363636,1898,2682,0,0,,1
5efe07ae5c74040d238693ce,5kcs3zlti1,"Deep vs Shallow",1,121,2020-07-08T14:53:42-07:00,13.107377052307,4,versionC_stim.csv,RLVersionD.csv,"Relational Version D","Relational, read only version D",OBTAIN,MEAT,Study2,U,161,121,Test,User,-,,Recall,Recall1,12538,Acquire,18.181818181818,10477,11645,0,0,,1
5efe07ae5c74040d238693ce,5kcs3zlti1,"Deep vs Shallow",1,122,2020-07-08T14:53:47-07:00,5.1177940368652,4,versionC_stim.csv,RLVersionD.csv,"Relational Version D","Relational, read only version D",NOISE,LOUD,Study2,S,152,115,Test,User,-,,Recall,Recall1,4521,Wind,25,2197,3741,0,0,,1
5efe07ae5c74040d238693ce,5kcs3zlti1,"Deep vs Shallow",1,123,2020-07-08T14:53:53-07:00,5.7568368911743,4,versionC_stim.csv,RLVersionD.csv,"Relational Version D","Relational, read only version D",SEATBELT,SAFETY,Study2,S,147,116,Test,User,-,,Recall,Recall1,5169,Safety,100,3166,4281,1,1,,1
5efe07ae5c74040d238693ce,5kcs3zlti1,"Deep vs Shallow",1,124,2020-07-08T14:54:40-07:00,47.507372140884,4,versionC_stim.csv,RLVersionD.csv,"Relational Version D","Relational, read only version D",TAN,SUN,Study2,S,155,163,Test,User,-,,Recall,Recall1,46954,Leather,0,43912,44834,0,0,,0.868
5efe07ae5c74040d238693ce,5kcs3zlti1,"Deep vs Shallow",1,125,2020-07-08T14:54:46-07:00,5.3163509368896,4,versionC_stim.csv,RLVersionD.csv,"Relational Version D","Relational, read only version D",BRACELET,WRIST,Study2,S,140,153,Test,User,-,,Recall,Recall1,4709,Charm,20,1902,2402,0,0,,1
5efe07ae5c74040d238693ce,5kcs3zlti1,"Deep vs Shallow",1,126,2020-07-08T14:54:52-07:00,6.0413291454315,4,versionC_stim.csv,RLVersionD.csv,"Relational Version D","Relational, read only version D",STRAWBERRY,FRUIT,Study2,F,124,146,Test,User,-,,Recall,Recall1,5437,Cream,20,3892,4577,0,0,,1
5efe07ae5c74040d238693ce,5kcs3zlti1,"Deep vs Shallow",1,127,2020-07-08T14:55:03-07:00,11.161881923676,4,versionC_stim.csv,RLVersionD.csv,"Relational Version D","Relational, read only version D",COLD,CHILL,Study2,B,114,166,Test,User,-,,Recall,Recall1,10603,Ice,25,3411,7487,0,0,,1
5efe07ae5c74040d238693ce,5kcs3zlti1,"Deep vs Shallow",1,128,2020-07-08T14:55:18-07:00,15.765693902969,4,versionC_stim.csv,RLVersionD.csv,"Relational Version D","Relational, read only version D",TICK,FLEA,Study2,S,151,136,Test,User,-,,Recall,Recall1,15154,Dog,0,14018,14283,0,0,,1
5efe07ae5c74040d238693ce,5kcs3zlti1,"Deep vs Shallow",1,129,2020-07-08T14:55:26-07:00,7.0655951499939,4,versionC_stim.csv,RLVersionD.csv,"Relational Version D","Relational, read only version D",MYSTERY,DETECTIVE,Study2,B,100,108,Test,User,-,,Recall,Recall1,6470,Solved,26.666666666667,2572,3582,0,0,,1
5efe07ae5c74040d238693ce,5kcs3zlti1,"Deep vs Shallow",1,130,2020-07-08T14:55:32-07:00,6.8875379562378,4,versionC_stim.csv,RLVersionD.csv,"Relational Version D","Relational, read only version D",DONKEY,MULE,Study2,B,108,172,Test,User,-,,Recall,Recall1,6112,Saddle,40,4566,5294,0,0,,1
5efe07ae5c74040d238693ce,5kcs3zlti1,"Deep vs Shallow",1,131,2020-07-08T14:55:42-07:00,9.1920418739319,4,versionC_stim.csv,RLVersionD.csv,"Relational Version D","Relational, read only version D",FAVORITE,BEST,Study2,F,125,148,Test,User,-,,Recall,Recall1,8533,Best,100,6103,6576,1,1,,1
5efe07ae5c74040d238693ce,5kcs3zlti1,"Deep vs Shallow",1,132,2020-07-08T14:55:47-07:00,4.9212930202484,4,versionC_stim.csv,RLVersionD.csv,"Relational Version D","Relational, read only version D",AIRCRAFT,PLANE,Study2,F,129,139,Test,User,-,,Recall,Recall1,4312,Carrier,33.333333333333,2258,3182,0,0,,1
5efe07ae5c74040d238693ce,5kcs3zlti1,"Deep vs Shallow",1,133,2020-07-08T14:55:52-07:00,5.0104501247406,4,versionC_stim.csv,RLVersionD.csv,"Relational Version D","Relational, read only version D",FICTION,LISTEN,Study2,U,164,168,Test,User,-,,Recall,Recall1,4396,Fan,22.222222222222,3235,3527,0,0,,1
5efe07ae5c74040d238693ce,5kcs3zlti1,"Deep vs Shallow",1,134,2020-07-08T14:56:21-07:00,29.454157829285,4,versionC_stim.csv,RLVersionD.csv,"Relational Version D","Relational, read only version D",REVENGE,EVEN,Study2,F,122,174,Test,User,-,,Recall,Recall1,28927,Porn,25,26064,26522,0,0,,1
5efe07ae5c74040d238693ce,5kcs3zlti1,"Deep vs Shallow",1,135,2020-07-08T14:56:31-07:00,9.5260322093964,4,versionC_stim.csv,RLVersionD.csv,"Relational Version D","Relational, read only version D",SMELL,INCENSE,Study2,B,110,137,Test,User,-,,Recall,Recall1,9019,Soap,18.181818181818,7624,8092,0,0,,1
5efe07ae5c74040d238693ce,5kcs3zlti1,"Deep vs Shallow",1,136,2020-07-08T14:56:35-07:00,4.9525008201599,4,versionC_stim.csv,RLVersionD.csv,"Relational Version D","Relational, read only version D",CARBON,ELEMENT,Study2,S,141,145,Test,User,-,,Recall,Recall1,4438,Element,100,2799,3502,1,1,,1
5efe07ae5c74040d238693ce,5kcs3zlti1,"Deep vs Shallow",1,137,2020-07-08T14:56:39-07:00,3.9915380477905,4,versionC_stim.csv,RLVersionD.csv,"Relational Version D","Relational, read only version D",PANTHER,CAT,Study2,F,126,176,Test,User,-,,Recall,Recall1,3385,Animal,22.222222222222,1946,2575,0,0,,1
5efe07ae5c74040d238693ce,5kcs3zlti1,"Deep vs Shallow",1,138,2020-07-08T14:56:47-07:00,7.0637531280518,4,versionC_stim.csv,RLVersionD.csv,"Relational Version D","Relational, read only version D",TIE,SHOELACE,Study2,B,99,152,Test,User,-,,Recall,Recall1,6473,Dye,18.181818181818,2189,4894,0,0,,1
5efe07ae5c74040d238693ce,5kcs3zlti1,"Deep vs Shallow",1,139,2020-07-08T14:56:55-07:00,8.194445848465,4,versionC_stim.csv,RLVersionD.csv,"Relational Version D","Relational, read only version D",SHAVE,RAZOR,Study2,S,136,120,Test,User,-,,Recall,Recall1,7621,Razor,100,3190,6743,1,1,,1
5efe07ae5c74040d238693ce,5kcs3zlti1,"Deep vs Shallow",1,140,2020-07-08T14:57:12-07:00,17.303152084351,4,versionC_stim.csv,RLVersionD.csv,"Relational Version D","Relational, read only version D",LOVE,AFFECTION,Study2,B,115,141,Test,User,-,,Recall,Recall1,16660,Heart,28.571428571429,15102,15827,0,0,,1
5efe07ae5c74040d238693ce,5kcs3zlti1,"Deep vs Shallow",1,141,2020-07-08T14:57:22-07:00,10.345314025879,4,versionC_stim.csv,RLVersionD.csv,"Relational Version D","Relational, read only version D",SHAKE,Shell,Study2,U,163,158,Test,User,-,,Recall,Recall1,9756,Rattle,18.181818181818,4502,8736,0,0,,1
5efe07ae5c74040d238693ce,5kcs3zlti1,"Deep vs Shallow",1,142,2020-07-08T14:57:28-07:00,5.943727016449,4,versionC_stim.csv,RLVersionD.csv,"Relational Version D","Relational, read only version D",CLEAR,MOAT,Study2,U,169,100,Test,User,-,,Recall,Recall1,5321,Skies,0,4019,4491,0,0,,1
5efe07ae5c74040d238693ce,5kcs3zlti1,"Deep vs Shallow",1,143,2020-07-08T14:57:35-07:00,7.063316822052,4,versionC_stim.csv,RLVersionD.csv,"Relational Version D","Relational, read only version D",EAT,DINE,Study2,B,111,103,Test,User,-,,Recall,Recall1,6426,Devour,40,4796,5596,0,0,,1
5efe07ae5c74040d238693ce,5kcs3zlti1,"Deep vs Shallow",1,144,2020-07-08T14:57:45-07:00,9.4217500686646,4,versionC_stim.csv,RLVersionD.csv,"Relational Version D","Relational, read only version D",WAX,CANDLE,Study2,S,139,99,Test,User,-,,Recall,Recall1,8825,Soap,20,7525,7890,0,0,,1
5efe07ae5c74040d238693ce,5kcs3zlti1,"Deep vs Shallow",1,145,2020-07-08T14:57:51-07:00,5.9384570121765,4,versionC_stim.csv,RLVersionD.csv,"Relational Version D","Relational, read only version D",HAVE,OWN,Study2,S,153,161,Test,User,-,,Recall,Recall1,5395,Acquire,0,3516,4484,0,0,,1
5efe07ae5c74040d238693ce,5kcs3zlti1,"Deep vs Shallow",1,146,2020-07-08T14:58:26-07:00,35.016746044159,4,versionC_stim.csv,RLVersionD.csv,"Relational Version D","Relational, read only version D",OUNCE,BOTH,Study2,U,172,162,Test,User,-,,Recall,Recall1,34375,"Weight ",20,31971,33592,0,0,,1
5efe07ae5c74040d238693ce,5kcs3zlti1,"Deep vs Shallow",1,147,2020-07-08T14:58:33-07:00,7.3740239143372,4,versionC_stim.csv,RLVersionD.csv,"Relational Version D","Relational, read only version D",CAR,DRIVER,Study2,B,106,134,Test,User,-,,Recall,Recall1,6801,Windscreen,25,2840,4244,0,0,,1
5efe07ae5c74040d238693ce,5kcs3zlti1,"Deep vs Shallow",1,148,2020-07-08T14:58:37-07:00,3.7898919582367,4,versionC_stim.csv,RLVersionD.csv,"Relational Version D","Relational, read only version D",COMMUNICATION,PHONE,Study2,S,149,132,Test,User,-,,Recall,Recall1,3198,Phone,100,1935,2429,1,1,,1
5efe07ae5c74040d238693ce,5kcs3zlti1,"Deep vs Shallow",1,149,2020-07-08T14:58:43-07:00,6.3498032093048,4,versionC_stim.csv,RLVersionD.csv,"Relational Version D","Relational, read only version D",CHILDREN,MIRROR,Study2,U,174,118,Test,User,-,,Recall,Recall1,5752,Shoes,18.181818181818,2897,4412,0,0,,1
5efe07ae5c74040d238693ce,5kcs3zlti1,"Deep vs Shallow",1,150,2020-07-08T14:58:49-07:00,5.7549629211426,4,versionC_stim.csv,RLVersionD.csv,"Relational Version D","Relational, read only version D",THIMBLE,THREAD,Study2,F,121,159,Test,User,-,,Recall,Recall1,5237,Thread,100,2203,4009,1,1,,1
5efe07ae5c74040d238693ce,5kcs3zlti1,"Deep vs Shallow",1,151,2020-07-08T14:59:05-07:00,15.956310033798,4,versionC_stim.csv,RLVersionD.csv,"Relational Version D","Relational, read only version D",LONG,EXTENSION,Study2,B,96,124,Test,User,-,,Recall,Recall1,15374,Extend,66.666666666667,12905,13824,0,0,,1
5efe07ae5c74040d238693ce,5kcs3zlti1,"Deep vs Shallow",1,152,2020-07-08T14:59:09-07:00,3.9938230514526,4,versionC_stim.csv,RLVersionD.csv,"Relational Version D","Relational, read only version D",DOG,FURRY,Study2,B,102,164,Test,User,-,,Recall,Recall1,3391,Whistle,0,1604,2413,0,0,,1
5efe07ae5c74040d238693ce,5kcs3zlti1,"Deep vs Shallow",1,153,2020-07-08T14:59:29-07:00,19.867469787598,4,versionC_stim.csv,RLVersionD.csv,"Relational Version D","Relational, read only version D",END,ADJOURN,Study2,B,101,127,Test,User,-,,Recall,Recall1,19264,Finish,15.384615384615,14471,15114,0,0,,1
5efe07ae5c74040d238693ce,5kcs3zlti1,"Deep vs Shallow",1,154,2020-07-08T14:59:33-07:00,3.7841241359711,4,versionC_stim.csv,RLVersionD.csv,"Relational Version D","Relational, read only version D",PAPER,DOCUMENT,Study2,B,109,144,Test,User,-,,Recall,Recall1,3142,Sheet,30.769230769231,1781,2468,0,0,,1
5efe07ae5c74040d238693ce,5kcs3zlti1,"Deep vs Shallow",1,155,2020-07-08T14:59:42-07:00,9.3166029453278,4,versionC_stim.csv,RLVersionD.csv,"Relational Version D","Relational, read only version D",LEAGUE,BASEBALL,Study2,F,131,113,Test,User,-,,Recall,Recall1,8705,Fantasy,26.666666666667,6813,7618,0,0,,1
5efe07ae5c74040d238693ce,5kcs3zlti1,"Deep vs Shallow",1,156,2020-07-08T14:59:54-07:00,12.186752080917,4,versionC_stim.csv,RLVersionD.csv,"Relational Version D","Relational, read only version D",PENGUIN,BIRD,Study2,F,119,157,Test,User,-,,Recall,Recall1,11634,Ice,28.571428571429,6203,7920,0,0,,1
5efe07ae5c74040d238693ce,5kcs3zlti1,"Deep vs Shallow",1,157,2020-07-08T15:00:03-07:00,9.3226149082184,4,versionC_stim.csv,RLVersionD.csv,"Relational Version D","Relational, read only version D",HEAD,SCALP,Study2,B,105,128,Test,User,-,,Recall,Recall1,8699,"Body ",0,6484,7857,0,0,,1
5efe07ae5c74040d238693ce,5kcs3zlti1,"Deep vs Shallow",1,158,2020-07-08T15:00:12-07:00,9.0078489780426,4,versionC_stim.csv,RLVersionD.csv,"Relational Version D","Relational, read only version D",SARDINE,FISH,Study2,F,130,107,Test,User,-,,Recall,Recall1,8379,Fish,100,5659,7268,1,1,,1
5efe07ae5c74040d238693ce,5kcs3zlti1,"Deep vs Shallow",1,159,2020-07-08T15:00:25-07:00,12.606276035309,4,versionC_stim.csv,RLVersionD.csv,"Relational Version D","Relational, read only version D",RED,CHERRY,Study2,B,104,111,Test,User,-,,Recall,Recall1,11987,Cherry,100,9677,10684,1,1,,1
5efe07ae5c74040d238693ce,5kcs3zlti1,"Deep vs Shallow",1,160,2020-07-08T15:00:33-07:00,7.4680619239807,4,versionC_stim.csv,RLVersionD.csv,"Relational Version D","Relational, read only version D",WET,DRY,Study2,S,146,109,Test,User,-,,Recall,Recall1,6901,Sponge,0,4324,5144,0,0,,1
5efe07ae5c74040d238693ce,5kcs3zlti1,"Deep vs Shallow",1,161,2020-07-08T15:00:36-07:00,3.584792137146,4,versionC_stim.csv,RLVersionD.csv,"Relational Version D","Relational, read only version D",ACTRESS,STAR,Study2,F,120,160,Test,User,-,,Recall,Recall1,2927,Film,0,1613,2088,0,0,,1
5efe07ae5c74040d238693ce,5kcs3zlti1,"Deep vs Shallow",1,162,2020-07-08T15:00:57-07:00,20.374991893768,4,versionC_stim.csv,RLVersionD.csv,"Relational Version D","Relational, read only version D",SCAR,MAIN,Study2,U,175,147,Test,User,-,,Recall,Recall1,19759,Hurt,0,18279,18874,0,0,,1
5efe07ae5c74040d238693ce,5kcs3zlti1,"Deep vs Shallow",1,163,2020-07-08T15:01:08-07:00,11.168812990189,4,versionC_stim.csv,RLVersionD.csv,"Relational Version D","Relational, read only version D",VILLAIN,BAD,Study2,F,118,167,Test,User,-,,Recall,Recall1,10582,Boss,28.571428571429,2549,6348,0,0,,1
5efe07ae5c74040d238693ce,5kcs3zlti1,"Deep vs Shallow",1,164,2020-07-08T15:01:15-07:00,6.9706909656525,4,versionC_stim.csv,RLVersionD.csv,"Relational Version D","Relational, read only version D",LONELY,ALONE,Study2,S,145,126,Test,User,-,,Recall,Recall1,6228,Heart,20,3439,4140,0,0,,1
5efe07ae5c74040d238693ce,5kcs3zlti1,"Deep vs Shallow",1,165,2020-07-08T15:01:19-07:00,4.800460100174,4,versionC_stim.csv,RLVersionD.csv,"Relational Version D","Relational, read only version D",BANKER,MONEY,Study2,F,132,171,Test,User,-,,Recall,Recall1,4011,Money,100,2442,3061,1,1,,1
5efe07ae5c74040d238693ce,5kcs3zlti1,"Deep vs Shallow",1,166,2020-07-08T15:01:37-07:00,17.410360097885,4,versionC_stim.csv,RLVersionD.csv,"Relational Version D","Relational, read only version D",SCISSORS,SHEARS,Study2,B,112,97,Test,User,-,,Recall,Recall1,16802,Cut,0,11802,12119,0,0,,1
5efe07ae5c74040d238693ce,5kcs3zlti1,"Deep vs Shallow",1,167,2020-07-08T15:01:44-07:00,6.8222739696503,4,versionC_stim.csv,RLVersionD.csv,"Relational Version D","Relational, read only version D",MAROON,JUSTICE,Study2,U,156,98,Test,User,-,,Recall,Recall1,6284,Skies,50,3098,5423,0,0,,1
5efe07ae5c74040d238693ce,5kcs3zlti1,"Deep vs Shallow",1,168,2020-07-08T15:01:49-07:00,5.2521860599518,4,versionC_stim.csv,RLVersionD.csv,"Relational Version D","Relational, read only version D",GROUND,EARTH,Study2,S,144,155,Test,User,-,,Recall,Recall1,4690,Control,16.666666666667,2920,3745,0,0,,1
5efe07ae5c74040d238693ce,5kcs3zlti1,"Deep vs Shallow",1,169,2020-07-08T15:01:56-07:00,7.3856859207153,4,versionC_stim.csv,RLVersionD.csv,"Relational Version D","Relational, read only version D",HATE,NAME,Study2,U,167,104,Test,User,-,,Recall,Recall1,6741,"Love ",25,4580,5943,0,0,,1
5efe07ae5c74040d238693ce,5kcs3zlti1,"Deep vs Shallow",1,170,2020-07-08T15:02:08-07:00,11.258601903915,4,versionC_stim.csv,RLVersionD.csv,"Relational Version D","Relational, read only version D",BREAKABLE,GLASS,Study2,F,127,131,Test,User,-,,Recall,Recall1,10679,Glass,100,9224,9802,1,1,,1
5efe07ae5c74040d238693ce,5kcs3zlti1,"Deep vs Shallow",1,171,2020-07-08T15:02:24-07:00,16.585654973984,4,versionC_stim.csv,RLVersionD.csv,"Relational Version D","Relational, read only version D",TEMPER,TANTRUM,Study2,S,154,122,Test,User,-,,Recall,Recall1,16018,Control,42.857142857143,3884,15181,0,0,,1
5efe07ae5c74040d238693ce,5kcs3zlti1,"Deep vs Shallow",1,172,2020-07-08T15:02:31-07:00,7.2734191417694,4,versionC_stim.csv,RLVersionD.csv,"Relational Version D","Relational, read only version D",EQUAL,RIGHTS,Study2,S,137,173,Test,User,-,,Recall,Recall1,6640,"Less ",20,4106,5674,0,0,,1
5efe07ae5c74040d238693ce,5kcs3zlti1,"Deep vs Shallow",1,173,2020-07-08T15:02:40-07:00,8.6028978824615,4,versionC_stim.csv,RLVersionD.csv,"Relational Version D","Relational, read only version D",CLOTHES,CAKE,Study2,U,166,142,Test,User,-,,Recall,Recall1,8058,Garment,36.363636363636,2563,4094,0,0,,1
5efe07ae5c74040d238693ce,5kcs3zlti1,"Deep vs Shallow",1,174,2020-07-08T15:02:45-07:00,5.2202360630035,4,versionC_stim.csv,RLVersionD.csv,"Relational Version D","Relational, read only version D",TRASH,LITTER,Study2,B,103,106,Test,User,-,,Recall,Recall1,4564,Rubbish,15.384615384615,1919,2920,0,0,,1
5efe07ae5c74040d238693ce,5kcs3zlti1,"Deep vs Shallow",1,175,2020-07-08T15:02:50-07:00,5.0165119171143,4,versionC_stim.csv,RLVersionD.csv,"Relational Version D","Relational, read only version D",BRAWL,FIGHT,Study2,F,135,117,Test,User,-,,Recall,Recall1,4435,Fight,100,2995,3604,1,1,,1
5efe07ae5c74040d238693ce,5kcs3zlti1,"Deep vs Shallow",1,176,2020-07-08T15:02:54-07:00,3.5831019878387,4,versionC_stim.csv,RLVersionD.csv,"Relational Version D","Relational, read only version D",TRUTHFUL,HONEST,Study2,F,133,151,Test,User,-,,Recall,Recall1,2946,Hate,40,1886,2236,0,0,,1
5efe07ae5c74040d238693ce,5kcs3zlti1,"Deep vs Shallow",1,177,2020-07-08T15:03:00-07:00,6.0449361801147,4,versionC_stim.csv,RLVersionD.csv,"Relational Version D","Relational, read only version D",FIGHT,FEUD,Study2,B,113,140,Test,User,-,,Recall,Recall1,5469,Argue,22.222222222222,3707,4325,0,0,,1
5efe07ae5c74040d238693ce,5kcs3zlti1,"Deep vs Shallow",1,178,2020-07-08T15:03:12-07:00,12.187872886658,4,versionC_stim.csv,RLVersionD.csv,"Relational Version D","Relational, read only version D",SIGN,LOAN,Study2,U,171,119,Test,User,-,,Recall,Recall1,11623,"Signature l",13.333333333333,8861,10969,0,0,,1
5efe07ae5c74040d238693ce,5kcs3zlti1,"Deep vs Shallow",1,179,2020-07-08T15:03:17-07:00,4.7948060035706,4,versionC_stim.csv,RLVersionD.csv,"Relational Version D","Relational, read only version D",BALLOON,POP,Study2,F,123,112,Test,User,-,,Recall,Recall1,4261,Red,0,2012,3222,0,0,,1
5efe07ae5c74040d238693ce,5kcs3zlti1,"Deep vs Shallow",1,180,2020-07-08T15:03:25-07:00,8.0058119297028,4,versionC_stim.csv,RLVersionD.csv,"Relational Version D","Relational, read only version D",NAP,SLEEP,Study2,F,134,110,Test,User,-,,Recall,Recall1,7417,Sleep,100,3603,5239,1,1,,1
5efe07ae5c74040d238693ce,5kcs3zlti1,"Deep vs Shallow",1,181,2020-07-08T15:03:40-07:00,15.561396121979,4,versionC_stim.csv,RLVersionD.csv,"Relational Version D","Relational, read only version D",,,,,,0,Instruct,,10,"You will now be presented with a new set of word pairs. Please study each pair. Remember that your memory will be tested! When finished, press Enter to move to the next pair.",Initial_Instruct,Instruct4,14915,,,-1,-1,,,,1
5efe07ae5c74040d238693ce,5kcs3zlti1,"Deep vs Shallow",1,182,2020-07-08T15:04:13-07:00,32.461472988129,4,versionC_stim.csv,RLVersionD.csv,"Relational Version D","Relational, read only version D",,,,,,0,Instruct,-,15,"As you study, please think about how the two concepts are RELATED to each other. For example, if you see the pair TURTLE-CAT, think about how both are alive, they are both animals, and both can be kept as pets.",,Instruct20,31904,,,-1,-1,,,,1
5efe07ae5c74040d238693ce,5kcs3zlti1,"Deep vs Shallow",1,183,2020-07-08T15:05:35-07:00,82.518014907837,4,versionC_stim.csv,RLVersionD.csv,"Relational Version D","Relational, read only version D",,,,,,0,FreeRecall,-,10,"What you should think about as you study each item pair? Type your response in the box below.",,CHECK4,81966,"How the items are RELATED to each other like turtle and cat, they are both animals and can be kept as pets",0,26774,78942,0,0,,1
5efe07ae5c74040d238693ce,5kcs3zlti1,"Deep vs Shallow",1,184,2020-07-08T15:05:44-07:00,8.8249759674072,4,versionC_stim.csv,RLVersionD.csv,"Relational Version D","Relational, read only version D",,,,,,0,Instruct,User,-,"Press Enter when you are readty to begin",,Instruct11,8294,,,-1,-1,,,,1
5efe07ae5c74040d238693ce,5kcs3zlti1,"Deep vs Shallow",1,185,2020-07-08T15:06:08-07:00,23.556841135025,4,versionC_stim.csv,RLVersionD.csv,"Relational Version D","Relational, read only version D",JAM,SPACE,BUFFER1,Buffer,5,4,Study,User,-,,Study/JOL,BUFFER3,22944,,,-1,-1,,,,1
5efe07ae5c74040d238693ce,5kcs3zlti1,"Deep vs Shallow",1,186,2020-07-08T15:06:11-07:00,3.6826479434967,4,versionC_stim.csv,RLVersionD.csv,"Relational Version D","Relational, read only version D",HIDE,SCARE,BUFFER1,Buffer,4,2,Study,User,-,,Study/JOL,BUFFER3,3083,,,-1,-1,,,,1
5efe07ae5c74040d238693ce,5kcs3zlti1,"Deep vs Shallow",1,187,2020-07-08T15:06:16-07:00,4.5054740905762,4,versionC_stim.csv,RLVersionD.csv,"Relational Version D","Relational, read only version D",BUTTER,PEANUT,BUFFER1,Buffer,3,3,Study,User,-,,Study/JOL,BUFFER3,3942,,,-1,-1,,,,1
5efe07ae5c74040d238693ce,5kcs3zlti1,"Deep vs Shallow",1,188,2020-07-08T15:06:18-07:00,2.355162858963,4,versionC_stim.csv,RLVersionD.csv,"Relational Version D","Relational, read only version D",GREEN,TREES,BUFFER1,Buffer,1,6,Study,User,-,,Study/JOL,BUFFER3,1731,,,-1,-1,,,,1
5efe07ae5c74040d238693ce,5kcs3zlti1,"Deep vs Shallow",1,189,2020-07-08T15:06:20-07:00,1.7414720058441,4,versionC_stim.csv,RLVersionD.csv,"Relational Version D","Relational, read only version D",CATCHER,BASEBALL,BUFFER1,Buffer,2,5,Study,User,-,,Study/JOL,BUFFER3,1232,,,-1,-1,,,,1
5efe07ae5c74040d238693ce,5kcs3zlti1,"Deep vs Shallow",1,190,2020-07-08T15:06:22-07:00,1.8495771884918,4,versionC_stim.csv,RLVersionD.csv,"Relational Version D","Relational, read only version D",PLANT,ROOT,Study1,B,13,70,Study,User,-,,Study/JOL,"Study Phase2",1311,,,-1,-1,,,,1
5efe07ae5c74040d238693ce,5kcs3zlti1,"Deep vs Shallow",1,191,2020-07-08T15:06:24-07:00,2.3488337993622,4,versionC_stim.csv,RLVersionD.csv,"Relational Version D","Relational, read only version D",WOULD,CASH,Study1,U,83,58,Study,User,-,,Study/JOL,"Study Phase2",1858,,,-1,-1,,,,1
5efe07ae5c74040d238693ce,5kcs3zlti1,"Deep vs Shallow",1,192,2020-07-08T15:06:29-07:00,4.5058360099792,4,versionC_stim.csv,RLVersionD.csv,"Relational Version D","Relational, read only version D",DROWSY,SLEEP,Study1,F,41,9,Study,User,-,,Study/JOL,"Study Phase2",3970,,,-1,-1,,,,1
5efe07ae5c74040d238693ce,5kcs3zlti1,"Deep vs Shallow",1,193,2020-07-08T15:06:33-07:00,3.8169581890106,4,versionC_stim.csv,RLVersionD.csv,"Relational Version D","Relational, read only version D",BUSINESS,DEATH,Study1,U,72,54,Study,User,-,,Study/JOL,"Study Phase2",3257,,,-1,-1,,,,1
5efe07ae5c74040d238693ce,5kcs3zlti1,"Deep vs Shallow",1,194,2020-07-08T15:06:34-07:00,1.6957988739014,4,versionC_stim.csv,RLVersionD.csv,"Relational Version D","Relational, read only version D",WATER,BRIDGE,Study1,B,18,52,Study,User,-,,Study/JOL,"Study Phase2",1244,,,-1,-1,,,,1
5efe07ae5c74040d238693ce,5kcs3zlti1,"Deep vs Shallow",1,195,2020-07-08T15:06:36-07:00,1.6579539775848,4,versionC_stim.csv,RLVersionD.csv,"Relational Version D","Relational, read only version D",OUT,WAY,Study1,B,16,63,Study,User,-,,Study/JOL,"Study Phase2",1061,,,-1,-1,,,,1
5efe07ae5c74040d238693ce,5kcs3zlti1,"Deep vs Shallow",1,196,2020-07-08T15:06:39-07:00,3.1500239372253,4,versionC_stim.csv,RLVersionD.csv,"Relational Version D","Relational, read only version D",LATCH,KEY,Study1,F,36,74,Study,User,-,,Study/JOL,"Study Phase2",1554,,,-1,-1,,,,1
5efe07ae5c74040d238693ce,5kcs3zlti1,"Deep vs Shallow",1,197,2020-07-08T15:06:42-07:00,3.1986150741577,4,versionC_stim.csv,RLVersionD.csv,"Relational Version D","Relational, read only version D",COW,HERD,Study1,B,22,43,Study,User,-,,Study/JOL,"Study Phase2",2576,,,-1,-1,,,,1
5efe07ae5c74040d238693ce,5kcs3zlti1,"Deep vs Shallow",1,198,2020-07-08T15:07:00-07:00,17.611592054367,4,versionC_stim.csv,RLVersionD.csv,"Relational Version D","Relational, read only version D",GROWTH,HEIGHT,Study1,F,30,62,Study,User,-,,Study/JOL,"Study Phase2",16990,,,-1,-1,,,,1
5efe07ae5c74040d238693ce,5kcs3zlti1,"Deep vs Shallow",1,199,2020-07-08T15:07:05-07:00,4.7134330272675,4,versionC_stim.csv,RLVersionD.csv,"Relational Version D","Relational, read only version D",SODA,POP,Study1,S,56,46,Study,User,-,,Study/JOL,"Study Phase2",3013,,,-1,-1,,,,1
5efe07ae5c74040d238693ce,5kcs3zlti1,"Deep vs Shallow",1,200,2020-07-08T15:07:06-07:00,1.7472429275513,4,versionC_stim.csv,RLVersionD.csv,"Relational Version D","Relational, read only version D",HAND,FIX,Study1,U,75,33,Study,User,-,,Study/JOL,"Study Phase2",1083,,,-1,-1,,,,1
5efe07ae5c74040d238693ce,5kcs3zlti1,"Deep vs Shallow",1,201,2020-07-08T15:07:09-07:00,2.7354180812836,4,versionC_stim.csv,RLVersionD.csv,"Relational Version D","Relational, read only version D",LION,ART,Study1,U,79,86,Study,User,-,,Study/JOL,"Study Phase2",1133,,,-1,-1,,,,1
5efe07ae5c74040d238693ce,5kcs3zlti1,"Deep vs Shallow",1,202,2020-07-08T15:07:13-07:00,3.6054530143738,4,versionC_stim.csv,RLVersionD.csv,"Relational Version D","Relational, read only version D",CAR,HAPPY,Study1,U,77,10,Study,User,-,,Study/JOL,"Study Phase2",2912,,,-1,-1,,,,1
5efe07ae5c74040d238693ce,5kcs3zlti1,"Deep vs Shallow",1,203,2020-07-08T15:07:15-07:00,2.0500910282135,4,versionC_stim.csv,RLVersionD.csv,"Relational Version D","Relational, read only version D",TUCK,ALLOW,Study1,U,78,39,Study,User,-,,Study/JOL,"Study Phase2",1484,,,-1,-1,,,,1
5efe07ae5c74040d238693ce,5kcs3zlti1,"Deep vs Shallow",1,204,2020-07-08T15:07:18-07:00,2.86465883255,4,versionC_stim.csv,RLVersionD.csv,"Relational Version D","Relational, read only version D",BAD,DELINQUENT,Study1,B,6,21,Study,User,-,,Study/JOL,"Study Phase2",2268,,,-1,-1,,,,1
5efe07ae5c74040d238693ce,5kcs3zlti1,"Deep vs Shallow",1,205,2020-07-08T15:07:19-07:00,1.8439340591431,4,versionC_stim.csv,RLVersionD.csv,"Relational Version D","Relational, read only version D",HAMMER,CHISEL,Study1,B,9,27,Study,User,-,,Study/JOL,"Study Phase2",1205,,,-1,-1,,,,1
5efe07ae5c74040d238693ce,5kcs3zlti1,"Deep vs Shallow",1,206,2020-07-08T15:07:21-07:00,1.9454569816589,4,versionC_stim.csv,RLVersionD.csv,"Relational Version D","Relational, read only version D",ENOUGH,FULL,Study1,F,26,41,Study,User,-,,Study/JOL,"Study Phase2",1371,,,-1,-1,,,,1
5efe07ae5c74040d238693ce,5kcs3zlti1,"Deep vs Shallow",1,207,2020-07-08T15:07:23-07:00,1.5353820323944,4,versionC_stim.csv,RLVersionD.csv,"Relational Version D","Relational, read only version D",RIDDLE,SUGAR,Study1,U,81,35,Study,User,-,,Study/JOL,"Study Phase2",976,,,-1,-1,,,,1
5efe07ae5c74040d238693ce,5kcs3zlti1,"Deep vs Shallow",1,208,2020-07-08T15:07:25-07:00,1.9725949764252,4,versionC_stim.csv,RLVersionD.csv,"Relational Version D","Relational, read only version D",ATTORNEY,LAW,Study1,F,34,67,Study,User,-,,Study/JOL,"Study Phase2",1520,,,-1,-1,,,,1
5efe07ae5c74040d238693ce,5kcs3zlti1,"Deep vs Shallow",1,209,2020-07-08T15:07:27-07:00,1.6135001182556,4,versionC_stim.csv,RLVersionD.csv,"Relational Version D","Relational, read only version D",FAMINE,HUNGER,Study1,F,40,84,Study,User,-,,Study/JOL,"Study Phase2",1079,,,-1,-1,,,,1
5efe07ae5c74040d238693ce,5kcs3zlti1,"Deep vs Shallow",1,210,2020-07-08T15:07:28-07:00,1.5342400074005,4,versionC_stim.csv,RLVersionD.csv,"Relational Version D","Relational, read only version D",WIND,BLOW,Study1,S,55,15,Study,User,-,,Study/JOL,"Study Phase2",1006,,,-1,-1,,,,1
5efe07ae5c74040d238693ce,5kcs3zlti1,"Deep vs Shallow",1,211,2020-07-08T15:07:32-07:00,3.5854079723358,4,versionC_stim.csv,RLVersionD.csv,"Relational Version D","Relational, read only version D",SICK,HIDE,Study1,U,84,81,Study,User,-,,Study/JOL,"Study Phase2",3053,,,-1,-1,,,,1
5efe07ae5c74040d238693ce,5kcs3zlti1,"Deep vs Shallow",1,212,2020-07-08T15:07:33-07:00,1.5342500209808,4,versionC_stim.csv,RLVersionD.csv,"Relational Version D","Relational, read only version D",BELT,SOON,Study1,U,70,68,Study,User,-,,Study/JOL,"Study Phase2",974,,,-1,-1,,,,1
5efe07ae5c74040d238693ce,5kcs3zlti1,"Deep vs Shallow",1,213,2020-07-08T15:07:35-07:00,1.6466579437256,4,versionC_stim.csv,RLVersionD.csv,"Relational Version D","Relational, read only version D",BLAZE,FIRE,Study1,F,45,65,Study,User,-,,Study/JOL,"Study Phase2",1009,,,-1,-1,,,,1
5efe07ae5c74040d238693ce,5kcs3zlti1,"Deep vs Shallow",1,214,2020-07-08T15:07:37-07:00,1.8342318534851,4,versionC_stim.csv,RLVersionD.csv,"Relational Version D","Relational, read only version D",AMOUNT,NUMBER,Study1,S,47,29,Study,User,-,,Study/JOL,"Study Phase2",1311,,,-1,-1,,,,1
5efe07ae5c74040d238693ce,5kcs3zlti1,"Deep vs Shallow",1,215,2020-07-08T15:07:38-07:00,1.236396074295,4,versionC_stim.csv,RLVersionD.csv,"Relational Version D","Relational, read only version D",SALAD,LETTUCE,Study1,S,59,40,Study,User,-,,Study/JOL,"Study Phase2",904,,,-1,-1,,,,1
5efe07ae5c74040d238693ce,5kcs3zlti1,"Deep vs Shallow",1,216,2020-07-08T15:07:39-07:00,1.3607649803162,4,versionC_stim.csv,RLVersionD.csv,"Relational Version D","Relational, read only version D",WAR,REVOLUTION,Study1,B,20,7,Study,User,-,,Study/JOL,"Study Phase2",887,,,-1,-1,,,,1
5efe07ae5c74040d238693ce,5kcs3zlti1,"Deep vs Shallow",1,217,2020-07-08T15:07:41-07:00,1.7029049396515,4,versionC_stim.csv,RLVersionD.csv,"Relational Version D","Relational, read only version D",FANTASTIC,GREAT,Study1,F,35,25,Study,User,-,,Study/JOL,"Study Phase2",1110,,,-1,-1,,,,1
5efe07ae5c74040d238693ce,5kcs3zlti1,"Deep vs Shallow",1,218,2020-07-08T15:07:45-07:00,3.7915151119232,4,versionC_stim.csv,RLVersionD.csv,"Relational Version D","Relational, read only version D",SIP,DRINK,Study1,F,27,75,Study,User,-,,Study/JOL,"Study Phase2",3146,,,-1,-1,,,,1
5efe07ae5c74040d238693ce,5kcs3zlti1,"Deep vs Shallow",1,219,2020-07-08T15:07:46-07:00,1.5345470905304,4,versionC_stim.csv,RLVersionD.csv,"Relational Version D","Relational, read only version D",CLEAN,HYGIENE,Study1,B,17,85,Study,User,-,,Study/JOL,"Study Phase2",964,,,-1,-1,,,,1
5efe07ae5c74040d238693ce,5kcs3zlti1,"Deep vs Shallow",1,220,2020-07-08T15:07:48-07:00,1.3030807971954,4,versionC_stim.csv,RLVersionD.csv,"Relational Version D","Relational, read only version D",BAR,GRILL,Study1,S,52,31,Study,User,-,,Study/JOL,"Study Phase2",916,,,-1,-1,,,,1
5efe07ae5c74040d238693ce,5kcs3zlti1,"Deep vs Shallow",1,221,2020-07-08T15:07:52-07:00,4.028697013855,4,versionC_stim.csv,RLVersionD.csv,"Relational Version D","Relational, read only version D",BRONZE,ARTERY,Study1,U,74,50,Study,User,-,,Study/JOL,"Study Phase2",3504,,,-1,-1,,,,1
5efe07ae5c74040d238693ce,5kcs3zlti1,"Deep vs Shallow",1,222,2020-07-08T15:07:55-07:00,3.5817401409149,4,versionC_stim.csv,RLVersionD.csv,"Relational Version D","Relational, read only version D",LIVER,KIDNEY,Study1,S,53,13,Study,User,-,,Study/JOL,"Study Phase2",3007,,,-1,-1,,,,1
5efe07ae5c74040d238693ce,5kcs3zlti1,"Deep vs Shallow",1,223,2020-07-08T15:07:56-07:00,1.2108869552612,4,versionC_stim.csv,RLVersionD.csv,"Relational Version D","Relational, read only version D",DEFINITION,MEANING,Study1,S,62,26,Study,User,-,,Study/JOL,"Study Phase2",813,,,-1,-1,,,,1
5efe07ae5c74040d238693ce,5kcs3zlti1,"Deep vs Shallow",1,224,2020-07-08T15:08:02-07:00,5.1306700706482,4,versionC_stim.csv,RLVersionD.csv,"Relational Version D","Relational, read only version D",,,,,,0,Instruct,-,3,"Remember to focus on how the two items are similiar while you study!",,CHECK5,4526,,,-1,-1,,,,1
5efe07ae5c74040d238693ce,5kcs3zlti1,"Deep vs Shallow",1,225,2020-07-08T15:08:04-07:00,2.0349478721619,4,versionC_stim.csv,RLVersionD.csv,"Relational Version D","Relational, read only version D",FUTURE,PAST,Study1,S,61,16,Study,User,-,,Study/JOL,"Study Phase2",1464,,,-1,-1,,,,1
5efe07ae5c74040d238693ce,5kcs3zlti1,"Deep vs Shallow",1,226,2020-07-08T15:08:05-07:00,1.6568629741669,4,versionC_stim.csv,RLVersionD.csv,"Relational Version D","Relational, read only version D",TALK,DISCUSSION,Study1,B,21,77,Study,User,-,,Study/JOL,"Study Phase2",1194,,,-1,-1,,,,1
5efe07ae5c74040d238693ce,5kcs3zlti1,"Deep vs Shallow",1,227,2020-07-08T15:08:12-07:00,6.3459990024567,4,versionC_stim.csv,RLVersionD.csv,"Relational Version D","Relational, read only version D",CHILI,HOT,Study1,F,37,14,Study,User,-,,Study/JOL,"Study Phase2",5766,,,-1,-1,,,,1
5efe07ae5c74040d238693ce,5kcs3zlti1,"Deep vs Shallow",1,228,2020-07-08T15:08:13-07:00,1.5395979881287,4,versionC_stim.csv,RLVersionD.csv,"Relational Version D","Relational, read only version D",WASTE,DUMP,Study1,S,49,73,Study,User,-,,Study/JOL,"Study Phase2",939,,,-1,-1,,,,1
5efe07ae5c74040d238693ce,5kcs3zlti1,"Deep vs Shallow",1,229,2020-07-08T15:08:15-07:00,1.53697514534,4,versionC_stim.csv,RLVersionD.csv,"Relational Version D","Relational, read only version D",SACKING,DIETARY,Study1,U,67,44,Study,User,-,,Study/JOL,"Study Phase2",939,,,-1,-1,,,,1
5efe07ae5c74040d238693ce,5kcs3zlti1,"Deep vs Shallow",1,230,2020-07-08T15:08:16-07:00,1.3720118999481,4,versionC_stim.csv,RLVersionD.csv,"Relational Version D","Relational, read only version D",BIRD,SWAN,Study1,B,14,8,Study,User,-,,Study/JOL,"Study Phase2",924,,,-1,-1,,,,1
5efe07ae5c74040d238693ce,5kcs3zlti1,"Deep vs Shallow",1,231,2020-07-08T15:08:18-07:00,1.508064031601,4,versionC_stim.csv,RLVersionD.csv,"Relational Version D","Relational, read only version D",SITE,LOCATION,Study1,S,48,45,Study,User,-,,Study/JOL,"Study Phase2",942,,,-1,-1,,,,1
5efe07ae5c74040d238693ce,5kcs3zlti1,"Deep vs Shallow",1,232,2020-07-08T15:08:19-07:00,1.2441470623016,4,versionC_stim.csv,RLVersionD.csv,"Relational Version D","Relational, read only version D",CHORE,WORK,Study1,F,39,72,Study,User,-,,Study/JOL,"Study Phase2",878,,,-1,-1,,,,1
5efe07ae5c74040d238693ce,5kcs3zlti1,"Deep vs Shallow",1,233,2020-07-08T15:08:20-07:00,1.3314309120178,4,versionC_stim.csv,RLVersionD.csv,"Relational Version D","Relational, read only version D",JURY,TRIAL,Study1,S,50,56,Study,User,-,,Study/JOL,"Study Phase2",887,,,-1,-1,,,,1
5efe07ae5c74040d238693ce,5kcs3zlti1,"Deep vs Shallow",1,234,2020-07-08T15:08:23-07:00,3.3466651439667,4,versionC_stim.csv,RLVersionD.csv,"Relational Version D","Relational, read only version D",PILOT,PLANE,Study1,F,44,37,Study,User,-,,Study/JOL,"Study Phase2",2727,,,-1,-1,,,,1
5efe07ae5c74040d238693ce,5kcs3zlti1,"Deep vs Shallow",1,235,2020-07-08T15:08:25-07:00,1.6460399627686,4,versionC_stim.csv,RLVersionD.csv,"Relational Version D","Relational, read only version D",ASSIGNMENT,DUE,Study1,S,46,48,Study,User,-,,Study/JOL,"Study Phase2",1048,,,-1,-1,,,,1
5efe07ae5c74040d238693ce,5kcs3zlti1,"Deep vs Shallow",1,236,2020-07-08T15:08:27-07:00,1.469398021698,4,versionC_stim.csv,RLVersionD.csv,"Relational Version D","Relational, read only version D",COLD,BITTER,Study1,B,12,17,Study,User,-,,Study/JOL,"Study Phase2",988,,,-1,-1,,,,1
5efe07ae5c74040d238693ce,5kcs3zlti1,"Deep vs Shallow",1,237,2020-07-08T15:08:29-07:00,1.9038798809052,4,versionC_stim.csv,RLVersionD.csv,"Relational Version D","Relational, read only version D",ATTIRE,CLOTHES,Study1,F,43,80,Study,User,-,,Study/JOL,"Study Phase2",1389,,,-1,-1,,,,1
5efe07ae5c74040d238693ce,5kcs3zlti1,"Deep vs Shallow",1,238,2020-07-08T15:08:30-07:00,1.3128230571747,4,versionC_stim.csv,RLVersionD.csv,"Relational Version D","Relational, read only version D",VASE,KING,Study1,U,85,36,Study,User,-,,Study/JOL,"Study Phase2",891,,,-1,-1,,,,1
5efe07ae5c74040d238693ce,5kcs3zlti1,"Deep vs Shallow",1,239,2020-07-08T15:08:31-07:00,1.5530169010162,4,versionC_stim.csv,RLVersionD.csv,"Relational Version D","Relational, read only version D",ROCK,GEOLOGY,Study1,B,19,66,Study,User,-,,Study/JOL,"Study Phase2",998,,,-1,-1,,,,1
5efe07ae5c74040d238693ce,5kcs3zlti1,"Deep vs Shallow",1,240,2020-07-08T15:08:33-07:00,1.7414960861206,4,versionC_stim.csv,RLVersionD.csv,"Relational Version D","Relational, read only version D",STENCH,SMELL,Study1,F,42,60,Study,User,-,,Study/JOL,"Study Phase2",1156,,,-1,-1,,,,1
5efe07ae5c74040d238693ce,5kcs3zlti1,"Deep vs Shallow",1,241,2020-07-08T15:08:35-07:00,1.537143945694,4,versionC_stim.csv,RLVersionD.csv,"Relational Version D","Relational, read only version D",ROUND,CIRCLE,Study1,S,65,24,Study,User,-,,Study/JOL,"Study Phase2",973,,,-1,-1,,,,1
5efe07ae5c74040d238693ce,5kcs3zlti1,"Deep vs Shallow",1,242,2020-07-08T15:08:36-07:00,1.5340571403503,4,versionC_stim.csv,RLVersionD.csv,"Relational Version D","Relational, read only version D",FLOWER,ORCHID,Study1,B,24,42,Study,User,-,,Study/JOL,"Study Phase2",1035,,,-1,-1,,,,1
5efe07ae5c74040d238693ce,5kcs3zlti1,"Deep vs Shallow",1,243,2020-07-08T15:08:38-07:00,1.741641998291,4,versionC_stim.csv,RLVersionD.csv,"Relational Version D","Relational, read only version D",CHEESE,WINE,Study1,S,57,79,Study,User,-,,Study/JOL,"Study Phase2",1156,,,-1,-1,,,,1
5efe07ae5c74040d238693ce,5kcs3zlti1,"Deep vs Shallow",1,244,2020-07-08T15:08:39-07:00,1.5362818241119,4,versionC_stim.csv,RLVersionD.csv,"Relational Version D","Relational, read only version D",ACCIDENT,STRONG,Study1,U,80,51,Study,User,-,,Study/JOL,"Study Phase2",995,,,-1,-1,,,,1
5efe07ae5c74040d238693ce,5kcs3zlti1,"Deep vs Shallow",1,245,2020-07-08T15:08:41-07:00,1.3097221851349,4,versionC_stim.csv,RLVersionD.csv,"Relational Version D","Relational, read only version D",SIGHT,DEBATE,Study1,U,73,47,Study,User,-,,Study/JOL,"Study Phase2",929,,,-1,-1,,,,1
5efe07ae5c74040d238693ce,5kcs3zlti1,"Deep vs Shallow",1,246,2020-07-08T15:08:42-07:00,1.3764197826385,4,versionC_stim.csv,RLVersionD.csv,"Relational Version D","Relational, read only version D",CAVE,DARK,Study1,F,28,22,Study,User,-,,Study/JOL,"Study Phase2",874,,,-1,-1,,,,1
5efe07ae5c74040d238693ce,5kcs3zlti1,"Deep vs Shallow",1,247,2020-07-08T15:08:44-07:00,2.2269511222839,4,versionC_stim.csv,RLVersionD.csv,"Relational Version D","Relational, read only version D",CLUTTER,PUSHER,Study1,U,66,55,Study,User,-,,Study/JOL,"Study Phase2",1449,,,-1,-1,,,,1
5efe07ae5c74040d238693ce,5kcs3zlti1,"Deep vs Shallow",1,248,2020-07-08T15:08:46-07:00,1.6415839195251,4,versionC_stim.csv,RLVersionD.csv,"Relational Version D","Relational, read only version D",FISH,TUNA,Study1,B,25,78,Study,User,-,,Study/JOL,"Study Phase2",1069,,,-1,-1,,,,1
5efe07ae5c74040d238693ce,5kcs3zlti1,"Deep vs Shallow",1,249,2020-07-08T15:08:48-07:00,1.6396040916443,4,versionC_stim.csv,RLVersionD.csv,"Relational Version D","Relational, read only version D",CHILD,BABY,Study1,S,64,57,Study,User,-,,Study/JOL,"Study Phase2",1143,,,-1,-1,,,,1
5efe07ae5c74040d238693ce,5kcs3zlti1,"Deep vs Shallow",1,250,2020-07-08T15:08:49-07:00,1.286679983139,4,versionC_stim.csv,RLVersionD.csv,"Relational Version D","Relational, read only version D",STING,HORNET,Study1,B,11,64,Study,User,-,,Study/JOL,"Study Phase2",917,,,-1,-1,,,,1
5efe07ae5c74040d238693ce,5kcs3zlti1,"Deep vs Shallow",1,251,2020-07-08T15:08:51-07:00,2.2796330451965,4,versionC_stim.csv,RLVersionD.csv,"Relational Version D","Relational, read only version D",RACKET,BALL,Study1,F,38,38,Study,User,-,,Study/JOL,"Study Phase2",905,,,-1,-1,,,,1
5efe07ae5c74040d238693ce,5kcs3zlti1,"Deep vs Shallow",1,252,2020-07-08T15:08:54-07:00,2.889044046402,4,versionC_stim.csv,RLVersionD.csv,"Relational Version D","Relational, read only version D",DOG,PAW,Study1,B,15,20,Study,User,-,,Study/JOL,"Study Phase2",1222,,,-1,-1,,,,1
5efe07ae5c74040d238693ce,5kcs3zlti1,"Deep vs Shallow",1,253,2020-07-08T15:08:56-07:00,2.0437638759613,4,versionC_stim.csv,RLVersionD.csv,"Relational Version D","Relational, read only version D",ADD,VALLEY,Study1,U,82,49,Study,User,-,,Study/JOL,"Study Phase2",1483,,,-1,-1,,,,1
5efe07ae5c74040d238693ce,5kcs3zlti1,"Deep vs Shallow",1,254,2020-07-08T15:08:58-07:00,1.5314309597015,4,versionC_stim.csv,RLVersionD.csv,"Relational Version D","Relational, read only version D",END,BEGIN,Study1,S,54,12,Study,User,-,,Study/JOL,"Study Phase2",954,,,-1,-1,,,,1
5efe07ae5c74040d238693ce,5kcs3zlti1,"Deep vs Shallow",1,255,2020-07-08T15:08:59-07:00,1.2428410053253,4,versionC_stim.csv,RLVersionD.csv,"Relational Version D","Relational, read only version D",WORD,SENTENCE,Study1,F,31,82,Study,User,-,,Study/JOL,"Study Phase2",858,,,-1,-1,,,,1
5efe07ae5c74040d238693ce,5kcs3zlti1,"Deep vs Shallow",1,256,2020-07-08T15:09:00-07:00,1.3246941566467,4,versionC_stim.csv,RLVersionD.csv,"Relational Version D","Relational, read only version D",MONEY,WAGE,Study1,B,8,71,Study,User,-,,Study/JOL,"Study Phase2",863,,,-1,-1,,,,1
5efe07ae5c74040d238693ce,5kcs3zlti1,"Deep vs Shallow",1,257,2020-07-08T15:09:02-07:00,2.0524439811707,4,versionC_stim.csv,RLVersionD.csv,"Relational Version D","Relational, read only version D",FOOT,SHOE,Study1,S,60,18,Study,User,-,,Study/JOL,"Study Phase2",1400,,,-1,-1,,,,1
5efe07ae5c74040d238693ce,5kcs3zlti1,"Deep vs Shallow",1,258,2020-07-08T15:09:06-07:00,4.0881288051605,4,versionC_stim.csv,RLVersionD.csv,"Relational Version D","Relational, read only version D",SEIZE,TAKE,Study1,F,29,19,Study,User,-,,Study/JOL,"Study Phase2",3563,,,-1,-1,,,,1
5efe07ae5c74040d238693ce,5kcs3zlti1,"Deep vs Shallow",1,259,2020-07-08T15:09:08-07:00,1.5369610786438,4,versionC_stim.csv,RLVersionD.csv,"Relational Version D","Relational, read only version D",STOMACH,DIGESTION,Study1,B,7,32,Study,User,-,,Study/JOL,"Study Phase2",941,,,-1,-1,,,,1
5efe07ae5c74040d238693ce,5kcs3zlti1,"Deep vs Shallow",1,260,2020-07-08T15:09:09-07:00,1.2965750694275,4,versionC_stim.csv,RLVersionD.csv,"Relational Version D","Relational, read only version D",BEE,HONEY,Study1,S,63,34,Study,User,-,,Study/JOL,"Study Phase2",919,,,-1,-1,,,,1
5efe07ae5c74040d238693ce,5kcs3zlti1,"Deep vs Shallow",1,261,2020-07-08T15:09:11-07:00,1.6701118946075,4,versionC_stim.csv,RLVersionD.csv,"Relational Version D","Relational, read only version D",WASP,BUG,Study1,F,32,11,Study,User,-,,Study/JOL,"Study Phase2",1092,,,-1,-1,,,,1
5efe07ae5c74040d238693ce,5kcs3zlti1,"Deep vs Shallow",1,262,2020-07-08T15:09:12-07:00,1.2719810009003,4,versionC_stim.csv,RLVersionD.csv,"Relational Version D","Relational, read only version D",WOMAN,LIFT,Study1,U,69,23,Study,User,-,,Study/JOL,"Study Phase2",909,,,-1,-1,,,,1
5efe07ae5c74040d238693ce,5kcs3zlti1,"Deep vs Shallow",1,263,2020-07-08T15:09:14-07:00,1.5958640575409,4,versionC_stim.csv,RLVersionD.csv,"Relational Version D","Relational, read only version D",POSITION,MACHINE,Study1,U,76,53,Study,User,-,,Study/JOL,"Study Phase2",1060,,,-1,-1,,,,1
5efe07ae5c74040d238693ce,5kcs3zlti1,"Deep vs Shallow",1,264,2020-07-08T15:09:17-07:00,3.4817709922791,4,versionC_stim.csv,RLVersionD.csv,"Relational Version D","Relational, read only version D",CARD,CREDIT,Study1,B,23,61,Study,User,-,,Study/JOL,"Study Phase2",2891,,,-1,-1,,,,1
5efe07ae5c74040d238693ce,5kcs3zlti1,"Deep vs Shallow",1,265,2020-07-08T15:09:19-07:00,1.3562710285187,4,versionC_stim.csv,RLVersionD.csv,"Relational Version D","Relational, read only version D",NEWS,EDITOR,Study1,B,10,69,Study,User,-,,Study/JOL,"Study Phase2",928,,,-1,-1,,,,1
5efe07ae5c74040d238693ce,5kcs3zlti1,"Deep vs Shallow",1,266,2020-07-08T15:09:20-07:00,1.7149860858917,4,versionC_stim.csv,RLVersionD.csv,"Relational Version D","Relational, read only version D",DESIGN,ARCHITECTURE,Study1,S,51,30,Study,User,-,,Study/JOL,"Study Phase2",1052,,,-1,-1,,,,1
5efe07ae5c74040d238693ce,5kcs3zlti1,"Deep vs Shallow",1,267,2020-07-08T15:09:22-07:00,1.31968998909,4,versionC_stim.csv,RLVersionD.csv,"Relational Version D","Relational, read only version D",HUNGRY,PARK,Study1,U,68,76,Study,User,-,,Study/JOL,"Study Phase2",891,,,-1,-1,,,,1
5efe07ae5c74040d238693ce,5kcs3zlti1,"Deep vs Shallow",1,268,2020-07-08T15:09:24-07:00,2.5684587955475,4,versionC_stim.csv,RLVersionD.csv,"Relational Version D","Relational, read only version D",TOILET,BATHROOM,Study1,S,58,83,Study,User,-,,Study/JOL,"Study Phase2",1877,,,-1,-1,,,,1
5efe07ae5c74040d238693ce,5kcs3zlti1,"Deep vs Shallow",1,269,2020-07-08T15:09:28-07:00,3.8961400985718,4,versionC_stim.csv,RLVersionD.csv,"Relational Version D","Relational, read only version D",DIVISION,MATH,Study1,F,33,28,Study,User,-,,Study/JOL,"Study Phase2",3380,,,-1,-1,,,,1
5efe07ae5c74040d238693ce,5kcs3zlti1,"Deep vs Shallow",1,270,2020-07-08T15:09:29-07:00,1.3166570663452,4,versionC_stim.csv,RLVersionD.csv,"Relational Version D","Relational, read only version D",FLOOR,DISCOVER,Study1,U,71,59,Study,User,-,,Study/JOL,"Study Phase2",897,,,-1,-1,,,,1
5efe07ae5c74040d238693ce,5kcs3zlti1,"Deep vs Shallow",1,271,2020-07-08T15:09:31-07:00,1.651181936264,4,versionC_stim.csv,RLVersionD.csv,"Relational Version D","Relational, read only version D",GOOSE,GEESE,BUFFER2,Buffer,86,91,Study,User,-,,Study/JOL,BUFFER4,954,,,-1,-1,,,,1
5efe07ae5c74040d238693ce,5kcs3zlti1,"Deep vs Shallow",1,272,2020-07-08T15:09:33-07:00,1.6473760604858,4,versionC_stim.csv,RLVersionD.csv,"Relational Version D","Relational, read only version D",POLICE,SHERRIF,BUFFER2,Buffer,87,88,Study,User,-,,Study/JOL,BUFFER4,1076,,,-1,-1,,,,1
5efe07ae5c74040d238693ce,5kcs3zlti1,"Deep vs Shallow",1,273,2020-07-08T15:09:34-07:00,1.2556898593903,4,versionC_stim.csv,RLVersionD.csv,"Relational Version D","Relational, read only version D",SPACE,MOON,BUFFER2,Buffer,89,87,Study,User,-,,Study/JOL,BUFFER4,879,,,-1,-1,,,,1
5efe07ae5c74040d238693ce,5kcs3zlti1,"Deep vs Shallow",1,274,2020-07-08T15:09:35-07:00,1.3176040649414,4,versionC_stim.csv,RLVersionD.csv,"Relational Version D","Relational, read only version D",CHOCOLATE,MALT,BUFFER2,Buffer,88,89,Study,User,-,,Study/JOL,BUFFER4,875,,,-1,-1,,,,1
5efe07ae5c74040d238693ce,5kcs3zlti1,"Deep vs Shallow",1,275,2020-07-08T15:09:37-07:00,1.3930571079254,4,versionC_stim.csv,RLVersionD.csv,"Relational Version D","Relational, read only version D",STUFF,THING,BUFFER2,Buffer,90,90,Study,User,-,,Study/JOL,BUFFER4,942,,,-1,-1,,,,1
5efe07ae5c74040d238693ce,5kcs3zlti1,"Deep vs Shallow",1,276,2020-07-08T15:09:39-07:00,2.580659866333,4,versionC_stim.csv,RLVersionD.csv,"Relational Version D","Relational, read only version D",,,,,,0,Instruct,User,-,"You have completed this section. Please press Enter.",Filler_Instruction,Instruct5,1879,,,-1,-1,,,,1
5efe07ae5c74040d238693ce,5kcs3zlti1,"Deep vs Shallow",1,277,2020-07-08T15:10:31-07:00,52.123162031174,4,versionC_stim.csv,RLVersionD.csv,"Relational Version D","Relational, read only version D",,,,,,0,FreeRecall,-,10,"What were you supposed to focus on while you studied each pair? (Hint: Think back to the instructions). Type your answer in the space below.",,CHECK3,51546,"The RELATIONSHIP between the 2 items, like turtle-cat are both animals and can be kept as pets ",0,4540,47535,0,0,,1
5efe07ae5c74040d238693ce,5kcs3zlti1,"Deep vs Shallow",1,278,2020-07-08T15:10:37-07:00,5.3203709125519,4,versionC_stim.csv,RLVersionD.csv,"Relational Version D","Relational, read only version D",,,,,,0,Instruct,User,-,"You have completed this section. Please press Enter.",Filler_Instruction,Instruct5,4730,,,-1,-1,,,,1
5efe07ae5c74040d238693ce,5kcs3zlti1,"Deep vs Shallow",1,279,2020-07-08T15:12:37-07:00,120.63477921486,4,versionC_stim.csv,RLVersionD.csv,"Relational Version D","Relational, read only version D",,,,,,0,FreeRecall,120,120,"Please list the 50 US states in reverse alphabetical order (z - a). The task will automatically advance to the next screen after two minutes.",,Filler2,120002,"Washington Texas Ohio New York New Mexico Michigan Georgia California Alabama Alaska",0,11672,119967,0,0,,1
5efe07ae5c74040d238693ce,5kcs3zlti1,"Deep vs Shallow",1,280,2020-07-08T15:12:49-07:00,11.669457912445,4,versionC_stim.csv,RLVersionD.csv,"Relational Version D","Relational, read only version D",,,,,,0,Instruct,-,10,"You will now be presented with the first word from each of the previously studied item pairs. Please type the missing word. If you do not know the word, you may guess or press Enter to skip forward to the next pair.",,Instruct6,11049,,,-1,-1,,,,1
5efe07ae5c74040d238693ce,5kcs3zlti1,"Deep vs Shallow",1,281,2020-07-08T15:12:58-07:00,9.2163350582123,4,versionC_stim.csv,RLVersionD.csv,"Relational Version D","Relational, read only version D",BAR,GRILL,Study1,S,52,31,Test,User,-,,Recall,Recall2,8639,Law,25,5849,6176,0,0,,1
5efe07ae5c74040d238693ce,5kcs3zlti1,"Deep vs Shallow",1,282,2020-07-08T15:13:04-07:00,5.8446438312531,4,versionC_stim.csv,RLVersionD.csv,"Relational Version D","Relational, read only version D",LION,ART,Study1,U,79,86,Test,User,-,,Recall,Recall2,5245,Animal,22.222222222222,2153,4522,0,0,,1
5efe07ae5c74040d238693ce,5kcs3zlti1,"Deep vs Shallow",1,283,2020-07-08T15:13:08-07:00,4.2934939861298,4,versionC_stim.csv,RLVersionD.csv,"Relational Version D","Relational, read only version D",VASE,KING,Study1,U,85,36,Test,User,-,,Recall,Recall2,3666,Ace,0,2420,2834,0,0,,1
5efe07ae5c74040d238693ce,5kcs3zlti1,"Deep vs Shallow",1,284,2020-07-08T15:13:18-07:00,9.3194961547852,4,versionC_stim.csv,RLVersionD.csv,"Relational Version D","Relational, read only version D",ACCIDENT,STRONG,Study1,U,80,51,Test,User,-,,Recall,Recall2,8683,Crash,18.181818181818,3121,7598,0,0,,1
5efe07ae5c74040d238693ce,5kcs3zlti1,"Deep vs Shallow",1,285,2020-07-08T15:13:22-07:00,4.0994470119476,4,versionC_stim.csv,RLVersionD.csv,"Relational Version D","Relational, read only version D",SODA,POP,Study1,S,56,46,Test,User,-,,Recall,Recall2,3451,Pop,100,2382,2646,1,1,,1
5efe07ae5c74040d238693ce,5kcs3zlti1,"Deep vs Shallow",1,286,2020-07-08T15:13:27-07:00,5.218554019928,4,versionC_stim.csv,RLVersionD.csv,"Relational Version D","Relational, read only version D",AMOUNT,NUMBER,Study1,S,47,29,Test,User,-,,Recall,Recall2,4555,Total,0,2971,3633,0,0,,1
5efe07ae5c74040d238693ce,5kcs3zlti1,"Deep vs Shallow",1,287,2020-07-08T15:13:31-07:00,4.3027319908142,4,versionC_stim.csv,RLVersionD.csv,"Relational Version D","Relational, read only version D",ASSIGNMENT,DUE,Study1,S,46,48,Test,User,-,,Recall,Recall2,3637,Exam,28.571428571429,2329,2817,0,0,,1
5efe07ae5c74040d238693ce,5kcs3zlti1,"Deep vs Shallow",1,288,2020-07-08T15:13:38-07:00,7.0382380485535,4,versionC_stim.csv,RLVersionD.csv,"Relational Version D","Relational, read only version D",NEWS,EDITOR,Study1,B,10,69,Test,User,-,,Recall,Recall2,5385,Stoey,36.363636363636,2907,3448,0,0,,1
5efe07ae5c74040d238693ce,5kcs3zlti1,"Deep vs Shallow",1,289,2020-07-08T15:13:44-07:00,5.9931418895721,4,versionC_stim.csv,RLVersionD.csv,"Relational Version D","Relational, read only version D",SEIZE,TAKE,Study1,F,29,19,Test,User,-,,Recall,Recall2,5396,Take,100,2418,2857,1,1,,1
5efe07ae5c74040d238693ce,5kcs3zlti1,"Deep vs Shallow",1,290,2020-07-08T15:13:50-07:00,5.9093039035797,4,versionC_stim.csv,RLVersionD.csv,"Relational Version D","Relational, read only version D",CLEAN,HYGIENE,Study1,B,17,85,Test,User,-,,Recall,Recall2,5396,Dirty,16.666666666667,3739,4428,0,0,,1
5efe07ae5c74040d238693ce,5kcs3zlti1,"Deep vs Shallow",1,291,2020-07-08T15:13:57-07:00,7.1708312034607,4,versionC_stim.csv,RLVersionD.csv,"Relational Version D","Relational, read only version D",DOG,PAW,Study1,B,15,20,Test,User,-,,Recall,Recall2,6586,Bowl,28.571428571429,4488,5665,0,0,,1
5efe07ae5c74040d238693ce,5kcs3zlti1,"Deep vs Shallow",1,292,2020-07-08T15:14:07-07:00,9.7274029254913,4,versionC_stim.csv,RLVersionD.csv,"Relational Version D","Relational, read only version D",GROWTH,HEIGHT,Study1,F,30,62,Test,User,-,,Recall,Recall2,9086,Remove,16.666666666667,6606,7244,0,0,,1
5efe07ae5c74040d238693ce,5kcs3zlti1,"Deep vs Shallow",1,293,2020-07-08T15:14:14-07:00,6.6618139743805,4,versionC_stim.csv,RLVersionD.csv,"Relational Version D","Relational, read only version D",SICK,HIDE,Study1,U,84,81,Test,User,-,,Recall,Recall2,5971,Unwell,20,4503,5284,0,0,,1
5efe07ae5c74040d238693ce,5kcs3zlti1,"Deep vs Shallow",1,294,2020-07-08T15:14:20-07:00,5.7309808731079,4,versionC_stim.csv,RLVersionD.csv,"Relational Version D","Relational, read only version D",SACKING,DIETARY,Study1,U,67,44,Test,User,-,,Recall,Recall2,5106,Job,0,4036,4436,0,0,,1
5efe07ae5c74040d238693ce,5kcs3zlti1,"Deep vs Shallow",1,295,2020-07-08T15:14:25-07:00,5.2230131626129,4,versionC_stim.csv,RLVersionD.csv,"Relational Version D","Relational, read only version D",PILOT,PLANE,Study1,F,44,37,Test,User,-,,Recall,Recall2,4568,Fly,25,2252,2547,0,0,,1
5efe07ae5c74040d238693ce,5kcs3zlti1,"Deep vs Shallow",1,296,2020-07-08T15:14:35-07:00,10.008530855179,4,versionC_stim.csv,RLVersionD.csv,"Relational Version D","Relational, read only version D",WATER,BRIDGE,Study1,B,18,52,Test,User,-,,Recall,Recall2,8418,Hydrate,30.769230769231,2142,5865,0,0,,1
5efe07ae5c74040d238693ce,5kcs3zlti1,"Deep vs Shallow",1,297,2020-07-08T15:14:46-07:00,11.060142040253,4,versionC_stim.csv,RLVersionD.csv,"Relational Version D","Relational, read only version D",FLOWER,ORCHID,Study1,B,24,42,Test,User,-,,Recall,Recall2,9354,Daffodil,14.285714285714,5464,8174,0,0,,1
5efe07ae5c74040d238693ce,5kcs3zlti1,"Deep vs Shallow",1,298,2020-07-08T15:14:53-07:00,6.784373998642,4,versionC_stim.csv,RLVersionD.csv,"Relational Version D","Relational, read only version D",FISH,TUNA,Study1,B,25,78,Test,User,-,,Recall,Recall2,6062,Shrimp,0,3264,4812,0,0,,1
5efe07ae5c74040d238693ce,5kcs3zlti1,"Deep vs Shallow",1,299,2020-07-08T15:14:56-07:00,3.6900880336761,4,versionC_stim.csv,RLVersionD.csv,"Relational Version D","Relational, read only version D",STING,HORNET,Study1,B,11,64,Test,User,-,,Recall,Recall2,3110,Bee,22.222222222222,2081,2365,0,0,,1
5efe07ae5c74040d238693ce,5kcs3zlti1,"Deep vs Shallow",1,300,2020-07-08T15:15:00-07:00,3.5747110843658,4,versionC_stim.csv,RLVersionD.csv,"Relational Version D","Relational, read only version D",DROWSY,SLEEP,Study1,F,41,9,Test,User,-,,Recall,Recall2,3008,Tired,20,1591,2124,0,0,,1
5efe07ae5c74040d238693ce,5kcs3zlti1,"Deep vs Shallow",1,301,2020-07-08T15:15:09-07:00,9.2234039306641,4,versionC_stim.csv,RLVersionD.csv,"Relational Version D","Relational, read only version D",SALAD,LETTUCE,Study1,S,59,40,Test,User,-,,Recall,Recall2,8550,Lettuce,100,5604,7280,1,1,,1
5efe07ae5c74040d238693ce,5kcs3zlti1,"Deep vs Shallow",1,302,2020-07-08T15:15:18-07:00,8.7026119232178,4,versionC_stim.csv,RLVersionD.csv,"Relational Version D","Relational, read only version D",FAMINE,HUNGER,Study1,F,40,84,Test,User,-,,Recall,Recall2,8104,Starve,16.666666666667,4949,7162,0,0,,1
5efe07ae5c74040d238693ce,5kcs3zlti1,"Deep vs Shallow",1,303,2020-07-08T15:15:46-07:00,27.956588029861,4,versionC_stim.csv,RLVersionD.csv,"Relational Version D","Relational, read only version D",POSITION,MACHINE,Study1,U,76,53,Test,User,-,,Recall,Recall2,27348,Move,36.363636363636,22678,25100,0,0,,1
5efe07ae5c74040d238693ce,5kcs3zlti1,"Deep vs Shallow",1,304,2020-07-08T15:15:50-07:00,4.1007790565491,4,versionC_stim.csv,RLVersionD.csv,"Relational Version D","Relational, read only version D",WASTE,DUMP,Study1,S,49,73,Test,User,-,,Recall,Recall2,3501,Rubbish,18.181818181818,1816,2693,0,0,,1
5efe07ae5c74040d238693ce,5kcs3zlti1,"Deep vs Shallow",1,305,2020-07-08T15:15:56-07:00,5.8299150466919,4,versionC_stim.csv,RLVersionD.csv,"Relational Version D","Relational, read only version D",ENOUGH,FULL,Study1,F,26,41,Test,User,-,,Recall,Recall2,5252,Full,100,3684,4217,1,1,,1
5efe07ae5c74040d238693ce,5kcs3zlti1,"Deep vs Shallow",1,306,2020-07-08T15:16:02-07:00,6.4529869556427,4,versionC_stim.csv,RLVersionD.csv,"Relational Version D","Relational, read only version D",HAMMER,CHISEL,Study1,B,9,27,Test,User,-,,Recall,Recall2,5844,Chisel,100,3123,4621,1,1,,1
5efe07ae5c74040d238693ce,5kcs3zlti1,"Deep vs Shallow",1,307,2020-07-08T15:16:16-07:00,14.028417110443,4,versionC_stim.csv,RLVersionD.csv,"Relational Version D","Relational, read only version D",ADD,VALLEY,Study1,U,82,49,Test,User,-,,Recall,Recall2,13434,Total,36.363636363636,11305,12472,0,0,,1
5efe07ae5c74040d238693ce,5kcs3zlti1,"Deep vs Shallow",1,308,2020-07-08T15:16:21-07:00,4.6161758899689,4,versionC_stim.csv,RLVersionD.csv,"Relational Version D","Relational, read only version D",COW,HERD,Study1,B,22,43,Test,User,-,,Recall,Recall2,4027,Milk,0,2481,3082,0,0,,1
5efe07ae5c74040d238693ce,5kcs3zlti1,"Deep vs Shallow",1,309,2020-07-08T15:16:28-07:00,7.1237518787384,4,versionC_stim.csv,RLVersionD.csv,"Relational Version D","Relational, read only version D",HAND,FIX,Study1,U,75,33,Test,User,-,,Recall,Recall2,6581,Body,0,5029,5541,0,0,,1
5efe07ae5c74040d238693ce,5kcs3zlti1,"Deep vs Shallow",1,310,2020-07-08T15:16:41-07:00,13.551272153854,4,versionC_stim.csv,RLVersionD.csv,"Relational Version D","Relational, read only version D",WOMAN,LIFT,Study1,U,69,23,Test,User,-,,Recall,Recall2,13014,Man,0,11998,12184,0,0,,1
5efe07ae5c74040d238693ce,5kcs3zlti1,"Deep vs Shallow",1,311,2020-07-08T15:16:51-07:00,9.8331360816956,4,versionC_stim.csv,RLVersionD.csv,"Relational Version D","Relational, read only version D",BAD,DELINQUENT,Study1,B,6,21,Test,User,-,,Recall,Recall2,9176,Bandit,25,7840,8381,0,0,,1
5efe07ae5c74040d238693ce,5kcs3zlti1,"Deep vs Shallow",1,312,2020-07-08T15:16:56-07:00,4.403226852417,4,versionC_stim.csv,RLVersionD.csv,"Relational Version D","Relational, read only version D",WASP,BUG,Study1,F,32,11,Test,User,-,,Recall,Recall2,3759,Bee,33.333333333333,2639,2972,0,0,,1
5efe07ae5c74040d238693ce,5kcs3zlti1,"Deep vs Shallow",1,313,2020-07-08T15:17:01-07:00,5.3228290081024,4,versionC_stim.csv,RLVersionD.csv,"Relational Version D","Relational, read only version D",ATTIRE,CLOTHES,Study1,F,43,80,Test,User,-,,Recall,Recall2,4697,Clothes,100,2229,3852,1,1,,1
5efe07ae5c74040d238693ce,5kcs3zlti1,"Deep vs Shallow",1,314,2020-07-08T15:17:05-07:00,3.4810810089111,4,versionC_stim.csv,RLVersionD.csv,"Relational Version D","Relational, read only version D",CLUTTER,PUSHER,Study1,U,66,55,Test,User,-,,Recall,Recall2,2917,Mess,20,1582,2082,0,0,,1
5efe07ae5c74040d238693ce,5kcs3zlti1,"Deep vs Shallow",1,315,2020-07-08T15:17:08-07:00,3.6859900951385,4,versionC_stim.csv,RLVersionD.csv,"Relational Version D","Relational, read only version D",TOILET,BATHROOM,Study1,S,58,83,Test,User,-,,Recall,Recall2,3102,Seat,33.333333333333,1664,2178,0,0,,1
5efe07ae5c74040d238693ce,5kcs3zlti1,"Deep vs Shallow",1,316,2020-07-08T15:17:12-07:00,3.9959819316864,4,versionC_stim.csv,RLVersionD.csv,"Relational Version D","Relational, read only version D",RACKET,BALL,Study1,F,38,38,Test,User,-,,Recall,Recall2,3356,Noise,0,1959,2556,0,0,,1
5efe07ae5c74040d238693ce,5kcs3zlti1,"Deep vs Shallow",1,317,2020-07-08T15:17:22-07:00,9.522775888443,4,versionC_stim.csv,RLVersionD.csv,"Relational Version D","Relational, read only version D",HUNGRY,PARK,Study1,U,68,76,Test,User,-,,Recall,Recall2,8978,Full,0,2819,5256,0,0,,1
5efe07ae5c74040d238693ce,5kcs3zlti1,"Deep vs Shallow",1,318,2020-07-08T15:17:29-07:00,7.7566430568695,4,versionC_stim.csv,RLVersionD.csv,"Relational Version D","Relational, read only version D",DEFINITION,MEANING,Study1,S,62,26,Test,User,-,,Recall,Recall2,5080,Explain,57.142857142857,3301,4267,0,0,,1
5efe07ae5c74040d238693ce,5kcs3zlti1,"Deep vs Shallow",1,319,2020-07-08T15:17:36-07:00,6.1694960594177,4,versionC_stim.csv,RLVersionD.csv,"Relational Version D","Relational, read only version D",BELT,SOON,Study1,U,70,68,Test,User,-,,Recall,Recall2,5518,Trousera,16.666666666667,2956,4035,0,0,,1
5efe07ae5c74040d238693ce,5kcs3zlti1,"Deep vs Shallow",1,320,2020-07-08T15:17:45-07:00,9.4062170982361,4,versionC_stim.csv,RLVersionD.csv,"Relational Version D","Relational, read only version D",FUTURE,PAST,Study1,S,61,16,Test,User,-,,Recall,Recall2,8751,Plans,66.666666666667,7400,7941,0,0,,1
5efe07ae5c74040d238693ce,5kcs3zlti1,"Deep vs Shallow",1,321,2020-07-08T15:17:50-07:00,5.2400228977203,4,versionC_stim.csv,RLVersionD.csv,"Relational Version D","Relational, read only version D",WORD,SENTENCE,Study1,F,31,82,Test,User,-,,Recall,Recall2,4682,Letter,42.857142857143,3005,3928,0,0,,1
5efe07ae5c74040d238693ce,5kcs3zlti1,"Deep vs Shallow",1,322,2020-07-08T15:18:03-07:00,12.698944091797,4,versionC_stim.csv,RLVersionD.csv,"Relational Version D","Relational, read only version D",CAR,HAPPY,Study1,U,77,10,Test,User,-,,Recall,Recall2,10978,Windscreen,0,5846,7702,0,0,,1
5efe07ae5c74040d238693ce,5kcs3zlti1,"Deep vs Shallow",1,323,2020-07-08T15:18:11-07:00,8.0915458202362,4,versionC_stim.csv,RLVersionD.csv,"Relational Version D","Relational, read only version D",MONEY,WAGE,Study1,B,8,71,Test,User,-,,Recall,Recall2,7516,Bank,25,4941,5231,0,0,,1
5efe07ae5c74040d238693ce,5kcs3zlti1,"Deep vs Shallow",1,324,2020-07-08T15:18:18-07:00,6.5521311759949,4,versionC_stim.csv,RLVersionD.csv,"Relational Version D","Relational, read only version D",CAVE,DARK,Study1,F,28,22,Test,User,-,,Recall,Recall2,4811,Bear,50,3465,3947,0,0,,1
5efe07ae5c74040d238693ce,5kcs3zlti1,"Deep vs Shallow",1,325,2020-07-08T15:18:23-07:00,5.421707868576,4,versionC_stim.csv,RLVersionD.csv,"Relational Version D","Relational, read only version D",SIGHT,DEBATE,Study1,U,73,47,Test,User,-,,Recall,Recall2,4775,See,44.444444444444,3553,3876,0,0,,1
5efe07ae5c74040d238693ce,5kcs3zlti1,"Deep vs Shallow",1,326,2020-07-08T15:18:28-07:00,4.714996099472,4,versionC_stim.csv,RLVersionD.csv,"Relational Version D","Relational, read only version D",TUCK,ALLOW,Study1,U,78,39,Test,User,-,,Recall,Recall2,4041,Tidy,0,2625,3026,0,0,,1
5efe07ae5c74040d238693ce,5kcs3zlti1,"Deep vs Shallow",1,327,2020-07-08T15:18:41-07:00,13.002743959427,4,versionC_stim.csv,RLVersionD.csv,"Relational Version D","Relational, read only version D",DIVISION,MATH,Study1,F,33,28,Test,User,-,,Recall,Recall2,12399,Subtraction,13.333333333333,1710,11328,0,0,,1
5efe07ae5c74040d238693ce,5kcs3zlti1,"Deep vs Shallow",1,328,2020-07-08T15:18:45-07:00,3.790207862854,4,versionC_stim.csv,RLVersionD.csv,"Relational Version D","Relational, read only version D",CHILI,HOT,Study1,F,37,14,Test,User,-,,Recall,Recall2,3100,Hot,100,1655,2051,1,1,,1
5efe07ae5c74040d238693ce,5kcs3zlti1,"Deep vs Shallow",1,329,2020-07-08T15:18:50-07:00,5.016125202179,4,versionC_stim.csv,RLVersionD.csv,"Relational Version D","Relational, read only version D",CHORE,WORK,Study1,F,39,72,Test,User,-,,Recall,Recall2,4428,Job,28.571428571429,2033,2961,0,0,,1
5efe07ae5c74040d238693ce,5kcs3zlti1,"Deep vs Shallow",1,330,2020-07-08T15:18:58-07:00,7.933376789093,4,versionC_stim.csv,RLVersionD.csv,"Relational Version D","Relational, read only version D",LIVER,KIDNEY,Study1,S,53,13,Test,User,-,,Recall,Recall2,7387,Kidney,100,3649,6398,1,1,,1
5efe07ae5c74040d238693ce,5kcs3zlti1,"Deep vs Shallow",1,331,2020-07-08T15:19:05-07:00,7.1191251277924,4,versionC_stim.csv,RLVersionD.csv,"Relational Version D","Relational, read only version D",STENCH,SMELL,Study1,F,42,60,Test,User,-,,Recall,Recall2,6528,Smell,100,2256,4382,1,1,,1
5efe07ae5c74040d238693ce,5kcs3zlti1,"Deep vs Shallow",1,332,2020-07-08T15:19:09-07:00,4.2039649486542,4,versionC_stim.csv,RLVersionD.csv,"Relational Version D","Relational, read only version D",FANTASTIC,GREAT,Study1,F,35,25,Test,User,-,,Recall,Recall2,3540,Brilliant,42.857142857143,1743,2829,0,0,,1
5efe07ae5c74040d238693ce,5kcs3zlti1,"Deep vs Shallow",1,333,2020-07-08T15:19:14-07:00,5.5293719768524,4,versionC_stim.csv,RLVersionD.csv,"Relational Version D","Relational, read only version D",RIDDLE,SUGAR,Study1,U,81,35,Test,User,-,,Recall,Recall2,4935,Confusion,14.285714285714,2897,3981,0,0,,1
5efe07ae5c74040d238693ce,5kcs3zlti1,"Deep vs Shallow",1,334,2020-07-08T15:19:21-07:00,6.4490389823914,4,versionC_stim.csv,RLVersionD.csv,"Relational Version D","Relational, read only version D",WIND,BLOW,Study1,S,55,15,Test,User,-,,Recall,Recall2,5812,Blow,100,4157,4761,1,1,,1
5efe07ae5c74040d238693ce,5kcs3zlti1,"Deep vs Shallow",1,335,2020-07-08T15:19:32-07:00,11.676959991455,4,versionC_stim.csv,RLVersionD.csv,"Relational Version D","Relational, read only version D",TALK,DISCUSSION,Study1,B,21,77,Test,User,-,,Recall,Recall2,11178,"Speak ",13.333333333333,9147,10314,0,0,,1
5efe07ae5c74040d238693ce,5kcs3zlti1,"Deep vs Shallow",1,336,2020-07-08T15:19:37-07:00,4.5819420814514,4,versionC_stim.csv,RLVersionD.csv,"Relational Version D","Relational, read only version D",ROCK,GEOLOGY,Study1,B,19,66,Test,User,-,,Recall,Recall2,3030,Hard,0,1639,2143,0,0,,1
5efe07ae5c74040d238693ce,5kcs3zlti1,"Deep vs Shallow",1,337,2020-07-08T15:19:46-07:00,9.0343689918518,4,versionC_stim.csv,RLVersionD.csv,"Relational Version D","Relational, read only version D",JURY,TRIAL,Study1,S,50,56,Test,User,-,,Recall,Recall2,8313,Trial,100,2660,7219,1,1,,1
5efe07ae5c74040d238693ce,5kcs3zlti1,"Deep vs Shallow",1,338,2020-07-08T15:19:54-07:00,7.9892580509186,4,versionC_stim.csv,RLVersionD.csv,"Relational Version D","Relational, read only version D",BIRD,SWAN,Study1,B,14,8,Test,User,-,,Recall,Recall2,7370,Crow,25,5491,5901,0,0,,1
5efe07ae5c74040d238693ce,5kcs3zlti1,"Deep vs Shallow",1,339,2020-07-08T15:20:02-07:00,7.8944959640503,4,versionC_stim.csv,RLVersionD.csv,"Relational Version D","Relational, read only version D",END,BEGIN,Study1,S,54,12,Test,User,-,,Recall,Recall2,7277,Finish,36.363636363636,3285,4694,0,0,,1
5efe07ae5c74040d238693ce,5kcs3zlti1,"Deep vs Shallow",1,340,2020-07-08T15:20:07-07:00,4.5952820777893,4,versionC_stim.csv,RLVersionD.csv,"Relational Version D","Relational, read only version D",BUSINESS,DEATH,Study1,U,72,54,Test,User,-,,Recall,Recall2,3968,Case,22.222222222222,2358,2965,0,0,,1
5efe07ae5c74040d238693ce,5kcs3zlti1,"Deep vs Shallow",1,341,2020-07-08T15:20:16-07:00,9.6285300254822,4,versionC_stim.csv,RLVersionD.csv,"Relational Version D","Relational, read only version D",CHILD,BABY,Study1,S,64,57,Test,User,-,,Recall,Recall2,8974,Young,22.222222222222,5297,6839,0,0,,1
5efe07ae5c74040d238693ce,5kcs3zlti1,"Deep vs Shallow",1,342,2020-07-08T15:20:28-07:00,11.989393949509,4,versionC_stim.csv,RLVersionD.csv,"Relational Version D","Relational, read only version D",SITE,LOCATION,Study1,S,48,45,Test,User,-,,Recall,Recall2,11471,Building,25,9500,10688,0,0,,1
5efe07ae5c74040d238693ce,5kcs3zlti1,"Deep vs Shallow",1,343,2020-07-08T15:20:36-07:00,8.0825798511505,4,versionC_stim.csv,RLVersionD.csv,"Relational Version D","Relational, read only version D",WOULD,CASH,Study1,U,83,58,Test,User,-,,Recall,Recall2,7467,Did,0,6372,6581,0,0,,1
5efe07ae5c74040d238693ce,5kcs3zlti1,"Deep vs Shallow",1,344,2020-07-08T15:20:42-07:00,5.3262341022491,4,versionC_stim.csv,RLVersionD.csv,"Relational Version D","Relational, read only version D",CARD,CREDIT,Study1,B,23,61,Test,User,-,,Recall,Recall2,4705,Paper,18.181818181818,3277,3843,0,0,,1
