Username,ID,ExperimentName,Session,Trial,Date,TimeDif,"Condition Number","Stimuli File","Order File","Condition Description","Condition Notes",Stimuli*Cue,Stimuli*Answer,Stimuli*Shuffle,"Stimuli*Stimuli Notes",Stimuli*Value,Procedure*Item,"Procedure*Trial Type","Procedure*Max Time","Procedure*Min Time",Procedure*Text,"Procedure*Procedure Notes",Procedure*Shuffle,Response*RT,Response*Response,Response*Accuracy,Response*RTfirst,Response*RTlast,Response*strictAcc,Response*lenientAcc,Response*focus,Response*Focus
10026703_CEM,m2icao3lxi,Relational_NO_JOL,1,1,2020-05-05T16:24:12-07:00,11.799681186676,4,versionC_stim.csv,READVersionD.csv,"Read Version D","Relational, read only version D",,,,,,0,Instruct,-,10,"In this section, you will be presented with a series of word pairs. Please study both items in the pair.",,Instruct13,11549,,,-1,-1,,,,1
10026703_CEM,m2icao3lxi,Relational_NO_JOL,1,2,2020-05-05T16:24:28-07:00,15.946642875671,4,versionC_stim.csv,READVersionD.csv,"Read Version D","Relational, read only version D",,,,,,0,Instruct,-,15,"As you study, please think about how the two concepts are RELATED to each other. For example, if you see the pair TURTLE-CAT, think about how both are alive, they are both animals, and both can be kept as pets.",,Instruct19,15603,,,-1,-1,,,,1
10026703_CEM,m2icao3lxi,Relational_NO_JOL,1,3,2020-05-05T16:25:49-07:00,80.545196056366,4,versionC_stim.csv,READVersionD.csv,"Read Version D","Relational, read only version D",,,,,,0,FreeRecall,-,10,"What you should think about as you study each item pair? Type your response in the box below.",,CHECK1,80132,"how they are related",0,71486,78359,0,0,,1
10026703_CEM,m2icao3lxi,Relational_NO_JOL,1,4,2020-05-05T16:25:52-07:00,3.007416009903,4,versionC_stim.csv,READVersionD.csv,"Read Version D","Relational, read only version D",,,,,,0,Instruct,User,-,"You will now begin the experiment. Press ENTER when you are ready to begin.",,Instruct000,2702,,,-1,-1,,,,1
10026703_CEM,m2icao3lxi,Relational_NO_JOL,1,5,2020-05-05T16:26:14-07:00,22.49827504158,4,versionC_stim.csv,READVersionD.csv,"Read Version D","Relational, read only version D",POTATO,CARROT,BUFFER3,Buffer,91,92,Study,User,-,,Study/JOL,BUFFER,22137,,,-1,-1,,,,1
10026703_CEM,m2icao3lxi,Relational_NO_JOL,1,6,2020-05-05T16:26:19-07:00,4.7697489261627,4,versionC_stim.csv,READVersionD.csv,"Read Version D","Relational, read only version D",ADVENTURE,CAMP,BUFFER3,Buffer,95,96,Study,User,-,,Study/JOL,BUFFER,4467,,,-1,-1,,,,1
10026703_CEM,m2icao3lxi,Relational_NO_JOL,1,7,2020-05-05T16:26:21-07:00,1.9613440036774,4,versionC_stim.csv,READVersionD.csv,"Read Version D","Relational, read only version D",FROZEN,ICE,BUFFER3,Buffer,94,95,Study,User,-,,Study/JOL,BUFFER,1679,,,-1,-1,,,,1
10026703_CEM,m2icao3lxi,Relational_NO_JOL,1,8,2020-05-05T16:26:22-07:00,1.1954600811005,4,versionC_stim.csv,READVersionD.csv,"Read Version D","Relational, read only version D",STRING,NOODLE,BUFFER3,Buffer,92,93,Study,User,-,,Study/JOL,BUFFER,915,,,-1,-1,,,,1
10026703_CEM,m2icao3lxi,Relational_NO_JOL,1,9,2020-05-05T16:26:23-07:00,0.84339380264282,4,versionC_stim.csv,READVersionD.csv,"Read Version D","Relational, read only version D",FISH,SHRIMP,BUFFER3,Buffer,93,94,Study,User,-,,Study/JOL,BUFFER,563,,,-1,-1,,,,1
10026703_CEM,m2icao3lxi,Relational_NO_JOL,1,10,2020-05-05T16:26:24-07:00,1.2716491222382,4,versionC_stim.csv,READVersionD.csv,"Read Version D","Relational, read only version D",ABLE,CRACKLE,Study2,U,162,144,Study,User,-,,Study/JOL,"Study Phase",990,,,-1,-1,,,,1
10026703_CEM,m2icao3lxi,Relational_NO_JOL,1,11,2020-05-05T16:26:26-07:00,1.5166029930115,4,versionC_stim.csv,READVersionD.csv,"Read Version D","Relational, read only version D",AWAY,GONE,Study2,S,142,164,Study,User,-,,Study/JOL,"Study Phase",1226,,,-1,-1,,,,1
10026703_CEM,m2icao3lxi,Relational_NO_JOL,1,12,2020-05-05T16:26:28-07:00,1.8898959159851,4,versionC_stim.csv,READVersionD.csv,"Read Version D","Relational, read only version D",THIMBLE,THREAD,Study2,F,121,131,Study,User,-,,Study/JOL,"Study Phase",1622,,,-1,-1,,,,1
10026703_CEM,m2icao3lxi,Relational_NO_JOL,1,13,2020-05-05T16:26:29-07:00,1.3742270469666,4,versionC_stim.csv,READVersionD.csv,"Read Version D","Relational, read only version D",HEAD,SCALP,Study2,B,105,162,Study,User,-,,Study/JOL,"Study Phase",1101,,,-1,-1,,,,1
10026703_CEM,m2icao3lxi,Relational_NO_JOL,1,14,2020-05-05T16:26:31-07:00,1.7172610759735,4,versionC_stim.csv,READVersionD.csv,"Read Version D","Relational, read only version D",CLOTHES,CAKE,Study2,U,166,114,Study,User,-,,Study/JOL,"Study Phase",1450,,,-1,-1,,,,1
10026703_CEM,m2icao3lxi,Relational_NO_JOL,1,15,2020-05-05T16:26:32-07:00,1.552521944046,4,versionC_stim.csv,READVersionD.csv,"Read Version D","Relational, read only version D",TOIL,LEASE,Study2,U,170,137,Study,User,-,,Study/JOL,"Study Phase",1274,,,-1,-1,,,,1
10026703_CEM,m2icao3lxi,Relational_NO_JOL,1,16,2020-05-05T16:26:34-07:00,1.4178071022034,4,versionC_stim.csv,READVersionD.csv,"Read Version D","Relational, read only version D",GAME,CLUE,Study2,B,97,138,Study,User,-,,Study/JOL,"Study Phase",1124,,,-1,-1,,,,1
10026703_CEM,m2icao3lxi,Relational_NO_JOL,1,17,2020-05-05T16:26:35-07:00,1.331221818924,4,versionC_stim.csv,READVersionD.csv,"Read Version D","Relational, read only version D",JOKE,KEYS,Study2,U,165,176,Study,User,-,,Study/JOL,"Study Phase",1046,,,-1,-1,,,,1
10026703_CEM,m2icao3lxi,Relational_NO_JOL,1,18,2020-05-05T16:26:37-07:00,2.0342721939087,4,versionC_stim.csv,READVersionD.csv,"Read Version D","Relational, read only version D",SHAVE,RAZOR,Study2,S,136,99,Study,User,-,,Study/JOL,"Study Phase",1758,,,-1,-1,,,,1
10026703_CEM,m2icao3lxi,Relational_NO_JOL,1,19,2020-05-05T16:26:39-07:00,1.491024017334,4,versionC_stim.csv,READVersionD.csv,"Read Version D","Relational, read only version D",VILLAIN,BAD,Study2,F,118,134,Study,User,-,,Study/JOL,"Study Phase",1213,,,-1,-1,,,,1
10026703_CEM,m2icao3lxi,Relational_NO_JOL,1,20,2020-05-05T16:26:40-07:00,1.3995368480682,4,versionC_stim.csv,READVersionD.csv,"Read Version D","Relational, read only version D",PAPER,DOCUMENT,Study2,B,109,106,Study,User,-,,Study/JOL,"Study Phase",1125,,,-1,-1,,,,1
10026703_CEM,m2icao3lxi,Relational_NO_JOL,1,21,2020-05-05T16:26:41-07:00,1.4117150306702,4,versionC_stim.csv,READVersionD.csv,"Read Version D","Relational, read only version D",COFFIN,DEAD,Study2,F,128,132,Study,User,-,,Study/JOL,"Study Phase",1139,,,-1,-1,,,,1
10026703_CEM,m2icao3lxi,Relational_NO_JOL,1,22,2020-05-05T16:26:43-07:00,1.3243660926819,4,versionC_stim.csv,READVersionD.csv,"Read Version D","Relational, read only version D",FLIP,TURN,Study2,F,116,165,Study,User,-,,Study/JOL,"Study Phase",1058,,,-1,-1,,,,1
10026703_CEM,m2icao3lxi,Relational_NO_JOL,1,23,2020-05-05T16:26:44-07:00,1.3428778648376,4,versionC_stim.csv,READVersionD.csv,"Read Version D","Relational, read only version D",BANKER,MONEY,Study2,F,132,145,Study,User,-,,Study/JOL,"Study Phase",1058,,,-1,-1,,,,1
10026703_CEM,m2icao3lxi,Relational_NO_JOL,1,24,2020-05-05T16:26:46-07:00,1.447026014328,4,versionC_stim.csv,READVersionD.csv,"Read Version D","Relational, read only version D",SMELL,INCENSE,Study2,B,110,108,Study,User,-,,Study/JOL,"Study Phase",1158,,,-1,-1,,,,1
10026703_CEM,m2icao3lxi,Relational_NO_JOL,1,25,2020-05-05T16:26:48-07:00,2.6464581489563,4,versionC_stim.csv,READVersionD.csv,"Read Version D","Relational, read only version D",OBTAIN,MEAT,Study2,U,161,140,Study,User,-,,Study/JOL,"Study Phase",2351,,,-1,-1,,,,1
10026703_CEM,m2icao3lxi,Relational_NO_JOL,1,26,2020-05-05T16:26:50-07:00,1.5742897987366,4,versionC_stim.csv,READVersionD.csv,"Read Version D","Relational, read only version D",TRUTHFUL,HONEST,Study2,F,133,100,Study,User,-,,Study/JOL,"Study Phase",1298,,,-1,-1,,,,1
10026703_CEM,m2icao3lxi,Relational_NO_JOL,1,27,2020-05-05T16:26:51-07:00,1.6862809658051,4,versionC_stim.csv,READVersionD.csv,"Read Version D","Relational, read only version D",OUNCE,BOTH,Study2,U,172,109,Study,User,-,,Study/JOL,"Study Phase",1410,,,-1,-1,,,,1
10026703_CEM,m2icao3lxi,Relational_NO_JOL,1,28,2020-05-05T16:26:53-07:00,1.3527300357819,4,versionC_stim.csv,READVersionD.csv,"Read Version D","Relational, read only version D",GROUND,EARTH,Study2,S,144,115,Study,User,-,,Study/JOL,"Study Phase",1081,,,-1,-1,,,,1
10026703_CEM,m2icao3lxi,Relational_NO_JOL,1,29,2020-05-05T16:26:54-07:00,1.2374861240387,4,versionC_stim.csv,READVersionD.csv,"Read Version D","Relational, read only version D",RED,CHERRY,Study2,B,104,97,Study,User,-,,Study/JOL,"Study Phase",952,,,-1,-1,,,,1
10026703_CEM,m2icao3lxi,Relational_NO_JOL,1,30,2020-05-05T16:26:55-07:00,1.0107278823853,4,versionC_stim.csv,READVersionD.csv,"Read Version D","Relational, read only version D",FAVORITE,BEST,Study2,F,125,170,Study,User,-,,Study/JOL,"Study Phase",727,,,-1,-1,,,,1
10026703_CEM,m2icao3lxi,Relational_NO_JOL,1,31,2020-05-05T16:26:56-07:00,0.83577013015747,4,versionC_stim.csv,READVersionD.csv,"Read Version D","Relational, read only version D",JAR,MASON,Study2,S,138,133,Study,User,-,,Study/JOL,"Study Phase",557,,,-1,-1,,,,1
10026703_CEM,m2icao3lxi,Relational_NO_JOL,1,32,2020-05-05T16:26:57-07:00,0.66803288459778,4,versionC_stim.csv,READVersionD.csv,"Read Version D","Relational, read only version D",CLOTH,STRETCH,Study2,U,157,150,Study,User,-,,Study/JOL,"Study Phase",376,,,-1,-1,,,,1
10026703_CEM,m2icao3lxi,Relational_NO_JOL,1,33,2020-05-05T16:26:58-07:00,1.7762889862061,4,versionC_stim.csv,READVersionD.csv,"Read Version D","Relational, read only version D",CAR,DRIVER,Study2,B,106,149,Study,User,-,,Study/JOL,"Study Phase",1493,,,-1,-1,,,,1
10026703_CEM,m2icao3lxi,Relational_NO_JOL,1,34,2020-05-05T16:27:00-07:00,1.3397381305695,4,versionC_stim.csv,READVersionD.csv,"Read Version D","Relational, read only version D",LONELY,ALONE,Study2,S,145,127,Study,User,-,,Study/JOL,"Study Phase",1060,,,-1,-1,,,,1
10026703_CEM,m2icao3lxi,Relational_NO_JOL,1,35,2020-05-05T16:27:01-07:00,1.3051500320435,4,versionC_stim.csv,READVersionD.csv,"Read Version D","Relational, read only version D",COMMUNICATION,PHONE,Study2,S,149,135,Study,User,-,,Study/JOL,"Study Phase",1026,,,-1,-1,,,,1
10026703_CEM,m2icao3lxi,Relational_NO_JOL,1,36,2020-05-05T16:27:03-07:00,1.663290977478,4,versionC_stim.csv,READVersionD.csv,"Read Version D","Relational, read only version D",TRASH,LITTER,Study2,B,103,141,Study,User,-,,Study/JOL,"Study Phase",1385,,,-1,-1,,,,1
10026703_CEM,m2icao3lxi,Relational_NO_JOL,1,37,2020-05-05T16:27:04-07:00,1.1009030342102,4,versionC_stim.csv,READVersionD.csv,"Read Version D","Relational, read only version D",NOISE,LOUD,Study2,S,152,105,Study,User,-,,Study/JOL,"Study Phase",821,,,-1,-1,,,,1
10026703_CEM,m2icao3lxi,Relational_NO_JOL,1,38,2020-05-05T16:27:05-07:00,1.569611787796,4,versionC_stim.csv,READVersionD.csv,"Read Version D","Relational, read only version D",LONG,EXTENSION,Study2,B,96,151,Study,User,-,,Study/JOL,"Study Phase",1269,,,-1,-1,,,,1
10026703_CEM,m2icao3lxi,Relational_NO_JOL,1,39,2020-05-05T16:27:07-07:00,1.3533101081848,4,versionC_stim.csv,READVersionD.csv,"Read Version D","Relational, read only version D",TEMPER,TANTRUM,Study2,S,154,120,Study,User,-,,Study/JOL,"Study Phase",1072,,,-1,-1,,,,1
10026703_CEM,m2icao3lxi,Relational_NO_JOL,1,40,2020-05-05T16:27:08-07:00,1.0895159244537,4,versionC_stim.csv,READVersionD.csv,"Read Version D","Relational, read only version D",ELECTION,MAZE,Study2,U,159,113,Study,User,-,,Study/JOL,"Study Phase",809,,,-1,-1,,,,1
10026703_CEM,m2icao3lxi,Relational_NO_JOL,1,41,2020-05-05T16:27:09-07:00,1.2017240524292,4,versionC_stim.csv,READVersionD.csv,"Read Version D","Relational, read only version D",CUT,CHOP,Study2,B,107,171,Study,User,-,,Study/JOL,"Study Phase",919,,,-1,-1,,,,1
10026703_CEM,m2icao3lxi,Relational_NO_JOL,1,42,2020-05-05T16:27:10-07:00,1.1135239601135,4,versionC_stim.csv,READVersionD.csv,"Read Version D","Relational, read only version D",DONKEY,MULE,Study2,B,108,107,Study,User,-,,Study/JOL,"Study Phase",841,,,-1,-1,,,,1
10026703_CEM,m2icao3lxi,Relational_NO_JOL,1,43,2020-05-05T16:27:11-07:00,1.2344000339508,4,versionC_stim.csv,READVersionD.csv,"Read Version D","Relational, read only version D",ACTRESS,STAR,Study2,F,120,123,Study,User,-,,Study/JOL,"Study Phase",955,,,-1,-1,,,,1
10026703_CEM,m2icao3lxi,Relational_NO_JOL,1,44,2020-05-05T16:27:16-07:00,4.3738350868225,4,versionC_stim.csv,READVersionD.csv,"Read Version D","Relational, read only version D",,,,,,0,Instruct,-,3,"Remember to focus on how the two items are similiar while you study!",,CHECK2,4094,,,-1,-1,,,,1
10026703_CEM,m2icao3lxi,Relational_NO_JOL,1,45,2020-05-05T16:27:18-07:00,2.1991119384766,4,versionC_stim.csv,READVersionD.csv,"Read Version D","Relational, read only version D",COLD,CHILL,Study2,B,114,159,Study,User,-,,Study/JOL,"Study Phase",1908,,,-1,-1,,,,1
10026703_CEM,m2icao3lxi,Relational_NO_JOL,1,46,2020-05-05T16:27:19-07:00,1.3667089939117,4,versionC_stim.csv,READVersionD.csv,"Read Version D","Relational, read only version D",REVENGE,EVEN,Study2,F,122,163,Study,User,-,,Study/JOL,"Study Phase",1095,,,-1,-1,,,,1
10026703_CEM,m2icao3lxi,Relational_NO_JOL,1,47,2020-05-05T16:27:21-07:00,1.8724839687347,4,versionC_stim.csv,READVersionD.csv,"Read Version D","Relational, read only version D",PENGUIN,BIRD,Study2,F,119,167,Study,User,-,,Study/JOL,"Study Phase",1599,,,-1,-1,,,,1
10026703_CEM,m2icao3lxi,Relational_NO_JOL,1,48,2020-05-05T16:27:23-07:00,1.9217779636383,4,versionC_stim.csv,READVersionD.csv,"Read Version D","Relational, read only version D",DOG,FURRY,Study2,B,102,161,Study,User,-,,Study/JOL,"Study Phase",1644,,,-1,-1,,,,1
10026703_CEM,m2icao3lxi,Relational_NO_JOL,1,49,2020-05-05T16:27:25-07:00,1.4879651069641,4,versionC_stim.csv,READVersionD.csv,"Read Version D","Relational, read only version D",BRAWL,FIGHT,Study2,F,135,175,Study,User,-,,Study/JOL,"Study Phase",1205,,,-1,-1,,,,1
10026703_CEM,m2icao3lxi,Relational_NO_JOL,1,50,2020-05-05T16:27:26-07:00,1.5242669582367,4,versionC_stim.csv,READVersionD.csv,"Read Version D","Relational, read only version D",AIRCRAFT,PLANE,Study2,F,129,166,Study,User,-,,Study/JOL,"Study Phase",1238,,,-1,-1,,,,1
10026703_CEM,m2icao3lxi,Relational_NO_JOL,1,51,2020-05-05T16:27:27-07:00,1.2775521278381,4,versionC_stim.csv,READVersionD.csv,"Read Version D","Relational, read only version D",BANG,FUZZY,Study2,U,168,152,Study,User,-,,Study/JOL,"Study Phase",1007,,,-1,-1,,,,1
10026703_CEM,m2icao3lxi,Relational_NO_JOL,1,52,2020-05-05T16:27:29-07:00,1.5041749477386,4,versionC_stim.csv,READVersionD.csv,"Read Version D","Relational, read only version D",PANTHER,CAT,Study2,F,126,117,Study,User,-,,Study/JOL,"Study Phase",1239,,,-1,-1,,,,1
10026703_CEM,m2icao3lxi,Relational_NO_JOL,1,53,2020-05-05T16:27:30-07:00,1.4716079235077,4,versionC_stim.csv,READVersionD.csv,"Read Version D","Relational, read only version D",BRACELET,WRIST,Study2,S,140,130,Study,User,-,,Study/JOL,"Study Phase",1186,,,-1,-1,,,,1
10026703_CEM,m2icao3lxi,Relational_NO_JOL,1,54,2020-05-05T16:27:32-07:00,1.8007678985596,4,versionC_stim.csv,READVersionD.csv,"Read Version D","Relational, read only version D",SCISSORS,SHEARS,Study2,B,112,136,Study,User,-,,Study/JOL,"Study Phase",1528,,,-1,-1,,,,1
10026703_CEM,m2icao3lxi,Relational_NO_JOL,1,55,2020-05-05T16:27:34-07:00,1.5280020236969,4,versionC_stim.csv,READVersionD.csv,"Read Version D","Relational, read only version D",WET,DRY,Study2,S,146,103,Study,User,-,,Study/JOL,"Study Phase",1256,,,-1,-1,,,,1
10026703_CEM,m2icao3lxi,Relational_NO_JOL,1,56,2020-05-05T16:27:35-07:00,1.3900790214539,4,versionC_stim.csv,READVersionD.csv,"Read Version D","Relational, read only version D",STRAWBERRY,FRUIT,Study2,F,124,101,Study,User,-,,Study/JOL,"Study Phase",1099,,,-1,-1,,,,1
10026703_CEM,m2icao3lxi,Relational_NO_JOL,1,57,2020-05-05T16:27:36-07:00,1.3554260730743,4,versionC_stim.csv,READVersionD.csv,"Read Version D","Relational, read only version D",CARBON,ELEMENT,Study2,S,141,148,Study,User,-,,Study/JOL,"Study Phase",1081,,,-1,-1,,,,1
10026703_CEM,m2icao3lxi,Relational_NO_JOL,1,58,2020-05-05T16:27:37-07:00,1.0922720432281,4,versionC_stim.csv,READVersionD.csv,"Read Version D","Relational, read only version D",WINDSHIELD,CAR,Study2,F,117,174,Study,User,-,,Study/JOL,"Study Phase",813,,,-1,-1,,,,1
10026703_CEM,m2icao3lxi,Relational_NO_JOL,1,59,2020-05-05T16:27:39-07:00,1.1096339225769,4,versionC_stim.csv,READVersionD.csv,"Read Version D","Relational, read only version D",Morning,TEMPERATURE,Study2,U,173,155,Study,User,-,,Study/JOL,"Study Phase",835,,,-1,-1,,,,1
10026703_CEM,m2icao3lxi,Relational_NO_JOL,1,60,2020-05-05T16:27:40-07:00,1.1243290901184,4,versionC_stim.csv,READVersionD.csv,"Read Version D","Relational, read only version D",END,ADJOURN,Study2,B,101,121,Study,User,-,,Study/JOL,"Study Phase",845,,,-1,-1,,,,1
10026703_CEM,m2icao3lxi,Relational_NO_JOL,1,61,2020-05-05T16:27:41-07:00,1.4200830459595,4,versionC_stim.csv,READVersionD.csv,"Read Version D","Relational, read only version D",CHILDREN,MIRROR,Study2,U,174,146,Study,User,-,,Study/JOL,"Study Phase",1138,,,-1,-1,,,,1
10026703_CEM,m2icao3lxi,Relational_NO_JOL,1,62,2020-05-05T16:27:42-07:00,1.100026845932,4,versionC_stim.csv,READVersionD.csv,"Read Version D","Relational, read only version D",SARDINE,FISH,Study2,F,130,124,Study,User,-,,Study/JOL,"Study Phase",823,,,-1,-1,,,,1
10026703_CEM,m2icao3lxi,Relational_NO_JOL,1,63,2020-05-05T16:27:43-07:00,1.1748850345612,4,versionC_stim.csv,READVersionD.csv,"Read Version D","Relational, read only version D",MYSTERY,DETECTIVE,Study2,B,100,168,Study,User,-,,Study/JOL,"Study Phase",897,,,-1,-1,,,,1
10026703_CEM,m2icao3lxi,Relational_NO_JOL,1,64,2020-05-05T16:27:44-07:00,0.91700196266174,4,versionC_stim.csv,READVersionD.csv,"Read Version D","Relational, read only version D",BALLOON,POP,Study2,F,123,153,Study,User,-,,Study/JOL,"Study Phase",645,,,-1,-1,,,,1
10026703_CEM,m2icao3lxi,Relational_NO_JOL,1,65,2020-05-05T16:27:46-07:00,1.2099511623383,4,versionC_stim.csv,READVersionD.csv,"Read Version D","Relational, read only version D",EQUAL,RIGHTS,Study2,S,137,98,Study,User,-,,Study/JOL,"Study Phase",935,,,-1,-1,,,,1
10026703_CEM,m2icao3lxi,Relational_NO_JOL,1,66,2020-05-05T16:27:47-07:00,1.0071649551392,4,versionC_stim.csv,READVersionD.csv,"Read Version D","Relational, read only version D",FICTION,LISTEN,Study2,U,164,116,Study,User,-,,Study/JOL,"Study Phase",708,,,-1,-1,,,,1
10026703_CEM,m2icao3lxi,Relational_NO_JOL,1,67,2020-05-05T16:27:47-07:00,0.88665795326233,4,versionC_stim.csv,READVersionD.csv,"Read Version D","Relational, read only version D",NAP,SLEEP,Study2,F,134,157,Study,User,-,,Study/JOL,"Study Phase",607,,,-1,-1,,,,1
10026703_CEM,m2icao3lxi,Relational_NO_JOL,1,68,2020-05-05T16:27:49-07:00,1.0721700191498,4,versionC_stim.csv,READVersionD.csv,"Read Version D","Relational, read only version D",STEAK,GIVE,Study2,U,158,169,Study,User,-,,Study/JOL,"Study Phase",795,,,-1,-1,,,,1
10026703_CEM,m2icao3lxi,Relational_NO_JOL,1,69,2020-05-05T16:27:49-07:00,0.91427493095398,4,versionC_stim.csv,READVersionD.csv,"Read Version D","Relational, read only version D",BREAKABLE,GLASS,Study2,F,127,142,Study,User,-,,Study/JOL,"Study Phase",644,,,-1,-1,,,,1
10026703_CEM,m2icao3lxi,Relational_NO_JOL,1,70,2020-05-05T16:27:50-07:00,1.07182097435,4,versionC_stim.csv,READVersionD.csv,"Read Version D","Relational, read only version D",WAX,CANDLE,Study2,S,139,118,Study,User,-,,Study/JOL,"Study Phase",786,,,-1,-1,,,,1
10026703_CEM,m2icao3lxi,Relational_NO_JOL,1,71,2020-05-05T16:27:52-07:00,1.1981291770935,4,versionC_stim.csv,READVersionD.csv,"Read Version D","Relational, read only version D",SIGN,LOAN,Study2,U,171,125,Study,User,-,,Study/JOL,"Study Phase",904,,,-1,-1,,,,1
10026703_CEM,m2icao3lxi,Relational_NO_JOL,1,72,2020-05-05T16:27:53-07:00,1.2189159393311,4,versionC_stim.csv,READVersionD.csv,"Read Version D","Relational, read only version D",TIE,SHOELACE,Study2,B,99,143,Study,User,-,,Study/JOL,"Study Phase",944,,,-1,-1,,,,1
10026703_CEM,m2icao3lxi,Relational_NO_JOL,1,73,2020-05-05T16:27:54-07:00,1.3440618515015,4,versionC_stim.csv,READVersionD.csv,"Read Version D","Relational, read only version D",HATE,NAME,Study2,U,167,112,Study,User,-,,Study/JOL,"Study Phase",1062,,,-1,-1,,,,1
10026703_CEM,m2icao3lxi,Relational_NO_JOL,1,74,2020-05-05T16:27:56-07:00,1.3702960014343,4,versionC_stim.csv,READVersionD.csv,"Read Version D","Relational, read only version D",LEAGUE,BASEBALL,Study2,F,131,129,Study,User,-,,Study/JOL,"Study Phase",1098,,,-1,-1,,,,1
10026703_CEM,m2icao3lxi,Relational_NO_JOL,1,75,2020-05-05T16:27:56-07:00,0.86851215362549,4,versionC_stim.csv,READVersionD.csv,"Read Version D","Relational, read only version D",LIE,TRUTH,Study2,S,148,156,Study,User,-,,Study/JOL,"Study Phase",583,,,-1,-1,,,,1
10026703_CEM,m2icao3lxi,Relational_NO_JOL,1,76,2020-05-05T16:27:58-07:00,1.1696119308472,4,versionC_stim.csv,READVersionD.csv,"Read Version D","Relational, read only version D",EAT,DINE,Study2,B,111,154,Study,User,-,,Study/JOL,"Study Phase",892,,,-1,-1,,,,1
10026703_CEM,m2icao3lxi,Relational_NO_JOL,1,77,2020-05-05T16:27:59-07:00,1.4901280403137,4,versionC_stim.csv,READVersionD.csv,"Read Version D","Relational, read only version D",MAROON,JUSTICE,Study2,U,156,126,Study,User,-,,Study/JOL,"Study Phase",1222,,,-1,-1,,,,1
10026703_CEM,m2icao3lxi,Relational_NO_JOL,1,78,2020-05-05T16:28:00-07:00,1.183867931366,4,versionC_stim.csv,READVersionD.csv,"Read Version D","Relational, read only version D",CLEAR,MOAT,Study2,U,169,173,Study,User,-,,Study/JOL,"Study Phase",911,,,-1,-1,,,,1
10026703_CEM,m2icao3lxi,Relational_NO_JOL,1,79,2020-05-05T16:28:01-07:00,1.09321808815,4,versionC_stim.csv,READVersionD.csv,"Read Version D","Relational, read only version D",HAVE,OWN,Study2,S,153,102,Study,User,-,,Study/JOL,"Study Phase",819,,,-1,-1,,,,1
10026703_CEM,m2icao3lxi,Relational_NO_JOL,1,80,2020-05-05T16:28:03-07:00,1.3434789180756,4,versionC_stim.csv,READVersionD.csv,"Read Version D","Relational, read only version D",LOVE,AFFECTION,Study2,B,115,158,Study,User,-,,Study/JOL,"Study Phase",1071,,,-1,-1,,,,1
10026703_CEM,m2icao3lxi,Relational_NO_JOL,1,81,2020-05-05T16:28:04-07:00,1.5233700275421,4,versionC_stim.csv,READVersionD.csv,"Read Version D","Relational, read only version D",CHARM,VEHICLE,Study2,U,160,160,Study,User,-,,Study/JOL,"Study Phase",1248,,,-1,-1,,,,1
10026703_CEM,m2icao3lxi,Relational_NO_JOL,1,82,2020-05-05T16:28:06-07:00,1.2736129760742,4,versionC_stim.csv,READVersionD.csv,"Read Version D","Relational, read only version D",SHAKE,Shell,Study2,U,163,139,Study,User,-,,Study/JOL,"Study Phase",1005,,,-1,-1,,,,1
10026703_CEM,m2icao3lxi,Relational_NO_JOL,1,83,2020-05-05T16:28:08-07:00,2.2034640312195,4,versionC_stim.csv,READVersionD.csv,"Read Version D","Relational, read only version D",TAN,SUN,Study2,S,155,122,Study,User,-,,Study/JOL,"Study Phase",1874,,,-1,-1,,,,1
10026703_CEM,m2icao3lxi,Relational_NO_JOL,1,84,2020-05-05T16:28:09-07:00,1.4111828804016,4,versionC_stim.csv,READVersionD.csv,"Read Version D","Relational, read only version D",PLANT,CACTUS,Study2,B,98,147,Study,User,-,,Study/JOL,"Study Phase",1128,,,-1,-1,,,,1
10026703_CEM,m2icao3lxi,Relational_NO_JOL,1,85,2020-05-05T16:28:11-07:00,1.8771550655365,4,versionC_stim.csv,READVersionD.csv,"Read Version D","Relational, read only version D",FIGHT,FEUD,Study2,B,113,119,Study,User,-,,Study/JOL,"Study Phase",1581,,,-1,-1,,,,1
10026703_CEM,m2icao3lxi,Relational_NO_JOL,1,86,2020-05-05T16:28:13-07:00,1.4512190818787,4,versionC_stim.csv,READVersionD.csv,"Read Version D","Relational, read only version D",DRINK,WATER,Study2,S,143,172,Study,User,-,,Study/JOL,"Study Phase",1168,,,-1,-1,,,,1
10026703_CEM,m2icao3lxi,Relational_NO_JOL,1,87,2020-05-05T16:28:16-07:00,3.4526538848877,4,versionC_stim.csv,READVersionD.csv,"Read Version D","Relational, read only version D",SCAR,MAIN,Study2,U,175,110,Study,User,-,,Study/JOL,"Study Phase",3153,,,-1,-1,,,,1
10026703_CEM,m2icao3lxi,Relational_NO_JOL,1,88,2020-05-05T16:28:22-07:00,5.9930500984192,4,versionC_stim.csv,READVersionD.csv,"Read Version D","Relational, read only version D",SEATBELT,SAFETY,Study2,S,147,104,Study,User,-,,Study/JOL,"Study Phase",5699,,,-1,-1,,,,1
10026703_CEM,m2icao3lxi,Relational_NO_JOL,1,89,2020-05-05T16:28:29-07:00,6.9040100574493,4,versionC_stim.csv,READVersionD.csv,"Read Version D","Relational, read only version D",TICK,FLEA,Study2,S,151,111,Study,User,-,,Study/JOL,"Study Phase",6618,,,-1,-1,,,,1
10026703_CEM,m2icao3lxi,Relational_NO_JOL,1,90,2020-05-05T16:28:30-07:00,1.3178739547729,4,versionC_stim.csv,READVersionD.csv,"Read Version D","Relational, read only version D",REEL,ROD,Study2,S,150,128,Study,User,-,,Study/JOL,"Study Phase",1048,,,-1,-1,,,,1
10026703_CEM,m2icao3lxi,Relational_NO_JOL,1,91,2020-05-05T16:28:31-07:00,1.2354929447174,4,versionC_stim.csv,READVersionD.csv,"Read Version D","Relational, read only version D",YEAR,MONTH,BUFFER4,Buffer,177,179,Study,User,-,,Study/JOL,BUFFER2,954,,,-1,-1,,,,1
10026703_CEM,m2icao3lxi,Relational_NO_JOL,1,92,2020-05-05T16:28:33-07:00,1.6978409290314,4,versionC_stim.csv,READVersionD.csv,"Read Version D","Relational, read only version D",WEAKS,DAYS,BUFFER4,Buffer,176,181,Study,User,-,,Study/JOL,BUFFER2,1407,,,-1,-1,,,,1
10026703_CEM,m2icao3lxi,Relational_NO_JOL,1,93,2020-05-05T16:28:35-07:00,1.6670060157776,4,versionC_stim.csv,READVersionD.csv,"Read Version D","Relational, read only version D",MARCH,SPRING,BUFFER4,Buffer,179,177,Study,User,-,,Study/JOL,BUFFER2,1371,,,-1,-1,,,,1
10026703_CEM,m2icao3lxi,Relational_NO_JOL,1,94,2020-05-05T16:28:36-07:00,1.5787210464478,4,versionC_stim.csv,READVersionD.csv,"Read Version D","Relational, read only version D",SPOOKY,OCTOBER,BUFFER4,Buffer,180,178,Study,User,-,,Study/JOL,BUFFER2,1301,,,-1,-1,,,,1
10026703_CEM,m2icao3lxi,Relational_NO_JOL,1,95,2020-05-05T16:28:38-07:00,1.3768150806427,4,versionC_stim.csv,READVersionD.csv,"Read Version D","Relational, read only version D",SHED,TOOL,BUFFER4,Buffer,178,180,Study,User,-,,Study/JOL,BUFFER2,1083,,,-1,-1,,,,1
10026703_CEM,m2icao3lxi,Relational_NO_JOL,1,96,2020-05-05T16:28:40-07:00,2.0199298858643,4,versionC_stim.csv,READVersionD.csv,"Read Version D","Relational, read only version D",,,,,,0,Instruct,User,-,"You have completed this section. Please press Enter.",Filler_Instruction,Instruct2,1749,,,-1,-1,,,,1
10026703_CEM,m2icao3lxi,Relational_NO_JOL,1,97,2020-05-05T16:28:41-07:00,1.6726911067963,4,versionC_stim.csv,READVersionD.csv,"Read Version D","Relational, read only version D",,,,,,0,Instruct,User,-,"You have completed this section. Please press Enter.",Filler_Instruction,Instruct5,1389,,,-1,-1,,,,1
10026703_CEM,m2icao3lxi,Relational_NO_JOL,1,98,2020-05-05T16:29:17-07:00,35.897533893585,4,versionC_stim.csv,READVersionD.csv,"Read Version D","Relational, read only version D",,,,,,0,FreeRecall,-,10,"What were you supposed to focus on while you studied each pair? (Hint: Think back to the instructions). Type your answer in the space below.",,CHECK3,35535,"to see if each pair was connected. most of them were considering they were synonyms or the same thing. ",0,5710,34056,0,0,,1
10026703_CEM,m2icao3lxi,Relational_NO_JOL,1,99,2020-05-05T16:31:18-07:00,120.37329316139,4,versionC_stim.csv,READVersionD.csv,"Read Version D","Relational, read only version D",,,,,,0,FreeRecall,120,120,"Please list the 50 US states in alphabetical order. The task will automatically advance to the next screen after two minutes.",,Filler1,120003,"Alabama alaska arizona arkansas california colorado connecticut delware florida georgia hawaii idaho illinois indiana iowa kansas kentucky louisiana maine maryland massachusetts michigan minnesota mississippi missouri montana nebraska nevada new hampshire new jersey new mexic",0,17129,119943,0,0,,1
10026703_CEM,m2icao3lxi,Relational_NO_JOL,1,100,2020-05-05T16:31:32-07:00,14.649365901947,4,versionC_stim.csv,READVersionD.csv,"Read Version D","Relational, read only version D",,,,,,0,Instruct,-,10,"You will now be presented with the first word from each of the previously studied item pairs. Please type the missing word. If you do not know the word, you may guess or press Enter to skip forward to the next pair.",,Instruct3,14248,,,-1,-1,,,,1
10026703_CEM,m2icao3lxi,Relational_NO_JOL,1,101,2020-05-05T16:31:38-07:00,6.1291770935059,4,versionC_stim.csv,READVersionD.csv,"Read Version D","Relational, read only version D",LONELY,ALONE,Study2,S,145,127,Test,User,-,,Recall,Recall1,5830,Isolated,30.769230769231,3002,5577,0,0,,1
10026703_CEM,m2icao3lxi,Relational_NO_JOL,1,102,2020-05-05T16:31:42-07:00,3.1891899108887,4,versionC_stim.csv,READVersionD.csv,"Read Version D","Relational, read only version D",WAX,CANDLE,Study2,S,139,118,Test,User,-,,Recall,Recall1,2880,paper,36.363636363636,1373,2731,0,0,,1
10026703_CEM,m2icao3lxi,Relational_NO_JOL,1,103,2020-05-05T16:31:44-07:00,2.2123339176178,4,versionC_stim.csv,READVersionD.csv,"Read Version D","Relational, read only version D",TAN,SUN,Study2,S,155,122,Test,User,-,,Recall,Recall1,1887,body,0,1325,1665,0,0,,1
10026703_CEM,m2icao3lxi,Relational_NO_JOL,1,104,2020-05-05T16:31:47-07:00,2.7561831474304,4,versionC_stim.csv,READVersionD.csv,"Read Version D","Relational, read only version D",TICK,FLEA,Study2,S,151,111,Test,User,-,,Recall,Recall1,2370,Tok,0,1648,2199,0,0,,1
10026703_CEM,m2icao3lxi,Relational_NO_JOL,1,105,2020-05-05T16:31:50-07:00,3.6290538311005,4,versionC_stim.csv,READVersionD.csv,"Read Version D","Relational, read only version D",REEL,ROD,Study2,S,150,128,Test,User,-,,Recall,Recall1,3342,FIsh,0,2697,3086,0,0,,1
10026703_CEM,m2icao3lxi,Relational_NO_JOL,1,106,2020-05-05T16:31:54-07:00,4.1759331226349,4,versionC_stim.csv,READVersionD.csv,"Read Version D","Relational, read only version D",GAME,CLUE,Study2,B,97,138,Test,User,-,,Recall,Recall1,3884,CONTROLLER,42.857142857143,1684,3488,0,0,,1
10026703_CEM,m2icao3lxi,Relational_NO_JOL,1,107,2020-05-05T16:31:57-07:00,2.3683459758759,4,versionC_stim.csv,READVersionD.csv,"Read Version D","Relational, read only version D",JOKE,KEYS,Study2,U,165,176,Test,User,-,,Recall,Recall1,2062,FUNNY,22.222222222222,1241,1826,0,0,,1
10026703_CEM,m2icao3lxi,Relational_NO_JOL,1,108,2020-05-05T16:32:00-07:00,3.4817368984222,4,versionC_stim.csv,READVersionD.csv,"Read Version D","Relational, read only version D",ABLE,CRACKLE,Study2,U,162,144,Test,User,-,,Recall,Recall1,3123,TO,0,2689,2846,0,0,,1
10026703_CEM,m2icao3lxi,Relational_NO_JOL,1,109,2020-05-05T16:32:03-07:00,2.4005470275879,4,versionC_stim.csv,READVersionD.csv,"Read Version D","Relational, read only version D",EAT,DINE,Study2,B,111,154,Test,User,-,,Recall,Recall1,2094,FOOD,25,1628,1981,0,0,,1
10026703_CEM,m2icao3lxi,Relational_NO_JOL,1,110,2020-05-05T16:32:06-07:00,3.1158661842346,4,versionC_stim.csv,READVersionD.csv,"Read Version D","Relational, read only version D",JAR,MASON,Study2,S,138,133,Test,User,-,,Recall,Recall1,2815,JELLY,0,2078,2594,0,0,,1
10026703_CEM,m2icao3lxi,Relational_NO_JOL,1,111,2020-05-05T16:32:08-07:00,2.2799668312073,4,versionC_stim.csv,READVersionD.csv,"Read Version D","Relational, read only version D",MYSTERY,DETECTIVE,Study2,B,100,168,Test,User,-,,Recall,Recall1,1994,CLUE,30.769230769231,1471,1782,0,0,,1
10026703_CEM,m2icao3lxi,Relational_NO_JOL,1,112,2020-05-05T16:32:10-07:00,2.1001839637756,4,versionC_stim.csv,READVersionD.csv,"Read Version D","Relational, read only version D",DOG,FURRY,Study2,B,102,161,Test,User,-,,Recall,Recall1,1804,BARK,22.222222222222,1232,1531,0,0,,1
10026703_CEM,m2icao3lxi,Relational_NO_JOL,1,113,2020-05-05T16:32:13-07:00,2.3209822177887,4,versionC_stim.csv,READVersionD.csv,"Read Version D","Relational, read only version D",CLOTH,STRETCH,Study2,U,157,150,Test,User,-,,Recall,Recall1,2041,TOWEL,33.333333333333,1422,1849,0,0,,1
10026703_CEM,m2icao3lxi,Relational_NO_JOL,1,114,2020-05-05T16:32:17-07:00,4.0864408016205,4,versionC_stim.csv,READVersionD.csv,"Read Version D","Relational, read only version D",ELECTION,MAZE,Study2,U,159,113,Test,User,-,,Recall,Recall1,3804,PRESIDENT,15.384615384615,1777,3687,0,0,,1
10026703_CEM,m2icao3lxi,Relational_NO_JOL,1,115,2020-05-05T16:32:20-07:00,2.9944050312042,4,versionC_stim.csv,READVersionD.csv,"Read Version D","Relational, read only version D",COMMUNICATION,PHONE,Study2,S,149,135,Test,User,-,,Recall,Recall1,2677,TALK,0,2021,2416,0,0,,1
10026703_CEM,m2icao3lxi,Relational_NO_JOL,1,116,2020-05-05T16:32:21-07:00,1.4697880744934,4,versionC_stim.csv,READVersionD.csv,"Read Version D","Relational, read only version D",DRINK,WATER,Study2,S,143,172,Test,User,-,,Recall,Recall1,1178,,0,-1,-1,0,0,,1
10026703_CEM,m2icao3lxi,Relational_NO_JOL,1,117,2020-05-05T16:32:23-07:00,1.9857950210571,4,versionC_stim.csv,READVersionD.csv,"Read Version D","Relational, read only version D",TRASH,LITTER,Study2,B,103,141,Test,User,-,,Recall,Recall1,1702,CAN,0,1422,1534,0,0,,1
10026703_CEM,m2icao3lxi,Relational_NO_JOL,1,118,2020-05-05T16:32:25-07:00,2.3346748352051,4,versionC_stim.csv,READVersionD.csv,"Read Version D","Relational, read only version D",VILLAIN,BAD,Study2,F,118,134,Test,User,-,,Recall,Recall1,2051,EVIL,0,1376,1861,0,0,,1
10026703_CEM,m2icao3lxi,Relational_NO_JOL,1,119,2020-05-05T16:32:28-07:00,2.654491186142,4,versionC_stim.csv,READVersionD.csv,"Read Version D","Relational, read only version D",STRAWBERRY,FRUIT,Study2,F,124,101,Test,User,-,,Recall,Recall1,2296,FRUIT,100,1375,1727,1,1,,1
10026703_CEM,m2icao3lxi,Relational_NO_JOL,1,120,2020-05-05T16:32:34-07:00,5.7051320075989,4,versionC_stim.csv,READVersionD.csv,"Read Version D","Relational, read only version D",DONKEY,MULE,Study2,B,108,107,Test,User,-,,Recall,Recall1,5274,HORSE,22.222222222222,2142,5089,0,0,,1
10026703_CEM,m2icao3lxi,Relational_NO_JOL,1,121,2020-05-05T16:32:37-07:00,3.2058789730072,4,versionC_stim.csv,READVersionD.csv,"Read Version D","Relational, read only version D",PENGUIN,BIRD,Study2,F,119,167,Test,User,-,,Recall,Recall1,2900,BIRD,100,1334,2059,1,1,,1
10026703_CEM,m2icao3lxi,Relational_NO_JOL,1,122,2020-05-05T16:32:40-07:00,2.5838420391083,4,versionC_stim.csv,READVersionD.csv,"Read Version D","Relational, read only version D",HEAD,SCALP,Study2,B,105,162,Test,User,-,,Recall,Recall1,2188,SKULL,40,1411,2039,0,0,,1
10026703_CEM,m2icao3lxi,Relational_NO_JOL,1,123,2020-05-05T16:32:43-07:00,3.822772026062,4,versionC_stim.csv,READVersionD.csv,"Read Version D","Relational, read only version D",SCAR,MAIN,Study2,U,175,110,Test,User,-,,Recall,Recall1,3515,BODY,0,2998,3301,0,0,,1
10026703_CEM,m2icao3lxi,Relational_NO_JOL,1,124,2020-05-05T16:32:46-07:00,2.5063858032227,4,versionC_stim.csv,READVersionD.csv,"Read Version D","Relational, read only version D",OUNCE,BOTH,Study2,U,172,109,Test,User,-,,Recall,Recall1,2224,POUND,22.222222222222,1250,2111,0,0,,1
10026703_CEM,m2icao3lxi,Relational_NO_JOL,1,125,2020-05-05T16:32:48-07:00,2.3648211956024,4,versionC_stim.csv,READVersionD.csv,"Read Version D","Relational, read only version D",LOVE,AFFECTION,Study2,B,115,158,Test,User,-,,Recall,Recall1,2075,HEART,28.571428571429,1306,1911,0,0,,1
10026703_CEM,m2icao3lxi,Relational_NO_JOL,1,126,2020-05-05T16:32:52-07:00,4.0759289264679,4,versionC_stim.csv,READVersionD.csv,"Read Version D","Relational, read only version D",CARBON,ELEMENT,Study2,S,141,148,Test,User,-,,Recall,Recall1,3715,OXIDE,16.666666666667,2348,3201,0,0,,1
10026703_CEM,m2icao3lxi,Relational_NO_JOL,1,127,2020-05-05T16:32:56-07:00,3.8826479911804,4,versionC_stim.csv,READVersionD.csv,"Read Version D","Relational, read only version D",WET,DRY,Study2,S,146,103,Test,User,-,,Recall,Recall1,3575,DRY,100,3070,3326,1,1,,1
10026703_CEM,m2icao3lxi,Relational_NO_JOL,1,128,2020-05-05T16:32:59-07:00,2.4513580799103,4,versionC_stim.csv,READVersionD.csv,"Read Version D","Relational, read only version D",REVENGE,EVEN,Study2,F,122,163,Test,User,-,,Recall,Recall1,2165,EVEN,100,1607,1980,1,1,,1
10026703_CEM,m2icao3lxi,Relational_NO_JOL,1,129,2020-05-05T16:33:04-07:00,5.4817848205566,4,versionC_stim.csv,READVersionD.csv,"Read Version D","Relational, read only version D",FAVORITE,BEST,Study2,F,125,170,Test,User,-,,Recall,Recall1,5182,FUN,0,4802,5036,0,0,,1
10026703_CEM,m2icao3lxi,Relational_NO_JOL,1,130,2020-05-05T16:33:07-07:00,2.8724150657654,4,versionC_stim.csv,READVersionD.csv,"Read Version D","Relational, read only version D",STEAK,GIVE,Study2,U,158,169,Test,User,-,,Recall,Recall1,2573,KNIFE,44.444444444444,1796,2368,0,0,,1
10026703_CEM,m2icao3lxi,Relational_NO_JOL,1,131,2020-05-05T16:33:09-07:00,2.0907340049744,4,versionC_stim.csv,READVersionD.csv,"Read Version D","Relational, read only version D",GROUND,EARTH,Study2,S,144,115,Test,User,-,,Recall,Recall1,1809,EARTH,100,995,1588,1,1,,1
10026703_CEM,m2icao3lxi,Relational_NO_JOL,1,132,2020-05-05T16:33:11-07:00,1.9102730751038,4,versionC_stim.csv,READVersionD.csv,"Read Version D","Relational, read only version D",OBTAIN,MEAT,Study2,U,161,140,Test,User,-,,Recall,Recall1,1616,MORE,50,1216,1547,0,0,,1
10026703_CEM,m2icao3lxi,Relational_NO_JOL,1,133,2020-05-05T16:33:14-07:00,2.7697260379791,4,versionC_stim.csv,READVersionD.csv,"Read Version D","Relational, read only version D",BREAKABLE,GLASS,Study2,F,127,142,Test,User,-,,Recall,Recall1,2489,SOFT,22.222222222222,1937,2317,0,0,,1
10026703_CEM,m2icao3lxi,Relational_NO_JOL,1,134,2020-05-05T16:33:16-07:00,2.3135178089142,4,versionC_stim.csv,READVersionD.csv,"Read Version D","Relational, read only version D",PAPER,DOCUMENT,Study2,B,109,106,Test,User,-,,Recall,Recall1,2019,PEN,36.363636363636,1649,1833,0,0,,1
10026703_CEM,m2icao3lxi,Relational_NO_JOL,1,135,2020-05-05T16:33:19-07:00,2.5197551250458,4,versionC_stim.csv,READVersionD.csv,"Read Version D","Relational, read only version D",ACTRESS,STAR,Study2,F,120,123,Test,User,-,,Recall,Recall1,2150,ACTOR,44.444444444444,1460,2034,0,0,,1
10026703_CEM,m2icao3lxi,Relational_NO_JOL,1,136,2020-05-05T16:33:25-07:00,5.9749219417572,4,versionC_stim.csv,READVersionD.csv,"Read Version D","Relational, read only version D",SCISSORS,SHEARS,Study2,B,112,136,Test,User,-,,Recall,Recall1,5459,CUT,0,4313,5224,0,0,,1
10026703_CEM,m2icao3lxi,Relational_NO_JOL,1,137,2020-05-05T16:33:50-07:00,24.966278076172,4,versionC_stim.csv,READVersionD.csv,"Read Version D","Relational, read only version D",CLOTHES,CAKE,Study2,U,166,114,Test,User,-,,Recall,Recall1,24604,,0,23088,23251,0,0,,1
10026703_CEM,m2icao3lxi,Relational_NO_JOL,1,138,2020-05-05T16:33:53-07:00,3.3042080402374,4,versionC_stim.csv,READVersionD.csv,"Read Version D","Relational, read only version D",RED,CHERRY,Study2,B,104,97,Test,User,-,,Recall,Recall1,3004,BLUE,20,2449,2888,0,0,,1
10026703_CEM,m2icao3lxi,Relational_NO_JOL,1,139,2020-05-05T16:33:55-07:00,2.0499658584595,4,versionC_stim.csv,READVersionD.csv,"Read Version D","Relational, read only version D",HAVE,OWN,Study2,S,153,102,Test,User,-,,Recall,Recall1,1763,TAKE,0,1224,1611,0,0,,1
10026703_CEM,m2icao3lxi,Relational_NO_JOL,1,140,2020-05-05T16:34:02-07:00,7.2740969657898,4,versionC_stim.csv,READVersionD.csv,"Read Version D","Relational, read only version D",WINDSHIELD,CAR,Study2,F,117,174,Test,User,-,,Recall,Recall1,6991,WATER,50,6374,6827,0,0,,1
10026703_CEM,m2icao3lxi,Relational_NO_JOL,1,141,2020-05-05T16:34:11-07:00,8.7329580783844,4,versionC_stim.csv,READVersionD.csv,"Read Version D","Relational, read only version D",TRUTHFUL,HONEST,Study2,F,133,100,Test,User,-,,Recall,Recall1,8441,TRUTH,18.181818181818,6544,7661,0,0,,1
10026703_CEM,m2icao3lxi,Relational_NO_JOL,1,142,2020-05-05T16:34:13-07:00,2.0626530647278,4,versionC_stim.csv,READVersionD.csv,"Read Version D","Relational, read only version D",BANG,FUZZY,Study2,U,168,152,Test,User,-,,Recall,Recall1,1750,BOOM,0,1112,1621,0,0,,1
10026703_CEM,m2icao3lxi,Relational_NO_JOL,1,143,2020-05-05T16:34:14-07:00,1.135890007019,4,versionC_stim.csv,READVersionD.csv,"Read Version D","Relational, read only version D",NOISE,LOUD,Study2,S,152,105,Test,User,-,,Recall,Recall1,853,,0,-1,-1,0,0,,1
10026703_CEM,m2icao3lxi,Relational_NO_JOL,1,144,2020-05-05T16:34:17-07:00,2.6929969787598,4,versionC_stim.csv,READVersionD.csv,"Read Version D","Relational, read only version D",TEMPER,TANTRUM,Study2,S,154,120,Test,User,-,,Recall,Recall1,2378,TANTRUM,100,1329,2193,1,1,,1
10026703_CEM,m2icao3lxi,Relational_NO_JOL,1,145,2020-05-05T16:34:19-07:00,2.3733329772949,4,versionC_stim.csv,READVersionD.csv,"Read Version D","Relational, read only version D",EQUAL,RIGHTS,Study2,S,137,98,Test,User,-,,Recall,Recall1,2089,EVEN,0,1540,1906,0,0,,1
10026703_CEM,m2icao3lxi,Relational_NO_JOL,1,146,2020-05-05T16:34:21-07:00,2.0738739967346,4,versionC_stim.csv,READVersionD.csv,"Read Version D","Relational, read only version D",LONG,EXTENSION,Study2,B,96,151,Test,User,-,,Recall,Recall1,1783,SHORT,28.571428571429,1294,1633,0,0,,1
10026703_CEM,m2icao3lxi,Relational_NO_JOL,1,147,2020-05-05T16:34:24-07:00,2.2878589630127,4,versionC_stim.csv,READVersionD.csv,"Read Version D","Relational, read only version D",SEATBELT,SAFETY,Study2,S,147,104,Test,User,-,,Recall,Recall1,2000,CAR,22.222222222222,1633,1880,0,0,,1
10026703_CEM,m2icao3lxi,Relational_NO_JOL,1,148,2020-05-05T16:34:28-07:00,4.9050850868225,4,versionC_stim.csv,READVersionD.csv,"Read Version D","Relational, read only version D",CUT,CHOP,Study2,B,107,171,Test,User,-,,Recall,Recall1,4616,THROUGH,36.363636363636,1507,4153,0,0,,1
10026703_CEM,m2icao3lxi,Relational_NO_JOL,1,149,2020-05-05T16:34:32-07:00,3.2506539821625,4,versionC_stim.csv,READVersionD.csv,"Read Version D","Relational, read only version D",FIGHT,FEUD,Study2,B,113,119,Test,User,-,,Recall,Recall1,2963,BRAWL,0,2131,2766,0,0,,1
10026703_CEM,m2icao3lxi,Relational_NO_JOL,1,150,2020-05-05T16:34:34-07:00,2.6619818210602,4,versionC_stim.csv,READVersionD.csv,"Read Version D","Relational, read only version D",SHAKE,Shell,Study2,U,163,139,Test,User,-,,Recall,Recall1,2370,SHAKE,60,1639,1926,0,0,,1
10026703_CEM,m2icao3lxi,Relational_NO_JOL,1,151,2020-05-05T16:34:37-07:00,2.3680160045624,4,versionC_stim.csv,READVersionD.csv,"Read Version D","Relational, read only version D",TIE,SHOELACE,Study2,B,99,143,Test,User,-,,Recall,Recall1,2083,BOW,18.181818181818,1754,1921,0,0,,1
10026703_CEM,m2icao3lxi,Relational_NO_JOL,1,152,2020-05-05T16:34:39-07:00,2.3139622211456,4,versionC_stim.csv,READVersionD.csv,"Read Version D","Relational, read only version D",SHAVE,RAZOR,Study2,S,136,99,Test,User,-,,Recall,Recall1,2033,CLEAN,20,1493,1892,0,0,,1
10026703_CEM,m2icao3lxi,Relational_NO_JOL,1,153,2020-05-05T16:34:43-07:00,3.9748229980469,4,versionC_stim.csv,READVersionD.csv,"Read Version D","Relational, read only version D",LEAGUE,BASEBALL,Study2,F,131,129,Test,User,-,,Recall,Recall1,3613,BASEBALL,100,1186,3405,1,1,,1
10026703_CEM,m2icao3lxi,Relational_NO_JOL,1,154,2020-05-05T16:34:46-07:00,2.8685338497162,4,versionC_stim.csv,READVersionD.csv,"Read Version D","Relational, read only version D",SIGN,LOAN,Study2,U,171,125,Test,User,-,,Recall,Recall1,2565,HAND,50,2079,2377,0,0,,1
10026703_CEM,m2icao3lxi,Relational_NO_JOL,1,155,2020-05-05T16:34:48-07:00,2.053838968277,4,versionC_stim.csv,READVersionD.csv,"Read Version D","Relational, read only version D",AIRCRAFT,PLANE,Study2,F,129,166,Test,User,-,,Recall,Recall1,1742,PLANE,100,1119,1598,1,1,,1
10026703_CEM,m2icao3lxi,Relational_NO_JOL,1,156,2020-05-05T16:34:51-07:00,3.3098001480103,4,versionC_stim.csv,READVersionD.csv,"Read Version D","Relational, read only version D",CLEAR,MOAT,Study2,U,169,173,Test,User,-,,Recall,Recall1,3000,OUT,57.142857142857,2410,2577,0,0,,1
10026703_CEM,m2icao3lxi,Relational_NO_JOL,1,157,2020-05-05T16:34:53-07:00,1.7476849555969,4,versionC_stim.csv,READVersionD.csv,"Read Version D","Relational, read only version D",PANTHER,CAT,Study2,F,126,117,Test,User,-,,Recall,Recall1,1464,CAT,100,1090,1327,1,1,,1
10026703_CEM,m2icao3lxi,Relational_NO_JOL,1,158,2020-05-05T16:34:55-07:00,2.2829790115356,4,versionC_stim.csv,READVersionD.csv,"Read Version D","Relational, read only version D",BANKER,MONEY,Study2,F,132,145,Test,User,-,,Recall,Recall1,1994,BANK,22.222222222222,1426,1762,0,0,,1
10026703_CEM,m2icao3lxi,Relational_NO_JOL,1,159,2020-05-05T16:34:57-07:00,2.1189339160919,4,versionC_stim.csv,READVersionD.csv,"Read Version D","Relational, read only version D",HATE,NAME,Study2,U,167,112,Test,User,-,,Recall,Recall1,1818,LOVE,25,1391,1727,0,0,,1
10026703_CEM,m2icao3lxi,Relational_NO_JOL,1,160,2020-05-05T16:35:01-07:00,3.9669830799103,4,versionC_stim.csv,READVersionD.csv,"Read Version D","Relational, read only version D",LIE,TRUTH,Study2,S,148,156,Test,User,-,,Recall,Recall1,3663,TRUTH,100,2052,3485,1,1,,1
10026703_CEM,m2icao3lxi,Relational_NO_JOL,1,161,2020-05-05T16:35:03-07:00,2.0169539451599,4,versionC_stim.csv,READVersionD.csv,"Read Version D","Relational, read only version D",BALLOON,POP,Study2,F,123,153,Test,User,-,,Recall,Recall1,1727,POP,100,1225,1520,1,1,,1
10026703_CEM,m2icao3lxi,Relational_NO_JOL,1,162,2020-05-05T16:35:06-07:00,2.8233149051666,4,versionC_stim.csv,READVersionD.csv,"Read Version D","Relational, read only version D",FICTION,LISTEN,Study2,U,164,116,Test,User,-,,Recall,Recall1,2527,NON,22.222222222222,1985,2331,0,0,,1
10026703_CEM,m2icao3lxi,Relational_NO_JOL,1,163,2020-05-05T16:35:08-07:00,2.2153232097626,4,versionC_stim.csv,READVersionD.csv,"Read Version D","Relational, read only version D",NAP,SLEEP,Study2,F,134,157,Test,User,-,,Recall,Recall1,1907,TIRED,20,1217,1742,0,0,,1
10026703_CEM,m2icao3lxi,Relational_NO_JOL,1,164,2020-05-05T16:35:13-07:00,4.1593639850616,4,versionC_stim.csv,READVersionD.csv,"Read Version D","Relational, read only version D",PLANT,CACTUS,Study2,B,98,147,Test,User,-,,Recall,Recall1,3809,EARTH,36.363636363636,3072,3632,0,0,,1
10026703_CEM,m2icao3lxi,Relational_NO_JOL,1,165,2020-05-05T16:35:15-07:00,2.7618939876556,4,versionC_stim.csv,READVersionD.csv,"Read Version D","Relational, read only version D",BRAWL,FIGHT,Study2,F,135,175,Test,User,-,,Recall,Recall1,2465,FIGHT,100,986,2156,1,1,,1
10026703_CEM,m2icao3lxi,Relational_NO_JOL,1,166,2020-05-05T16:35:19-07:00,3.2804729938507,4,versionC_stim.csv,READVersionD.csv,"Read Version D","Relational, read only version D",CHILDREN,MIRROR,Study2,U,174,146,Test,User,-,,Recall,Recall1,2980,ADULT,0,2283,2829,0,0,,1
10026703_CEM,m2icao3lxi,Relational_NO_JOL,1,167,2020-05-05T16:35:21-07:00,2.4497938156128,4,versionC_stim.csv,READVersionD.csv,"Read Version D","Relational, read only version D",COFFIN,DEAD,Study2,F,128,132,Test,User,-,,Recall,Recall1,2139,DEATH,66.666666666667,1444,1944,0,0,,1
10026703_CEM,m2icao3lxi,Relational_NO_JOL,1,168,2020-05-05T16:35:23-07:00,2.2159061431885,4,versionC_stim.csv,READVersionD.csv,"Read Version D","Relational, read only version D",Morning,TEMPERATURE,Study2,U,173,155,Test,User,-,,Recall,Recall1,1918,NIGHT,12.5,1394,1748,0,0,,1
10026703_CEM,m2icao3lxi,Relational_NO_JOL,1,169,2020-05-05T16:35:28-07:00,5.0886769294739,4,versionC_stim.csv,READVersionD.csv,"Read Version D","Relational, read only version D",CHARM,VEHICLE,Study2,U,160,160,Test,User,-,,Recall,Recall1,4725,MEN,20,4424,4591,0,0,,1
10026703_CEM,m2icao3lxi,Relational_NO_JOL,1,170,2020-05-05T16:35:31-07:00,2.5965609550476,4,versionC_stim.csv,READVersionD.csv,"Read Version D","Relational, read only version D",AWAY,GONE,Study2,S,142,164,Test,User,-,,Recall,Recall1,2287,CLOSE,44.444444444444,1744,2173,0,0,,1
10026703_CEM,m2icao3lxi,Relational_NO_JOL,1,171,2020-05-05T16:35:36-07:00,4.9508640766144,4,versionC_stim.csv,READVersionD.csv,"Read Version D","Relational, read only version D",MAROON,JUSTICE,Study2,U,156,126,Test,User,-,,Recall,Recall1,4669,RED,20,3168,4527,0,0,,1
10026703_CEM,m2icao3lxi,Relational_NO_JOL,1,172,2020-05-05T16:35:38-07:00,1.7316060066223,4,versionC_stim.csv,READVersionD.csv,"Read Version D","Relational, read only version D",TOIL,LEASE,Study2,U,170,137,Test,User,-,,Recall,Recall1,1450,,0,-1,-1,0,0,,1
10026703_CEM,m2icao3lxi,Relational_NO_JOL,1,173,2020-05-05T16:35:40-07:00,2.7524859905243,4,versionC_stim.csv,READVersionD.csv,"Read Version D","Relational, read only version D",SMELL,INCENSE,Study2,B,110,108,Test,User,-,,Recall,Recall1,2466,,0,1463,1703,0,0,,1
10026703_CEM,m2icao3lxi,Relational_NO_JOL,1,174,2020-05-05T16:35:42-07:00,1.7142910957336,4,versionC_stim.csv,READVersionD.csv,"Read Version D","Relational, read only version D",COLD,CHILL,Study2,B,114,159,Test,User,-,,Recall,Recall1,1408,HOT,25,1081,1264,0,0,,1
10026703_CEM,m2icao3lxi,Relational_NO_JOL,1,175,2020-05-05T16:35:44-07:00,2.217780828476,4,versionC_stim.csv,READVersionD.csv,"Read Version D","Relational, read only version D",SARDINE,FISH,Study2,F,130,124,Test,User,-,,Recall,Recall1,1872,FISH,100,1375,1679,1,1,,1
10026703_CEM,m2icao3lxi,Relational_NO_JOL,1,176,2020-05-05T16:35:48-07:00,3.3563771247864,4,versionC_stim.csv,READVersionD.csv,"Read Version D","Relational, read only version D",THIMBLE,THREAD,Study2,F,121,131,Test,User,-,,Recall,Recall1,2995,TUMBLE,33.333333333333,2072,2874,0,0,,1
10026703_CEM,m2icao3lxi,Relational_NO_JOL,1,177,2020-05-05T16:35:50-07:00,2.3683278560638,4,versionC_stim.csv,READVersionD.csv,"Read Version D","Relational, read only version D",FLIP,TURN,Study2,F,116,165,Test,User,-,,Recall,Recall1,2077,CUP,28.571428571429,1729,1876,0,0,,1
10026703_CEM,m2icao3lxi,Relational_NO_JOL,1,178,2020-05-05T16:35:53-07:00,2.9451780319214,4,versionC_stim.csv,READVersionD.csv,"Read Version D","Relational, read only version D",END,ADJOURN,Study2,B,101,121,Test,User,-,,Recall,Recall1,2635,START,33.333333333333,1766,2493,0,0,,1
10026703_CEM,m2icao3lxi,Relational_NO_JOL,1,179,2020-05-05T16:35:55-07:00,1.9958989620209,4,versionC_stim.csv,READVersionD.csv,"Read Version D","Relational, read only version D",CAR,DRIVER,Study2,B,106,149,Test,User,-,,Recall,Recall1,1703,,0,-1,-1,0,0,,1
10026703_CEM,m2icao3lxi,Relational_NO_JOL,1,180,2020-05-05T16:35:57-07:00,2.3645122051239,4,versionC_stim.csv,READVersionD.csv,"Read Version D","Relational, read only version D",BRACELET,WRIST,Study2,S,140,130,Test,User,-,,Recall,Recall1,2068,WRIST,100,1235,1716,1,1,,1
10026703_CEM,m2icao3lxi,Relational_NO_JOL,1,181,2020-05-05T16:36:29-07:00,31.876317977905,4,versionC_stim.csv,READVersionD.csv,"Read Version D","Relational, read only version D",,,,,,0,Instruct,,10,"You will now be presented with a new set of word pairs. Please study each pair. Remember that your memory will be tested! When finished, press Enter to move to the next pair.",Initial_Instruct,Instruct4,31520,,,-1,-1,,,,1
10026703_CEM,m2icao3lxi,Relational_NO_JOL,1,182,2020-05-05T16:36:53-07:00,23.445670843124,4,versionC_stim.csv,READVersionD.csv,"Read Version D","Relational, read only version D",,,,,,0,Instruct,-,15,"As you study, please think about how the two concepts are RELATED to each other. For example, if you see the pair TURTLE-CAT, think about how both are alive, they are both animals, and both can be kept as pets.",,Instruct20,23066,,,-1,-1,,,,1
10026703_CEM,m2icao3lxi,Relational_NO_JOL,1,183,2020-05-05T16:37:04-07:00,11.347411155701,4,versionC_stim.csv,READVersionD.csv,"Read Version D","Relational, read only version D",,,,,,0,FreeRecall,-,10,"What you should think about as you study each item pair? Type your response in the box below.",,CHECK4,10823,"TO SEE IF THEY ARE RELATED ",0,2714,5636,0,0,,1
10026703_CEM,m2icao3lxi,Relational_NO_JOL,1,184,2020-05-05T16:37:06-07:00,1.8393878936768,4,versionC_stim.csv,READVersionD.csv,"Read Version D","Relational, read only version D",,,,,,0,Instruct,User,-,"Press Enter when you are readty to begin",,Instruct11,1505,,,-1,-1,,,,1
10026703_CEM,m2icao3lxi,Relational_NO_JOL,1,185,2020-05-05T16:37:09-07:00,2.6519370079041,4,versionC_stim.csv,READVersionD.csv,"Read Version D","Relational, read only version D",BUTTER,PEANUT,BUFFER1,Buffer,3,3,Study,User,-,,Study/JOL,BUFFER3,2372,,,-1,-1,,,,1
10026703_CEM,m2icao3lxi,Relational_NO_JOL,1,186,2020-05-05T16:37:10-07:00,1.5005509853363,4,versionC_stim.csv,READVersionD.csv,"Read Version D","Relational, read only version D",CATCHER,BASEBALL,BUFFER1,Buffer,2,2,Study,User,-,,Study/JOL,BUFFER3,1212,,,-1,-1,,,,1
10026703_CEM,m2icao3lxi,Relational_NO_JOL,1,187,2020-05-05T16:37:11-07:00,1.4685599803925,4,versionC_stim.csv,READVersionD.csv,"Read Version D","Relational, read only version D",JAM,SPACE,BUFFER1,Buffer,5,5,Study,User,-,,Study/JOL,BUFFER3,1174,,,-1,-1,,,,1
10026703_CEM,m2icao3lxi,Relational_NO_JOL,1,188,2020-05-05T16:37:13-07:00,1.3974561691284,4,versionC_stim.csv,READVersionD.csv,"Read Version D","Relational, read only version D",GREEN,TREES,BUFFER1,Buffer,1,6,Study,User,-,,Study/JOL,BUFFER3,1111,,,-1,-1,,,,1
10026703_CEM,m2icao3lxi,Relational_NO_JOL,1,189,2020-05-05T16:37:15-07:00,2.4085760116577,4,versionC_stim.csv,READVersionD.csv,"Read Version D","Relational, read only version D",HIDE,SCARE,BUFFER1,Buffer,4,4,Study,User,-,,Study/JOL,BUFFER3,1028,,,-1,-1,,,,1
10026703_CEM,m2icao3lxi,Relational_NO_JOL,1,190,2020-05-05T16:37:19-07:00,4.0552477836609,4,versionC_stim.csv,READVersionD.csv,"Read Version D","Relational, read only version D",TALK,DISCUSSION,Study1,B,21,70,Study,User,-,,Study/JOL,"Study Phase2",3575,,,-1,-1,,,,1
10026703_CEM,m2icao3lxi,Relational_NO_JOL,1,191,2020-05-05T16:37:21-07:00,1.5831480026245,4,versionC_stim.csv,READVersionD.csv,"Read Version D","Relational, read only version D",POSITION,MACHINE,Study1,U,76,62,Study,User,-,,Study/JOL,"Study Phase2",1286,,,-1,-1,,,,1
10026703_CEM,m2icao3lxi,Relational_NO_JOL,1,192,2020-05-05T16:37:24-07:00,2.600161075592,4,versionC_stim.csv,READVersionD.csv,"Read Version D","Relational, read only version D",SACKING,DIETARY,Study1,U,67,54,Study,User,-,,Study/JOL,"Study Phase2",2312,,,-1,-1,,,,1
10026703_CEM,m2icao3lxi,Relational_NO_JOL,1,193,2020-05-05T16:37:26-07:00,2.1392500400543,4,versionC_stim.csv,READVersionD.csv,"Read Version D","Relational, read only version D",COW,HERD,Study1,B,22,25,Study,User,-,,Study/JOL,"Study Phase2",1844,,,-1,-1,,,,1
10026703_CEM,m2icao3lxi,Relational_NO_JOL,1,194,2020-05-05T16:37:27-07:00,1.6910760402679,4,versionC_stim.csv,READVersionD.csv,"Read Version D","Relational, read only version D",SIGHT,DEBATE,Study1,U,73,59,Study,User,-,,Study/JOL,"Study Phase2",1406,,,-1,-1,,,,1
10026703_CEM,m2icao3lxi,Relational_NO_JOL,1,195,2020-05-05T16:37:29-07:00,1.8152298927307,4,versionC_stim.csv,READVersionD.csv,"Read Version D","Relational, read only version D",AMOUNT,NUMBER,Study1,S,47,15,Study,User,-,,Study/JOL,"Study Phase2",1522,,,-1,-1,,,,1
10026703_CEM,m2icao3lxi,Relational_NO_JOL,1,196,2020-05-05T16:37:31-07:00,1.7972660064697,4,versionC_stim.csv,READVersionD.csv,"Read Version D","Relational, read only version D",BEE,HONEY,Study1,S,63,38,Study,User,-,,Study/JOL,"Study Phase2",1503,,,-1,-1,,,,1
10026703_CEM,m2icao3lxi,Relational_NO_JOL,1,197,2020-05-05T16:37:33-07:00,1.7970769405365,4,versionC_stim.csv,READVersionD.csv,"Read Version D","Relational, read only version D",ATTORNEY,LAW,Study1,F,34,40,Study,User,-,,Study/JOL,"Study Phase2",1497,,,-1,-1,,,,1
10026703_CEM,m2icao3lxi,Relational_NO_JOL,1,198,2020-05-05T16:37:35-07:00,1.8584961891174,4,versionC_stim.csv,READVersionD.csv,"Read Version D","Relational, read only version D",FOOT,SHOE,Study1,S,60,31,Study,User,-,,Study/JOL,"Study Phase2",1561,,,-1,-1,,,,1
10026703_CEM,m2icao3lxi,Relational_NO_JOL,1,199,2020-05-05T16:37:37-07:00,2.0604019165039,4,versionC_stim.csv,READVersionD.csv,"Read Version D","Relational, read only version D",STENCH,SMELL,Study1,F,42,69,Study,User,-,,Study/JOL,"Study Phase2",1767,,,-1,-1,,,,1
10026703_CEM,m2icao3lxi,Relational_NO_JOL,1,200,2020-05-05T16:37:38-07:00,1.4411880970001,4,versionC_stim.csv,READVersionD.csv,"Read Version D","Relational, read only version D",ROUND,CIRCLE,Study1,S,65,28,Study,User,-,,Study/JOL,"Study Phase2",1159,,,-1,-1,,,,1
10026703_CEM,m2icao3lxi,Relational_NO_JOL,1,201,2020-05-05T16:37:40-07:00,1.6683177947998,4,versionC_stim.csv,READVersionD.csv,"Read Version D","Relational, read only version D",PLANT,ROOT,Study1,B,13,35,Study,User,-,,Study/JOL,"Study Phase2",1373,,,-1,-1,,,,1
10026703_CEM,m2icao3lxi,Relational_NO_JOL,1,202,2020-05-05T16:37:41-07:00,1.6598701477051,4,versionC_stim.csv,READVersionD.csv,"Read Version D","Relational, read only version D",BAD,DELINQUENT,Study1,B,6,64,Study,User,-,,Study/JOL,"Study Phase2",1355,,,-1,-1,,,,1
10026703_CEM,m2icao3lxi,Relational_NO_JOL,1,203,2020-05-05T16:37:44-07:00,2.878035068512,4,versionC_stim.csv,READVersionD.csv,"Read Version D","Relational, read only version D",TUCK,ALLOW,Study1,U,78,68,Study,User,-,,Study/JOL,"Study Phase2",2579,,,-1,-1,,,,1
10026703_CEM,m2icao3lxi,Relational_NO_JOL,1,204,2020-05-05T16:37:46-07:00,2.0073308944702,4,versionC_stim.csv,READVersionD.csv,"Read Version D","Relational, read only version D",BLAZE,FIRE,Study1,F,45,39,Study,User,-,,Study/JOL,"Study Phase2",1717,,,-1,-1,,,,1
10026703_CEM,m2icao3lxi,Relational_NO_JOL,1,205,2020-05-05T16:37:48-07:00,1.4833490848541,4,versionC_stim.csv,READVersionD.csv,"Read Version D","Relational, read only version D",CHILD,BABY,Study1,S,64,65,Study,User,-,,Study/JOL,"Study Phase2",1201,,,-1,-1,,,,1
10026703_CEM,m2icao3lxi,Relational_NO_JOL,1,206,2020-05-05T16:37:50-07:00,1.9646408557892,4,versionC_stim.csv,READVersionD.csv,"Read Version D","Relational, read only version D",COLD,BITTER,Study1,B,12,12,Study,User,-,,Study/JOL,"Study Phase2",1679,,,-1,-1,,,,1
10026703_CEM,m2icao3lxi,Relational_NO_JOL,1,207,2020-05-05T16:37:51-07:00,1.6272931098938,4,versionC_stim.csv,READVersionD.csv,"Read Version D","Relational, read only version D",BUSINESS,DEATH,Study1,U,72,84,Study,User,-,,Study/JOL,"Study Phase2",1350,,,-1,-1,,,,1
10026703_CEM,m2icao3lxi,Relational_NO_JOL,1,208,2020-05-05T16:37:53-07:00,1.5671708583832,4,versionC_stim.csv,READVersionD.csv,"Read Version D","Relational, read only version D",ADD,VALLEY,Study1,U,82,72,Study,User,-,,Study/JOL,"Study Phase2",1289,,,-1,-1,,,,1
10026703_CEM,m2icao3lxi,Relational_NO_JOL,1,209,2020-05-05T16:37:55-07:00,2.4890131950378,4,versionC_stim.csv,READVersionD.csv,"Read Version D","Relational, read only version D",FLOOR,DISCOVER,Study1,U,71,56,Study,User,-,,Study/JOL,"Study Phase2",2136,,,-1,-1,,,,1
10026703_CEM,m2icao3lxi,Relational_NO_JOL,1,210,2020-05-05T16:37:57-07:00,1.9525618553162,4,versionC_stim.csv,READVersionD.csv,"Read Version D","Relational, read only version D",BAR,GRILL,Study1,S,52,77,Study,User,-,,Study/JOL,"Study Phase2",1661,,,-1,-1,,,,1
10026703_CEM,m2icao3lxi,Relational_NO_JOL,1,211,2020-05-05T16:37:59-07:00,2.079617023468,4,versionC_stim.csv,READVersionD.csv,"Read Version D","Relational, read only version D",BIRD,SWAN,Study1,B,14,24,Study,User,-,,Study/JOL,"Study Phase2",1794,,,-1,-1,,,,1
10026703_CEM,m2icao3lxi,Relational_NO_JOL,1,212,2020-05-05T16:38:02-07:00,2.5058579444885,4,versionC_stim.csv,READVersionD.csv,"Read Version D","Relational, read only version D",SIP,DRINK,Study1,F,27,82,Study,User,-,,Study/JOL,"Study Phase2",2216,,,-1,-1,,,,1
10026703_CEM,m2icao3lxi,Relational_NO_JOL,1,213,2020-05-05T16:38:04-07:00,1.6514220237732,4,versionC_stim.csv,READVersionD.csv,"Read Version D","Relational, read only version D",ASSIGNMENT,DUE,Study1,S,46,34,Study,User,-,,Study/JOL,"Study Phase2",1358,,,-1,-1,,,,1
10026703_CEM,m2icao3lxi,Relational_NO_JOL,1,214,2020-05-05T16:38:10-07:00,6.1400229930878,4,versionC_stim.csv,READVersionD.csv,"Read Version D","Relational, read only version D",CARD,CREDIT,Study1,B,23,51,Study,User,-,,Study/JOL,"Study Phase2",5850,,,-1,-1,,,,1
10026703_CEM,m2icao3lxi,Relational_NO_JOL,1,215,2020-05-05T16:38:12-07:00,1.7927250862122,4,versionC_stim.csv,READVersionD.csv,"Read Version D","Relational, read only version D",CLEAN,HYGIENE,Study1,B,17,44,Study,User,-,,Study/JOL,"Study Phase2",1506,,,-1,-1,,,,1
10026703_CEM,m2icao3lxi,Relational_NO_JOL,1,216,2020-05-05T16:38:13-07:00,1.5889949798584,4,versionC_stim.csv,READVersionD.csv,"Read Version D","Relational, read only version D",FANTASTIC,GREAT,Study1,F,35,45,Study,User,-,,Study/JOL,"Study Phase2",1303,,,-1,-1,,,,1
10026703_CEM,m2icao3lxi,Relational_NO_JOL,1,217,2020-05-05T16:38:15-07:00,1.4651470184326,4,versionC_stim.csv,READVersionD.csv,"Read Version D","Relational, read only version D",WOMAN,LIFT,Study1,U,69,85,Study,User,-,,Study/JOL,"Study Phase2",1184,,,-1,-1,,,,1
10026703_CEM,m2icao3lxi,Relational_NO_JOL,1,218,2020-05-05T16:38:16-07:00,1.3725919723511,4,versionC_stim.csv,READVersionD.csv,"Read Version D","Relational, read only version D",SEIZE,TAKE,Study1,F,29,86,Study,User,-,,Study/JOL,"Study Phase2",1095,,,-1,-1,,,,1
10026703_CEM,m2icao3lxi,Relational_NO_JOL,1,219,2020-05-05T16:38:17-07:00,1.4860019683838,4,versionC_stim.csv,READVersionD.csv,"Read Version D","Relational, read only version D",HAMMER,CHISEL,Study1,B,9,58,Study,User,-,,Study/JOL,"Study Phase2",1206,,,-1,-1,,,,1
10026703_CEM,m2icao3lxi,Relational_NO_JOL,1,220,2020-05-05T16:38:19-07:00,1.6563990116119,4,versionC_stim.csv,READVersionD.csv,"Read Version D","Relational, read only version D",DIVISION,MATH,Study1,F,33,22,Study,User,-,,Study/JOL,"Study Phase2",1375,,,-1,-1,,,,1
10026703_CEM,m2icao3lxi,Relational_NO_JOL,1,221,2020-05-05T16:38:21-07:00,2.0561830997467,4,versionC_stim.csv,READVersionD.csv,"Read Version D","Relational, read only version D",LATCH,KEY,Study1,F,36,42,Study,User,-,,Study/JOL,"Study Phase2",1767,,,-1,-1,,,,1
10026703_CEM,m2icao3lxi,Relational_NO_JOL,1,222,2020-05-05T16:38:23-07:00,1.5583839416504,4,versionC_stim.csv,READVersionD.csv,"Read Version D","Relational, read only version D",DESIGN,ARCHITECTURE,Study1,S,51,19,Study,User,-,,Study/JOL,"Study Phase2",1273,,,-1,-1,,,,1
10026703_CEM,m2icao3lxi,Relational_NO_JOL,1,223,2020-05-05T16:38:24-07:00,1.7078540325165,4,versionC_stim.csv,READVersionD.csv,"Read Version D","Relational, read only version D",PILOT,PLANE,Study1,F,44,43,Study,User,-,,Study/JOL,"Study Phase2",1420,,,-1,-1,,,,1
10026703_CEM,m2icao3lxi,Relational_NO_JOL,1,224,2020-05-05T16:38:31-07:00,6.4745259284973,4,versionC_stim.csv,READVersionD.csv,"Read Version D","Relational, read only version D",,,,,,0,Instruct,-,3,"Remember to focus on how the two items are similiar while you study!",,CHECK5,6193,,,-1,-1,,,,1
10026703_CEM,m2icao3lxi,Relational_NO_JOL,1,225,2020-05-05T16:38:34-07:00,2.8828670978546,4,versionC_stim.csv,READVersionD.csv,"Read Version D","Relational, read only version D",OUT,WAY,Study1,B,16,17,Study,User,-,,Study/JOL,"Study Phase2",2562,,,-1,-1,,,,1
10026703_CEM,m2icao3lxi,Relational_NO_JOL,1,226,2020-05-05T16:38:36-07:00,1.8128478527069,4,versionC_stim.csv,READVersionD.csv,"Read Version D","Relational, read only version D",ENOUGH,FULL,Study1,F,26,13,Study,User,-,,Study/JOL,"Study Phase2",1517,,,-1,-1,,,,1
10026703_CEM,m2icao3lxi,Relational_NO_JOL,1,227,2020-05-05T16:38:37-07:00,1.6764600276947,4,versionC_stim.csv,READVersionD.csv,"Read Version D","Relational, read only version D",FAMINE,HUNGER,Study1,F,40,21,Study,User,-,,Study/JOL,"Study Phase2",1392,,,-1,-1,,,,1
10026703_CEM,m2icao3lxi,Relational_NO_JOL,1,228,2020-05-05T16:38:39-07:00,1.5779139995575,4,versionC_stim.csv,READVersionD.csv,"Read Version D","Relational, read only version D",CAR,HAPPY,Study1,U,77,32,Study,User,-,,Study/JOL,"Study Phase2",1292,,,-1,-1,,,,1
10026703_CEM,m2icao3lxi,Relational_NO_JOL,1,229,2020-05-05T16:38:40-07:00,1.5992090702057,4,versionC_stim.csv,READVersionD.csv,"Read Version D","Relational, read only version D",JURY,TRIAL,Study1,S,50,49,Study,User,-,,Study/JOL,"Study Phase2",1300,,,-1,-1,,,,1
10026703_CEM,m2icao3lxi,Relational_NO_JOL,1,230,2020-05-05T16:38:42-07:00,1.6332740783691,4,versionC_stim.csv,READVersionD.csv,"Read Version D","Relational, read only version D",BELT,SOON,Study1,U,70,53,Study,User,-,,Study/JOL,"Study Phase2",1313,,,-1,-1,,,,1
10026703_CEM,m2icao3lxi,Relational_NO_JOL,1,231,2020-05-05T16:38:44-07:00,1.4136228561401,4,versionC_stim.csv,READVersionD.csv,"Read Version D","Relational, read only version D",LION,ART,Study1,U,79,14,Study,User,-,,Study/JOL,"Study Phase2",1130,,,-1,-1,,,,1
10026703_CEM,m2icao3lxi,Relational_NO_JOL,1,232,2020-05-05T16:38:45-07:00,1.5611550807953,4,versionC_stim.csv,READVersionD.csv,"Read Version D","Relational, read only version D",FISH,TUNA,Study1,B,25,81,Study,User,-,,Study/JOL,"Study Phase2",1276,,,-1,-1,,,,1
10026703_CEM,m2icao3lxi,Relational_NO_JOL,1,233,2020-05-05T16:38:47-07:00,1.4702830314636,4,versionC_stim.csv,READVersionD.csv,"Read Version D","Relational, read only version D",WAR,REVOLUTION,Study1,B,20,66,Study,User,-,,Study/JOL,"Study Phase2",1172,,,-1,-1,,,,1
10026703_CEM,m2icao3lxi,Relational_NO_JOL,1,234,2020-05-05T16:38:48-07:00,1.3840630054474,4,versionC_stim.csv,READVersionD.csv,"Read Version D","Relational, read only version D",LIVER,KIDNEY,Study1,S,53,75,Study,User,-,,Study/JOL,"Study Phase2",1095,,,-1,-1,,,,1
10026703_CEM,m2icao3lxi,Relational_NO_JOL,1,235,2020-05-05T16:38:49-07:00,1.4949109554291,4,versionC_stim.csv,READVersionD.csv,"Read Version D","Relational, read only version D",CAVE,DARK,Study1,F,28,52,Study,User,-,,Study/JOL,"Study Phase2",1204,,,-1,-1,,,,1
10026703_CEM,m2icao3lxi,Relational_NO_JOL,1,236,2020-05-05T16:38:51-07:00,1.2532429695129,4,versionC_stim.csv,READVersionD.csv,"Read Version D","Relational, read only version D",STING,HORNET,Study1,B,11,73,Study,User,-,,Study/JOL,"Study Phase2",954,,,-1,-1,,,,1
10026703_CEM,m2icao3lxi,Relational_NO_JOL,1,237,2020-05-05T16:38:52-07:00,1.2246780395508,4,versionC_stim.csv,READVersionD.csv,"Read Version D","Relational, read only version D",WATER,BRIDGE,Study1,B,18,48,Study,User,-,,Study/JOL,"Study Phase2",928,,,-1,-1,,,,1
10026703_CEM,m2icao3lxi,Relational_NO_JOL,1,238,2020-05-05T16:38:54-07:00,1.6466069221497,4,versionC_stim.csv,READVersionD.csv,"Read Version D","Relational, read only version D",DOG,PAW,Study1,B,15,83,Study,User,-,,Study/JOL,"Study Phase2",1348,,,-1,-1,,,,1
10026703_CEM,m2icao3lxi,Relational_NO_JOL,1,239,2020-05-05T16:38:55-07:00,1.4566731452942,4,versionC_stim.csv,READVersionD.csv,"Read Version D","Relational, read only version D",BRONZE,ARTERY,Study1,U,74,80,Study,User,-,,Study/JOL,"Study Phase2",1159,,,-1,-1,,,,1
10026703_CEM,m2icao3lxi,Relational_NO_JOL,1,240,2020-05-05T16:38:56-07:00,1.3001608848572,4,versionC_stim.csv,READVersionD.csv,"Read Version D","Relational, read only version D",RIDDLE,SUGAR,Study1,U,81,78,Study,User,-,,Study/JOL,"Study Phase2",1011,,,-1,-1,,,,1
10026703_CEM,m2icao3lxi,Relational_NO_JOL,1,241,2020-05-05T16:38:58-07:00,1.2896409034729,4,versionC_stim.csv,READVersionD.csv,"Read Version D","Relational, read only version D",DROWSY,SLEEP,Study1,F,41,8,Study,User,-,,Study/JOL,"Study Phase2",991,,,-1,-1,,,,1
10026703_CEM,m2icao3lxi,Relational_NO_JOL,1,242,2020-05-05T16:38:59-07:00,1.6702241897583,4,versionC_stim.csv,READVersionD.csv,"Read Version D","Relational, read only version D",STOMACH,DIGESTION,Study1,B,7,67,Study,User,-,,Study/JOL,"Study Phase2",1379,,,-1,-1,,,,1
10026703_CEM,m2icao3lxi,Relational_NO_JOL,1,243,2020-05-05T16:39:01-07:00,1.3859119415283,4,versionC_stim.csv,READVersionD.csv,"Read Version D","Relational, read only version D",HAND,FIX,Study1,U,75,26,Study,User,-,,Study/JOL,"Study Phase2",1101,,,-1,-1,,,,1
10026703_CEM,m2icao3lxi,Relational_NO_JOL,1,244,2020-05-05T16:39:02-07:00,1.2861750125885,4,versionC_stim.csv,READVersionD.csv,"Read Version D","Relational, read only version D",VASE,KING,Study1,U,85,9,Study,User,-,,Study/JOL,"Study Phase2",1002,,,-1,-1,,,,1
10026703_CEM,m2icao3lxi,Relational_NO_JOL,1,245,2020-05-05T16:39:03-07:00,1.4123589992523,4,versionC_stim.csv,READVersionD.csv,"Read Version D","Relational, read only version D",SICK,HIDE,Study1,U,84,57,Study,User,-,,Study/JOL,"Study Phase2",1117,,,-1,-1,,,,1
10026703_CEM,m2icao3lxi,Relational_NO_JOL,1,246,2020-05-05T16:39:05-07:00,1.3499970436096,4,versionC_stim.csv,READVersionD.csv,"Read Version D","Relational, read only version D",FLOWER,ORCHID,Study1,B,24,55,Study,User,-,,Study/JOL,"Study Phase2",1072,,,-1,-1,,,,1
10026703_CEM,m2icao3lxi,Relational_NO_JOL,1,247,2020-05-05T16:39:06-07:00,1.4456248283386,4,versionC_stim.csv,READVersionD.csv,"Read Version D","Relational, read only version D",HUNGRY,PARK,Study1,U,68,33,Study,User,-,,Study/JOL,"Study Phase2",1143,,,-1,-1,,,,1
10026703_CEM,m2icao3lxi,Relational_NO_JOL,1,248,2020-05-05T16:39:08-07:00,1.5496549606323,4,versionC_stim.csv,READVersionD.csv,"Read Version D","Relational, read only version D",TOILET,BATHROOM,Study1,S,58,7,Study,User,-,,Study/JOL,"Study Phase2",1256,,,-1,-1,,,,1
10026703_CEM,m2icao3lxi,Relational_NO_JOL,1,249,2020-05-05T16:39:09-07:00,1.3875060081482,4,versionC_stim.csv,READVersionD.csv,"Read Version D","Relational, read only version D",ACCIDENT,STRONG,Study1,U,80,11,Study,User,-,,Study/JOL,"Study Phase2",1105,,,-1,-1,,,,1
10026703_CEM,m2icao3lxi,Relational_NO_JOL,1,250,2020-05-05T16:39:11-07:00,1.4632260799408,4,versionC_stim.csv,READVersionD.csv,"Read Version D","Relational, read only version D",RACKET,BALL,Study1,F,38,76,Study,User,-,,Study/JOL,"Study Phase2",1166,,,-1,-1,,,,1
10026703_CEM,m2icao3lxi,Relational_NO_JOL,1,251,2020-05-05T16:39:13-07:00,1.9766540527344,4,versionC_stim.csv,READVersionD.csv,"Read Version D","Relational, read only version D",GROWTH,HEIGHT,Study1,F,30,29,Study,User,-,,Study/JOL,"Study Phase2",1683,,,-1,-1,,,,1
10026703_CEM,m2icao3lxi,Relational_NO_JOL,1,252,2020-05-05T16:39:14-07:00,1.7291879653931,4,versionC_stim.csv,READVersionD.csv,"Read Version D","Relational, read only version D",MONEY,WAGE,Study1,B,8,71,Study,User,-,,Study/JOL,"Study Phase2",1432,,,-1,-1,,,,1
10026703_CEM,m2icao3lxi,Relational_NO_JOL,1,253,2020-05-05T16:39:16-07:00,1.4514961242676,4,versionC_stim.csv,READVersionD.csv,"Read Version D","Relational, read only version D",CHILI,HOT,Study1,F,37,63,Study,User,-,,Study/JOL,"Study Phase2",1168,,,-1,-1,,,,1
10026703_CEM,m2icao3lxi,Relational_NO_JOL,1,254,2020-05-05T16:39:17-07:00,1.4426078796387,4,versionC_stim.csv,READVersionD.csv,"Read Version D","Relational, read only version D",SITE,LOCATION,Study1,S,48,20,Study,User,-,,Study/JOL,"Study Phase2",1148,,,-1,-1,,,,1
10026703_CEM,m2icao3lxi,Relational_NO_JOL,1,255,2020-05-05T16:39:19-07:00,1.4203639030457,4,versionC_stim.csv,READVersionD.csv,"Read Version D","Relational, read only version D",ATTIRE,CLOTHES,Study1,F,43,10,Study,User,-,,Study/JOL,"Study Phase2",1130,,,-1,-1,,,,1
10026703_CEM,m2icao3lxi,Relational_NO_JOL,1,256,2020-05-05T16:39:20-07:00,1.5200390815735,4,versionC_stim.csv,READVersionD.csv,"Read Version D","Relational, read only version D",WORD,SENTENCE,Study1,F,31,47,Study,User,-,,Study/JOL,"Study Phase2",1225,,,-1,-1,,,,1
10026703_CEM,m2icao3lxi,Relational_NO_JOL,1,257,2020-05-05T16:39:22-07:00,1.49582695961,4,versionC_stim.csv,READVersionD.csv,"Read Version D","Relational, read only version D",ROCK,GEOLOGY,Study1,B,19,50,Study,User,-,,Study/JOL,"Study Phase2",1208,,,-1,-1,,,,1
10026703_CEM,m2icao3lxi,Relational_NO_JOL,1,258,2020-05-05T16:39:23-07:00,1.4729151725769,4,versionC_stim.csv,READVersionD.csv,"Read Version D","Relational, read only version D",WASTE,DUMP,Study1,S,49,16,Study,User,-,,Study/JOL,"Study Phase2",1177,,,-1,-1,,,,1
10026703_CEM,m2icao3lxi,Relational_NO_JOL,1,259,2020-05-05T16:39:25-07:00,1.4957678318024,4,versionC_stim.csv,READVersionD.csv,"Read Version D","Relational, read only version D",SODA,POP,Study1,S,56,41,Study,User,-,,Study/JOL,"Study Phase2",1182,,,-1,-1,,,,1
10026703_CEM,m2icao3lxi,Relational_NO_JOL,1,260,2020-05-05T16:39:26-07:00,1.5508389472961,4,versionC_stim.csv,READVersionD.csv,"Read Version D","Relational, read only version D",WOULD,CASH,Study1,U,83,79,Study,User,-,,Study/JOL,"Study Phase2",1262,,,-1,-1,,,,1
10026703_CEM,m2icao3lxi,Relational_NO_JOL,1,261,2020-05-05T16:39:28-07:00,1.670478105545,4,versionC_stim.csv,READVersionD.csv,"Read Version D","Relational, read only version D",SALAD,LETTUCE,Study1,S,59,60,Study,User,-,,Study/JOL,"Study Phase2",1379,,,-1,-1,,,,1
10026703_CEM,m2icao3lxi,Relational_NO_JOL,1,262,2020-05-05T16:39:30-07:00,1.7610850334167,4,versionC_stim.csv,READVersionD.csv,"Read Version D","Relational, read only version D",CHEESE,WINE,Study1,S,57,36,Study,User,-,,Study/JOL,"Study Phase2",1462,,,-1,-1,,,,1
10026703_CEM,m2icao3lxi,Relational_NO_JOL,1,263,2020-05-05T16:39:31-07:00,1.7365748882294,4,versionC_stim.csv,READVersionD.csv,"Read Version D","Relational, read only version D",CLUTTER,PUSHER,Study1,U,66,27,Study,User,-,,Study/JOL,"Study Phase2",1447,,,-1,-1,,,,1
10026703_CEM,m2icao3lxi,Relational_NO_JOL,1,264,2020-05-05T16:39:33-07:00,1.4388179779053,4,versionC_stim.csv,READVersionD.csv,"Read Version D","Relational, read only version D",FUTURE,PAST,Study1,S,61,46,Study,User,-,,Study/JOL,"Study Phase2",1144,,,-1,-1,,,,1
10026703_CEM,m2icao3lxi,Relational_NO_JOL,1,265,2020-05-05T16:39:34-07:00,1.4296951293945,4,versionC_stim.csv,READVersionD.csv,"Read Version D","Relational, read only version D",WIND,BLOW,Study1,S,55,74,Study,User,-,,Study/JOL,"Study Phase2",1147,,,-1,-1,,,,1
10026703_CEM,m2icao3lxi,Relational_NO_JOL,1,266,2020-05-05T16:39:36-07:00,1.5032949447632,4,versionC_stim.csv,READVersionD.csv,"Read Version D","Relational, read only version D",END,BEGIN,Study1,S,54,61,Study,User,-,,Study/JOL,"Study Phase2",1216,,,-1,-1,,,,1
10026703_CEM,m2icao3lxi,Relational_NO_JOL,1,267,2020-05-05T16:39:37-07:00,1.4384651184082,4,versionC_stim.csv,READVersionD.csv,"Read Version D","Relational, read only version D",NEWS,EDITOR,Study1,B,10,18,Study,User,-,,Study/JOL,"Study Phase2",1132,,,-1,-1,,,,1
10026703_CEM,m2icao3lxi,Relational_NO_JOL,1,268,2020-05-05T16:39:39-07:00,1.5444359779358,4,versionC_stim.csv,READVersionD.csv,"Read Version D","Relational, read only version D",DEFINITION,MEANING,Study1,S,62,30,Study,User,-,,Study/JOL,"Study Phase2",1253,,,-1,-1,,,,1
10026703_CEM,m2icao3lxi,Relational_NO_JOL,1,269,2020-05-05T16:39:40-07:00,1.4465570449829,4,versionC_stim.csv,READVersionD.csv,"Read Version D","Relational, read only version D",WASP,BUG,Study1,F,32,23,Study,User,-,,Study/JOL,"Study Phase2",1142,,,-1,-1,,,,1
10026703_CEM,m2icao3lxi,Relational_NO_JOL,1,270,2020-05-05T16:39:42-07:00,1.5674939155579,4,versionC_stim.csv,READVersionD.csv,"Read Version D","Relational, read only version D",CHORE,WORK,Study1,F,39,37,Study,User,-,,Study/JOL,"Study Phase2",1272,,,-1,-1,,,,1
10026703_CEM,m2icao3lxi,Relational_NO_JOL,1,271,2020-05-05T16:39:43-07:00,1.4310390949249,4,versionC_stim.csv,READVersionD.csv,"Read Version D","Relational, read only version D",GOOSE,GEESE,BUFFER2,Buffer,86,87,Study,User,-,,Study/JOL,BUFFER4,1137,,,-1,-1,,,,1
10026703_CEM,m2icao3lxi,Relational_NO_JOL,1,272,2020-05-05T16:39:45-07:00,1.5099649429321,4,versionC_stim.csv,READVersionD.csv,"Read Version D","Relational, read only version D",CHOCOLATE,MALT,BUFFER2,Buffer,88,89,Study,User,-,,Study/JOL,BUFFER4,1211,,,-1,-1,,,,1
10026703_CEM,m2icao3lxi,Relational_NO_JOL,1,273,2020-05-05T16:39:46-07:00,1.4078669548035,4,versionC_stim.csv,READVersionD.csv,"Read Version D","Relational, read only version D",SPACE,MOON,BUFFER2,Buffer,89,91,Study,User,-,,Study/JOL,BUFFER4,1111,,,-1,-1,,,,1
10026703_CEM,m2icao3lxi,Relational_NO_JOL,1,274,2020-05-05T16:39:48-07:00,1.4836828708649,4,versionC_stim.csv,READVersionD.csv,"Read Version D","Relational, read only version D",STUFF,THING,BUFFER2,Buffer,90,90,Study,User,-,,Study/JOL,BUFFER4,1198,,,-1,-1,,,,1
10026703_CEM,m2icao3lxi,Relational_NO_JOL,1,275,2020-05-05T16:39:49-07:00,1.6614921092987,4,versionC_stim.csv,READVersionD.csv,"Read Version D","Relational, read only version D",POLICE,SHERRIF,BUFFER2,Buffer,87,88,Study,User,-,,Study/JOL,BUFFER4,1371,,,-1,-1,,,,1
10026703_CEM,m2icao3lxi,Relational_NO_JOL,1,276,2020-05-05T16:39:55-07:00,5.9020071029663,4,versionC_stim.csv,READVersionD.csv,"Read Version D","Relational, read only version D",,,,,,0,Instruct,User,-,"You have completed this section. Please press Enter.",Filler_Instruction,Instruct5,5530,,,-1,-1,,,,1
10026703_CEM,m2icao3lxi,Relational_NO_JOL,1,277,2020-05-05T16:40:06-07:00,11.027855873108,4,versionC_stim.csv,READVersionD.csv,"Read Version D","Relational, read only version D",,,,,,0,FreeRecall,-,10,"What were you supposed to focus on while you studied each pair? (Hint: Think back to the instructions). Type your answer in the space below.",,CHECK3,10633,"how each pair was related ",0,4407,9232,0,0,,1
10026703_CEM,m2icao3lxi,Relational_NO_JOL,1,278,2020-05-05T16:40:08-07:00,2.2292160987854,4,versionC_stim.csv,READVersionD.csv,"Read Version D","Relational, read only version D",,,,,,0,Instruct,User,-,"You have completed this section. Please press Enter.",Filler_Instruction,Instruct5,1877,,,-1,-1,,,,1
10026703_CEM,m2icao3lxi,Relational_NO_JOL,1,279,2020-05-05T16:42:09-07:00,120.3833990097,4,versionC_stim.csv,READVersionD.csv,"Read Version D","Relational, read only version D",,,,,,0,FreeRecall,120,120,"Please list the 50 US states in reverse alphabetical order (z - a). The task will automatically advance to the next screen after two minutes.",,Filler2,120004,"wyoming wisconsin west virginia washington virginia vermont utah texas tennessee south dakota south carolina rhode island pennysylvania oergon oklahoma ohio north dakota north carolina new yorl new mexico new jersey new hampshire nevada nebraska montana missouri mississippi minnesota michigan masschussets maryland maine louisiana kentucky kansas ",0,16830,119452,0,0,,1
10026703_CEM,m2icao3lxi,Relational_NO_JOL,1,280,2020-05-05T16:42:24-07:00,15.76713180542,4,versionC_stim.csv,READVersionD.csv,"Read Version D","Relational, read only version D",,,,,,0,Instruct,-,10,"You will now be presented with the first word from each of the previously studied item pairs. Please type the missing word. If you do not know the word, you may guess or press Enter to skip forward to the next pair.",,Instruct6,15383,,,-1,-1,,,,1
10026703_CEM,m2icao3lxi,Relational_NO_JOL,1,281,2020-05-05T16:42:42-07:00,17.300780057907,4,versionC_stim.csv,READVersionD.csv,"Read Version D","Relational, read only version D",PLANT,ROOT,Study1,B,13,35,Test,User,-,,Recall,Recall2,16925,ROOT,100,16086,16728,1,1,,1
10026703_CEM,m2icao3lxi,Relational_NO_JOL,1,282,2020-05-05T16:43:33-07:00,50.965537071228,4,versionC_stim.csv,READVersionD.csv,"Read Version D","Relational, read only version D",SACKING,DIETARY,Study1,U,67,54,Test,User,-,,Recall,Recall2,50578,,0,-1,-1,0,0,,1
10026703_CEM,m2icao3lxi,Relational_NO_JOL,1,283,2020-05-05T16:43:44-07:00,11.376038074493,4,versionC_stim.csv,READVersionD.csv,"Read Version D","Relational, read only version D",TALK,DISCUSSION,Study1,B,21,70,Test,User,-,,Recall,Recall2,11005,DISCUSSION,100,8886,10812,1,1,,1
10026703_CEM,m2icao3lxi,Relational_NO_JOL,1,284,2020-05-05T16:43:49-07:00,5.1173980236053,4,versionC_stim.csv,READVersionD.csv,"Read Version D","Relational, read only version D",CLUTTER,PUSHER,Study1,U,66,27,Test,User,-,,Recall,Recall2,4798,SPAC,20,3812,4507,0,0,,1
10026703_CEM,m2icao3lxi,Relational_NO_JOL,1,285,2020-05-05T16:44:23-07:00,34.094395875931,4,versionC_stim.csv,READVersionD.csv,"Read Version D","Relational, read only version D",GROWTH,HEIGHT,Study1,F,30,29,Test,User,-,,Recall,Recall2,33719,,0,-1,-1,0,0,,1
10026703_CEM,m2icao3lxi,Relational_NO_JOL,1,286,2020-05-05T16:44:24-07:00,1.1711990833282,4,versionC_stim.csv,READVersionD.csv,"Read Version D","Relational, read only version D",SITE,LOCATION,Study1,S,48,20,Test,User,-,,Recall,Recall2,860,,0,-1,-1,0,0,,1
10026703_CEM,m2icao3lxi,Relational_NO_JOL,1,287,2020-05-05T16:44:26-07:00,1.4163279533386,4,versionC_stim.csv,READVersionD.csv,"Read Version D","Relational, read only version D",SICK,HIDE,Study1,U,84,57,Test,User,-,,Recall,Recall2,1115,,0,-1,-1,0,0,,1
10026703_CEM,m2icao3lxi,Relational_NO_JOL,1,288,2020-05-05T16:44:29-07:00,3.3235399723053,4,versionC_stim.csv,READVersionD.csv,"Read Version D","Relational, read only version D",JURY,TRIAL,Study1,S,50,49,Test,User,-,,Recall,Recall2,3020,JUDGE,0,2384,2828,0,0,,1
10026703_CEM,m2icao3lxi,Relational_NO_JOL,1,289,2020-05-05T16:44:38-07:00,9.1634409427643,4,versionC_stim.csv,READVersionD.csv,"Read Version D","Relational, read only version D",ATTIRE,CLOTHES,Study1,F,43,10,Test,User,-,,Recall,Recall2,8860,CLOTHES,100,7259,8699,1,1,,1
10026703_CEM,m2icao3lxi,Relational_NO_JOL,1,290,2020-05-05T16:44:41-07:00,2.2214381694794,4,versionC_stim.csv,READVersionD.csv,"Read Version D","Relational, read only version D",BRONZE,ARTERY,Study1,U,74,80,Test,User,-,,Recall,Recall2,1916,MEDAL,18.181818181818,1211,1690,0,0,,1
10026703_CEM,m2icao3lxi,Relational_NO_JOL,1,291,2020-05-05T16:44:42-07:00,1.7928760051727,4,versionC_stim.csv,READVersionD.csv,"Read Version D","Relational, read only version D",TOILET,BATHROOM,Study1,S,58,7,Test,User,-,,Recall,Recall2,1488,PAPER,30.769230769231,980,1367,0,0,,1
10026703_CEM,m2icao3lxi,Relational_NO_JOL,1,292,2020-05-05T16:45:33-07:00,50.090974807739,4,versionC_stim.csv,READVersionD.csv,"Read Version D","Relational, read only version D",ACCIDENT,STRONG,Study1,U,80,11,Test,User,-,,Recall,Recall2,49729,STRONG,100,48482,49553,1,1,,1
10026703_CEM,m2icao3lxi,Relational_NO_JOL,1,293,2020-05-05T16:45:38-07:00,5.0020251274109,4,versionC_stim.csv,READVersionD.csv,"Read Version D","Relational, read only version D",WASTE,DUMP,Study1,S,49,16,Test,User,-,,Recall,Recall2,4710,DUMP,100,2648,4497,1,1,,1
10026703_CEM,m2icao3lxi,Relational_NO_JOL,1,294,2020-05-05T16:45:41-07:00,3.6984128952026,4,versionC_stim.csv,READVersionD.csv,"Read Version D","Relational, read only version D",CHEESE,WINE,Study1,S,57,36,Test,User,-,,Recall,Recall2,3379,WHEEL,44.444444444444,2734,3161,0,0,,1
10026703_CEM,m2icao3lxi,Relational_NO_JOL,1,295,2020-05-05T16:45:59-07:00,17.932126045227,4,versionC_stim.csv,READVersionD.csv,"Read Version D","Relational, read only version D",COLD,BITTER,Study1,B,12,12,Test,User,-,,Recall,Recall2,17556,HOT,22.222222222222,17236,17389,0,0,,1
10026703_CEM,m2icao3lxi,Relational_NO_JOL,1,296,2020-05-05T16:46:03-07:00,3.6039350032806,4,versionC_stim.csv,READVersionD.csv,"Read Version D","Relational, read only version D",CHORE,WORK,Study1,F,39,37,Test,User,-,,Recall,Recall2,3287,CLEAN,0,1817,3070,0,0,,1
10026703_CEM,m2icao3lxi,Relational_NO_JOL,1,297,2020-05-05T16:46:05-07:00,2.384083032608,4,versionC_stim.csv,READVersionD.csv,"Read Version D","Relational, read only version D",SIP,DRINK,Study1,F,27,82,Test,User,-,,Recall,Recall2,2015,DRINK,100,1251,1774,1,1,,1
10026703_CEM,m2icao3lxi,Relational_NO_JOL,1,298,2020-05-05T16:46:07-07:00,1.5757119655609,4,versionC_stim.csv,READVersionD.csv,"Read Version D","Relational, read only version D",CHILD,BABY,Study1,S,64,65,Test,User,-,,Recall,Recall2,1276,,0,-1,-1,0,0,,1
10026703_CEM,m2icao3lxi,Relational_NO_JOL,1,299,2020-05-05T16:46:09-07:00,1.9861071109772,4,versionC_stim.csv,READVersionD.csv,"Read Version D","Relational, read only version D",DIVISION,MATH,Study1,F,33,22,Test,User,-,,Recall,Recall2,1683,,0,-1,-1,0,0,,1
10026703_CEM,m2icao3lxi,Relational_NO_JOL,1,300,2020-05-05T16:46:12-07:00,3.5000848770142,4,versionC_stim.csv,READVersionD.csv,"Read Version D","Relational, read only version D",HAND,FIX,Study1,U,75,26,Test,User,-,,Recall,Recall2,3193,ARM,0,2865,3040,0,0,,1
10026703_CEM,m2icao3lxi,Relational_NO_JOL,1,301,2020-05-05T16:46:15-07:00,2.8729040622711,4,versionC_stim.csv,READVersionD.csv,"Read Version D","Relational, read only version D",LIVER,KIDNEY,Study1,S,53,75,Test,User,-,,Recall,Recall2,2561,ORGAN,18.181818181818,1595,2385,0,0,,1
10026703_CEM,m2icao3lxi,Relational_NO_JOL,1,302,2020-05-05T16:46:19-07:00,4.3700609207153,4,versionC_stim.csv,READVersionD.csv,"Read Version D","Relational, read only version D",BIRD,SWAN,Study1,B,14,24,Test,User,-,,Recall,Recall2,4067,FOOD,0,3639,3983,0,0,,1
10026703_CEM,m2icao3lxi,Relational_NO_JOL,1,303,2020-05-05T16:46:21-07:00,1.98051404953,4,versionC_stim.csv,READVersionD.csv,"Read Version D","Relational, read only version D",STOMACH,DIGESTION,Study1,B,7,67,Test,User,-,,Recall,Recall2,1632,ACHE,15.384615384615,1072,1523,0,0,,1
10026703_CEM,m2icao3lxi,Relational_NO_JOL,1,304,2020-05-05T16:46:23-07:00,1.941675901413,4,versionC_stim.csv,READVersionD.csv,"Read Version D","Relational, read only version D",CHILI,HOT,Study1,F,37,63,Test,User,-,,Recall,Recall2,1600,HOT,100,1266,1413,1,1,,1
10026703_CEM,m2icao3lxi,Relational_NO_JOL,1,305,2020-05-05T16:46:26-07:00,2.2518620491028,4,versionC_stim.csv,READVersionD.csv,"Read Version D","Relational, read only version D",ASSIGNMENT,DUE,Study1,S,46,34,Test,User,-,,Recall,Recall2,1941,DUE,100,1250,1754,1,1,,1
10026703_CEM,m2icao3lxi,Relational_NO_JOL,1,306,2020-05-05T16:46:29-07:00,3.0351679325104,4,versionC_stim.csv,READVersionD.csv,"Read Version D","Relational, read only version D",FLOWER,ORCHID,Study1,B,24,55,Test,User,-,,Recall,Recall2,2671,SUN,0,2267,2503,0,0,,1
10026703_CEM,m2icao3lxi,Relational_NO_JOL,1,307,2020-05-05T16:46:31-07:00,2.024708032608,4,versionC_stim.csv,READVersionD.csv,"Read Version D","Relational, read only version D",SODA,POP,Study1,S,56,41,Test,User,-,,Recall,Recall2,1723,POP,100,1216,1483,1,1,,1
10026703_CEM,m2icao3lxi,Relational_NO_JOL,1,308,2020-05-05T16:46:32-07:00,1.7857840061188,4,versionC_stim.csv,READVersionD.csv,"Read Version D","Relational, read only version D",ATTORNEY,LAW,Study1,F,34,40,Test,User,-,,Recall,Recall2,1486,LAW,100,1089,1316,1,1,,1
10026703_CEM,m2icao3lxi,Relational_NO_JOL,1,309,2020-05-05T16:46:34-07:00,1.8656661510468,4,versionC_stim.csv,READVersionD.csv,"Read Version D","Relational, read only version D",LION,ART,Study1,U,79,14,Test,User,-,,Recall,Recall2,1565,CAT,66.666666666667,1215,1472,0,0,,1
10026703_CEM,m2icao3lxi,Relational_NO_JOL,1,310,2020-05-05T16:46:36-07:00,1.6045398712158,4,versionC_stim.csv,READVersionD.csv,"Read Version D","Relational, read only version D",CLEAN,HYGIENE,Study1,B,17,44,Test,User,-,,Recall,Recall2,1297,,0,-1,-1,0,0,,1
10026703_CEM,m2icao3lxi,Relational_NO_JOL,1,311,2020-05-05T16:46:40-07:00,4.1651270389557,4,versionC_stim.csv,READVersionD.csv,"Read Version D","Relational, read only version D",DESIGN,ARCHITECTURE,Study1,S,51,19,Test,User,-,,Recall,Recall2,3804,CLOTHES,31.578947368421,2677,3698,0,0,,1
10026703_CEM,m2icao3lxi,Relational_NO_JOL,1,312,2020-05-05T16:46:43-07:00,2.6211290359497,4,versionC_stim.csv,READVersionD.csv,"Read Version D","Relational, read only version D",TUCK,ALLOW,Study1,U,78,68,Test,User,-,,Recall,Recall2,2302,TURTLE,18.181818181818,1526,2192,0,0,,1
10026703_CEM,m2icao3lxi,Relational_NO_JOL,1,313,2020-05-05T16:46:45-07:00,1.9099340438843,4,versionC_stim.csv,READVersionD.csv,"Read Version D","Relational, read only version D",MONEY,WAGE,Study1,B,8,71,Test,User,-,,Recall,Recall2,1605,DEBT,25,1157,1477,0,0,,1
10026703_CEM,m2icao3lxi,Relational_NO_JOL,1,314,2020-05-05T16:46:47-07:00,2.2228889465332,4,versionC_stim.csv,READVersionD.csv,"Read Version D","Relational, read only version D",LATCH,KEY,Study1,F,36,42,Test,User,-,,Recall,Recall2,1915,,0,-1,-1,0,0,,1
10026703_CEM,m2icao3lxi,Relational_NO_JOL,1,315,2020-05-05T16:46:51-07:00,3.7243099212646,4,versionC_stim.csv,READVersionD.csv,"Read Version D","Relational, read only version D",RACKET,BALL,Study1,F,38,76,Test,User,-,,Recall,Recall2,3360,BALL,100,2792,3180,1,1,,1
10026703_CEM,m2icao3lxi,Relational_NO_JOL,1,316,2020-05-05T16:46:54-07:00,3.5411150455475,4,versionC_stim.csv,READVersionD.csv,"Read Version D","Relational, read only version D",HUNGRY,PARK,Study1,U,68,33,Test,User,-,,Recall,Recall2,3236,EAT,28.571428571429,2754,3098,0,0,,1
10026703_CEM,m2icao3lxi,Relational_NO_JOL,1,317,2020-05-05T16:46:56-07:00,1.8819830417633,4,versionC_stim.csv,READVersionD.csv,"Read Version D","Relational, read only version D",HAMMER,CHISEL,Study1,B,9,58,Test,User,-,,Recall,Recall2,1578,NAI,22.222222222222,1244,1404,0,0,,1
10026703_CEM,m2icao3lxi,Relational_NO_JOL,1,318,2020-05-05T16:46:58-07:00,2.0780289173126,4,versionC_stim.csv,READVersionD.csv,"Read Version D","Relational, read only version D",BELT,SOON,Study1,U,70,53,Test,User,-,,Recall,Recall2,1780,CAR,0,1372,1655,0,0,,1
10026703_CEM,m2icao3lxi,Relational_NO_JOL,1,319,2020-05-05T16:47:06-07:00,7.4754559993744,4,versionC_stim.csv,READVersionD.csv,"Read Version D","Relational, read only version D",ROCK,GEOLOGY,Study1,B,19,50,Test,User,-,,Recall,Recall2,6936,RIVER,16.666666666667,4693,6679,0,0,,1
10026703_CEM,m2icao3lxi,Relational_NO_JOL,1,320,2020-05-05T16:47:08-07:00,2.8338000774384,4,versionC_stim.csv,READVersionD.csv,"Read Version D","Relational, read only version D",FLOOR,DISCOVER,Study1,U,71,56,Test,User,-,,Recall,Recall2,2242,PLAN,0,1307,1751,0,0,,1
10026703_CEM,m2icao3lxi,Relational_NO_JOL,1,321,2020-05-05T16:47:09-07:00,0.63990092277527,4,versionC_stim.csv,READVersionD.csv,"Read Version D","Relational, read only version D",FUTURE,PAST,Study1,S,61,46,Test,User,-,,Recall,Recall2,343,,0,-1,-1,0,0,,1
10026703_CEM,m2icao3lxi,Relational_NO_JOL,1,322,2020-05-05T16:47:10-07:00,0.59319114685059,4,versionC_stim.csv,READVersionD.csv,"Read Version D","Relational, read only version D",WAR,REVOLUTION,Study1,B,20,66,Test,User,-,,Recall,Recall2,270,,0,-1,-1,0,0,,1
10026703_CEM,m2icao3lxi,Relational_NO_JOL,1,323,2020-05-05T16:47:10-07:00,0.6079638004303,4,versionC_stim.csv,READVersionD.csv,"Read Version D","Relational, read only version D",ADD,VALLEY,Study1,U,82,72,Test,User,-,,Recall,Recall2,279,,0,-1,-1,0,0,,1
10026703_CEM,m2icao3lxi,Relational_NO_JOL,1,324,2020-05-05T16:47:11-07:00,0.88811206817627,4,versionC_stim.csv,READVersionD.csv,"Read Version D","Relational, read only version D",POSITION,MACHINE,Study1,U,76,62,Test,User,-,,Recall,Recall2,594,,0,-1,-1,0,0,,1
10026703_CEM,m2icao3lxi,Relational_NO_JOL,1,325,2020-05-05T16:47:12-07:00,0.74017405509949,4,versionC_stim.csv,READVersionD.csv,"Read Version D","Relational, read only version D",FAMINE,HUNGER,Study1,F,40,21,Test,User,-,,Recall,Recall2,442,,0,-1,-1,0,0,,1
10026703_CEM,m2icao3lxi,Relational_NO_JOL,1,326,2020-05-05T16:47:13-07:00,0.795902967453,4,versionC_stim.csv,READVersionD.csv,"Read Version D","Relational, read only version D",NEWS,EDITOR,Study1,B,10,18,Test,User,-,,Recall,Recall2,499,,0,-1,-1,0,0,,1
10026703_CEM,m2icao3lxi,Relational_NO_JOL,1,327,2020-05-05T16:47:13-07:00,0.66941499710083,4,versionC_stim.csv,READVersionD.csv,"Read Version D","Relational, read only version D",STING,HORNET,Study1,B,11,73,Test,User,-,,Recall,Recall2,370,,0,-1,-1,0,0,,1
10026703_CEM,m2icao3lxi,Relational_NO_JOL,1,328,2020-05-05T16:47:14-07:00,0.66267800331116,4,versionC_stim.csv,READVersionD.csv,"Read Version D","Relational, read only version D",FISH,TUNA,Study1,B,25,81,Test,User,-,,Recall,Recall2,364,,0,-1,-1,0,0,,1
10026703_CEM,m2icao3lxi,Relational_NO_JOL,1,329,2020-05-05T16:47:15-07:00,0.6991970539093,4,versionC_stim.csv,READVersionD.csv,"Read Version D","Relational, read only version D",WASP,BUG,Study1,F,32,23,Test,User,-,,Recall,Recall2,370,,0,-1,-1,0,0,,1
10026703_CEM,m2icao3lxi,Relational_NO_JOL,1,330,2020-05-05T16:47:18-07:00,3.124431848526,4,versionC_stim.csv,READVersionD.csv,"Read Version D","Relational, read only version D",BUSINESS,DEATH,Study1,U,72,84,Test,User,-,,Recall,Recall2,2810,CARD,22.222222222222,2227,2672,0,0,,1
10026703_CEM,m2icao3lxi,Relational_NO_JOL,1,331,2020-05-05T16:47:21-07:00,2.8716311454773,4,versionC_stim.csv,READVersionD.csv,"Read Version D","Relational, read only version D",COW,HERD,Study1,B,22,25,Test,User,-,,Recall,Recall2,2563,MOO,0,1812,2377,0,0,,1
10026703_CEM,m2icao3lxi,Relational_NO_JOL,1,332,2020-05-05T16:47:23-07:00,2.5031909942627,4,versionC_stim.csv,READVersionD.csv,"Read Version D","Relational, read only version D",CARD,CREDIT,Study1,B,23,51,Test,User,-,,Recall,Recall2,2197,DEBIT,54.545454545455,1587,2046,0,0,,1
10026703_CEM,m2icao3lxi,Relational_NO_JOL,1,333,2020-05-05T16:47:27-07:00,3.4767019748688,4,versionC_stim.csv,READVersionD.csv,"Read Version D","Relational, read only version D",DOG,PAW,Study1,B,15,83,Test,User,-,,Recall,Recall2,3164,BARK,28.571428571429,1199,2610,0,0,,1
10026703_CEM,m2icao3lxi,Relational_NO_JOL,1,334,2020-05-05T16:47:29-07:00,2.3448429107666,4,versionC_stim.csv,READVersionD.csv,"Read Version D","Relational, read only version D",END,BEGIN,Study1,S,54,61,Test,User,-,,Recall,Recall2,2027,GAME,22.222222222222,1489,1848,0,0,,1
10026703_CEM,m2icao3lxi,Relational_NO_JOL,1,335,2020-05-05T16:47:35-07:00,5.7228150367737,4,versionC_stim.csv,READVersionD.csv,"Read Version D","Relational, read only version D",SALAD,LETTUCE,Study1,S,59,60,Test,User,-,,Recall,Recall2,5403,STATION,28.571428571429,1592,5214,0,0,,1
10026703_CEM,m2icao3lxi,Relational_NO_JOL,1,336,2020-05-05T16:47:38-07:00,3.2502400875092,4,versionC_stim.csv,READVersionD.csv,"Read Version D","Relational, read only version D",WORD,SENTENCE,Study1,F,31,47,Test,User,-,,Recall,Recall2,2915,PHRASE,28.571428571429,1621,2747,0,0,,1
10026703_CEM,m2icao3lxi,Relational_NO_JOL,1,337,2020-05-05T16:47:45-07:00,6.593428850174,4,versionC_stim.csv,READVersionD.csv,"Read Version D","Relational, read only version D",ROUND,CIRCLE,Study1,S,65,28,Test,User,-,,Recall,Recall2,6257,SQUARE,33.333333333333,1868,6041,0,0,,1
10026703_CEM,m2icao3lxi,Relational_NO_JOL,1,338,2020-05-05T16:47:47-07:00,1.9578061103821,4,versionC_stim.csv,READVersionD.csv,"Read Version D","Relational, read only version D",BLAZE,FIRE,Study1,F,45,39,Test,User,-,,Recall,Recall2,1653,FIRE,100,1099,1492,1,1,,1
10026703_CEM,m2icao3lxi,Relational_NO_JOL,1,339,2020-05-05T16:47:49-07:00,2.0906779766083,4,versionC_stim.csv,READVersionD.csv,"Read Version D","Relational, read only version D",BEE,HONEY,Study1,S,63,38,Test,User,-,,Recall,Recall2,1780,HONEY,100,1077,1561,1,1,,1
10026703_CEM,m2icao3lxi,Relational_NO_JOL,1,340,2020-05-05T16:47:50-07:00,1.7792201042175,4,versionC_stim.csv,READVersionD.csv,"Read Version D","Relational, read only version D",WOMAN,LIFT,Study1,U,69,85,Test,User,-,,Recall,Recall2,1471,MAN,0,1150,1317,0,0,,1
10026703_CEM,m2icao3lxi,Relational_NO_JOL,1,341,2020-05-05T16:47:52-07:00,2.0628128051758,4,versionC_stim.csv,READVersionD.csv,"Read Version D","Relational, read only version D",PILOT,PLANE,Study1,F,44,43,Test,User,-,,Recall,Recall2,1743,PLANE,100,1159,1621,1,1,,1
10026703_CEM,m2icao3lxi,Relational_NO_JOL,1,342,2020-05-05T16:47:57-07:00,4.5359539985657,4,versionC_stim.csv,READVersionD.csv,"Read Version D","Relational, read only version D",SEIZE,TAKE,Study1,F,29,86,Test,User,-,,Recall,Recall2,4171,TAKE,100,1593,3919,1,1,,1
10026703_CEM,m2icao3lxi,Relational_NO_JOL,1,343,2020-05-05T16:47:59-07:00,2.2178242206573,4,versionC_stim.csv,READVersionD.csv,"Read Version D","Relational, read only version D",AMOUNT,NUMBER,Study1,S,47,15,Test,User,-,,Recall,Recall2,1876,MONEY,36.363636363636,1028,1556,0,0,,1
10026703_CEM,m2icao3lxi,Relational_NO_JOL,1,344,2020-05-05T16:48:01-07:00,1.9410629272461,4,versionC_stim.csv,READVersionD.csv,"Read Version D","Relational, read only version D",DROWSY,SLEEP,Study1,F,41,8,Test,User,-,,Recall,Recall2,1633,TIRED,20,1081,1504,0,0,,1
10026703_CEM,m2icao3lxi,Relational_NO_JOL,1,345,2020-05-05T16:48:06-07:00,5.2841248512268,4,versionC_stim.csv,READVersionD.csv,"Read Version D","Relational, read only version D",CAR,HAPPY,Study1,U,77,32,Test,User,-,,Recall,Recall2,4975,HAPPY,100,1803,4792,1,1,,1
10026703_CEM,m2icao3lxi,Relational_NO_JOL,1,346,2020-05-05T16:48:10-07:00,3.1562120914459,4,versionC_stim.csv,READVersionD.csv,"Read Version D","Relational, read only version D",WATER,BRIDGE,Study1,B,18,48,Test,User,-,,Recall,Recall2,2833,DRY,22.222222222222,2292,2533,0,0,,1
10026703_CEM,m2icao3lxi,Relational_NO_JOL,1,347,2020-05-05T16:48:12-07:00,2.6627929210663,4,versionC_stim.csv,READVersionD.csv,"Read Version D","Relational, read only version D",CAVE,DARK,Study1,F,28,52,Test,User,-,,Recall,Recall2,2345,DARK,100,1840,2175,1,1,,1
10026703_CEM,m2icao3lxi,Relational_NO_JOL,1,348,2020-05-05T16:48:17-07:00,5.024943113327,4,versionC_stim.csv,READVersionD.csv,"Read Version D","Relational, read only version D",DEFINITION,MEANING,Study1,S,62,30,Test,User,-,,Recall,Recall2,4709,VOCABULARY,11.764705882353,1766,4093,0,0,,1
10026703_CEM,m2icao3lxi,Relational_NO_JOL,1,349,2020-05-05T16:48:20-07:00,2.6042649745941,4,versionC_stim.csv,READVersionD.csv,"Read Version D","Relational, read only version D",FOOT,SHOE,Study1,S,60,31,Test,User,-,,Recall,Recall2,2306,FEET,25,1343,2124,0,0,,1
10026703_CEM,m2icao3lxi,Relational_NO_JOL,1,350,2020-05-05T16:48:22-07:00,1.7355189323425,4,versionC_stim.csv,READVersionD.csv,"Read Version D","Relational, read only version D",BAD,DELINQUENT,Study1,B,6,64,Test,User,-,,Recall,Recall2,1419,GOOD,14.285714285714,959,1294,0,0,,1
10026703_CEM,m2icao3lxi,Relational_NO_JOL,1,351,2020-05-05T16:48:26-07:00,3.9342520236969,4,versionC_stim.csv,READVersionD.csv,"Read Version D","Relational, read only version D",ENOUGH,FULL,Study1,F,26,13,Test,User,-,,Recall,Recall2,3635,ALONE,22.222222222222,2763,3547,0,0,,1
10026703_CEM,m2icao3lxi,Relational_NO_JOL,1,352,2020-05-05T16:48:28-07:00,2.0578460693359,4,versionC_stim.csv,READVersionD.csv,"Read Version D","Relational, read only version D",VASE,KING,Study1,U,85,9,Test,User,-,,Recall,Recall2,1758,FLOWER,0,1151,1616,0,0,,1
10026703_CEM,m2icao3lxi,Relational_NO_JOL,1,353,2020-05-05T16:48:31-07:00,3.477607011795,4,versionC_stim.csv,READVersionD.csv,"Read Version D","Relational, read only version D",WIND,BLOW,Study1,S,55,74,Test,User,-,,Recall,Recall2,3163,BLOW,100,2558,3010,1,1,,1
10026703_CEM,m2icao3lxi,Relational_NO_JOL,1,354,2020-05-05T16:48:33-07:00,2.1230750083923,4,versionC_stim.csv,READVersionD.csv,"Read Version D","Relational, read only version D",SIGHT,DEBATE,Study1,U,73,59,Test,User,-,,Recall,Recall2,1776,SEE,44.444444444444,1135,1642,0,0,,1
10026703_CEM,m2icao3lxi,Relational_NO_JOL,1,355,2020-05-05T16:48:37-07:00,3.5839309692383,4,versionC_stim.csv,READVersionD.csv,"Read Version D","Relational, read only version D",WOULD,CASH,Study1,U,83,79,Test,User,-,,Recall,Recall2,3269,COULD,22.222222222222,1092,3093,0,0,,1
10026703_CEM,m2icao3lxi,Relational_NO_JOL,1,356,2020-05-05T16:48:39-07:00,2.5109438896179,4,versionC_stim.csv,READVersionD.csv,"Read Version D","Relational, read only version D",STENCH,SMELL,Study1,F,42,69,Test,User,-,,Recall,Recall2,2202,STINK,20,1413,1991,0,0,,1
10026703_CEM,m2icao3lxi,Relational_NO_JOL,1,357,2020-05-05T16:48:43-07:00,3.7594780921936,4,versionC_stim.csv,READVersionD.csv,"Read Version D","Relational, read only version D",BAR,GRILL,Study1,S,52,77,Test,User,-,,Recall,Recall2,3447,DRINK,40,2460,3220,0,0,,1
10026703_CEM,m2icao3lxi,Relational_NO_JOL,1,358,2020-05-05T16:48:45-07:00,2.3269629478455,4,versionC_stim.csv,READVersionD.csv,"Read Version D","Relational, read only version D",RIDDLE,SUGAR,Study1,U,81,78,Test,User,-,,Recall,Recall2,2006,JOKE,0,1369,1774,0,0,,1
10026703_CEM,m2icao3lxi,Relational_NO_JOL,1,359,2020-05-05T16:48:47-07:00,1.5255401134491,4,versionC_stim.csv,READVersionD.csv,"Read Version D","Relational, read only version D",OUT,WAY,Study1,B,16,17,Test,User,-,,Recall,Recall2,1230,IN,0,955,1081,0,0,,1
10026703_CEM,m2icao3lxi,Relational_NO_JOL,1,360,2020-05-05T16:48:49-07:00,2.4637079238892,4,versionC_stim.csv,READVersionD.csv,"Read Version D","Relational, read only version D",FANTASTIC,GREAT,Study1,F,35,45,Test,User,-,,Recall,Recall2,2164,HAPPY,20,1108,1935,0,0,,1
10026703_CEM,m2icao3lxi,Relational_NO_JOL,1,361,2020-05-05T16:48:51-07:00,1.1902680397034,4,versionC_stim.csv,READVersionD.csv,"Read Version D","Relational, read only version D",,,,,,0,Instruct,User,-,"You have completed this section. Please press Enter.",,Instruct7,894,,,-1,-1,,,,1
10026703_CEM,m2icao3lxi,Relational_NO_JOL,1,362,2020-05-05T16:48:54-07:00,3.8981049060822,4,versionC_stim.csv,READVersionD.csv,"Read Version D","Relational, read only version D",,,,,,0,Instruct,User,-,"The following screen will ask you a few questions abour your experience today. You must complete these questions to receive credit.",,Instruct8,3600,,,-1,-1,,,,1
