Username,ID,ExperimentName,Session,Trial,Date,TimeDif,"Condition Number","Stimuli File","Order File","Condition Description","Condition Notes",Stimuli*Cue,Stimuli*Answer,Stimuli*Shuffle,"Stimuli*Stimuli Notes",Stimuli*Value,Procedure*Item,"Procedure*Trial Type","Procedure*Max Time","Procedure*Min Time",Procedure*Text,"Procedure*Procedure Notes",Procedure*Shuffle,Response*RT,Response*Response,Response*Accuracy,Response*RTfirst,Response*RTlast,Response*strictAcc,Response*lenientAcc,Response*focus,Response*Focus
5f04b3fc4f8dff76b699ac22,bkhal7qdcb,"Deep vs Shallow",1,1,2020-07-08T14:26:15-07:00,11.549118041992,2,versionA_stim.csv,RLVersionB.csv,"Relational Version B","Relational, read only version B",,,,,,0,Instruct,-,10,"In this section, you will be presented with a series of word pairs. Please study both items in the pair.",,Instruct13,10982,,,-1,-1,,,,1
5f04b3fc4f8dff76b699ac22,bkhal7qdcb,"Deep vs Shallow",1,2,2020-07-08T14:26:32-07:00,17.104548931122,2,versionA_stim.csv,RLVersionB.csv,"Relational Version B","Relational, read only version B",,,,,,0,Instruct,-,15,"As you study, please think about how the two concepts are RELATED to each other. For example, if you see the pair TURTLE-CAT, think about how both are alive, they are both animals, and both can be kept as pets.",,Instruct19,16375,,,-1,-1,,,,1
5f04b3fc4f8dff76b699ac22,bkhal7qdcb,"Deep vs Shallow",1,3,2020-07-08T14:26:57-07:00,25.272594928741,2,versionA_stim.csv,RLVersionB.csv,"Relational Version B","Relational, read only version B",,,,,,0,FreeRecall,-,10,"What you should think about as you study each item pair? Type your response in the box below.",,CHECK1,24440,"both pets both animals ",0,-1,-1,0,0,,1
5f04b3fc4f8dff76b699ac22,bkhal7qdcb,"Deep vs Shallow",1,4,2020-07-08T14:27:01-07:00,3.5365040302277,2,versionA_stim.csv,RLVersionB.csv,"Relational Version B","Relational, read only version B",,,,,,0,Instruct,User,-,"You will now begin the experiment. Press ENTER when you are ready to begin.",,Instruct000,2781,,,-1,-1,,,,1
5f04b3fc4f8dff76b699ac22,bkhal7qdcb,"Deep vs Shallow",1,5,2020-07-08T14:27:10-07:00,9.7943489551544,2,versionA_stim.csv,RLVersionB.csv,"Relational Version B","Relational, read only version B",SHRIMP,FISH,BUFFER3,Buffer,93,95,Study,User,-,,Study/JOL,BUFFER,8973,,,-1,-1,,,,1
5f04b3fc4f8dff76b699ac22,bkhal7qdcb,"Deep vs Shallow",1,6,2020-07-08T14:27:16-07:00,5.6179430484772,2,versionA_stim.csv,RLVersionB.csv,"Relational Version B","Relational, read only version B",NOODLE,STRING,BUFFER3,Buffer,92,94,Study,User,-,,Study/JOL,BUFFER,4799,,,-1,-1,,,,1
5f04b3fc4f8dff76b699ac22,bkhal7qdcb,"Deep vs Shallow",1,7,2020-07-08T14:27:23-07:00,7.2576611042023,2,versionA_stim.csv,RLVersionB.csv,"Relational Version B","Relational, read only version B",ICE,FROZEN,BUFFER3,Buffer,94,96,Study,User,-,,Study/JOL,BUFFER,6451,,,-1,-1,,,,1
5f04b3fc4f8dff76b699ac22,bkhal7qdcb,"Deep vs Shallow",1,8,2020-07-08T14:27:29-07:00,5.3802819252014,2,versionA_stim.csv,RLVersionB.csv,"Relational Version B","Relational, read only version B",CARROT,POTATO,BUFFER3,Buffer,91,93,Study,User,-,,Study/JOL,BUFFER,4594,,,-1,-1,,,,1
5f04b3fc4f8dff76b699ac22,bkhal7qdcb,"Deep vs Shallow",1,9,2020-07-08T14:27:34-07:00,4.9049270153046,2,versionA_stim.csv,RLVersionB.csv,"Relational Version B","Relational, read only version B",CAMP,ADVENTURE,BUFFER3,Buffer,95,92,Study,User,-,,Study/JOL,BUFFER,4097,,,-1,-1,,,,1
5f04b3fc4f8dff76b699ac22,bkhal7qdcb,"Deep vs Shallow",1,10,2020-07-08T14:27:37-07:00,3.7438869476318,2,versionA_stim.csv,RLVersionB.csv,"Relational Version B","Relational, read only version B",POP,BALLOON,Study2,B,123,103,Study,User,-,,Study/JOL,"Study Phase",3005,,,-1,-1,,,,1
5f04b3fc4f8dff76b699ac22,bkhal7qdcb,"Deep vs Shallow",1,11,2020-07-08T14:27:41-07:00,3.2581660747528,2,versionA_stim.csv,RLVersionB.csv,"Relational Version B","Relational, read only version B",CHERRY,RED,Study2,F,104,140,Study,User,-,,Study/JOL,"Study Phase",2489,,,-1,-1,,,,1
5f04b3fc4f8dff76b699ac22,bkhal7qdcb,"Deep vs Shallow",1,12,2020-07-08T14:27:45-07:00,4.3076560497284,2,versionA_stim.csv,RLVersionB.csv,"Relational Version B","Relational, read only version B",JUSTICE,MAROON,Study2,U,156,144,Study,User,-,,Study/JOL,"Study Phase",3492,,,-1,-1,,,,1
5f04b3fc4f8dff76b699ac22,bkhal7qdcb,"Deep vs Shallow",1,13,2020-07-08T14:27:48-07:00,3.4665439128876,2,versionA_stim.csv,RLVersionB.csv,"Relational Version B","Relational, read only version B",MIRROR,CHILDREN,Study2,U,174,170,Study,User,-,,Study/JOL,"Study Phase",2527,,,-1,-1,,,,1
5f04b3fc4f8dff76b699ac22,bkhal7qdcb,"Deep vs Shallow",1,14,2020-07-08T14:27:52-07:00,3.5875771045685,2,versionA_stim.csv,RLVersionB.csv,"Relational Version B","Relational, read only version B",TRUTH,LIE,Study2,S,148,121,Study,User,-,,Study/JOL,"Study Phase",2854,,,-1,-1,,,,1
5f04b3fc4f8dff76b699ac22,bkhal7qdcb,"Deep vs Shallow",1,15,2020-07-08T14:27:54-07:00,2.4571847915649,2,versionA_stim.csv,RLVersionB.csv,"Relational Version B","Relational, read only version B",LOAN,SIGN,Study2,U,171,133,Study,User,-,,Study/JOL,"Study Phase",1657,,,-1,-1,,,,1
5f04b3fc4f8dff76b699ac22,bkhal7qdcb,"Deep vs Shallow",1,16,2020-07-08T14:27:59-07:00,4.3648300170898,2,versionA_stim.csv,RLVersionB.csv,"Relational Version B","Relational, read only version B",GLASS,BREAKABLE,Study2,B,127,145,Study,User,-,,Study/JOL,"Study Phase",3631,,,-1,-1,,,,1
5f04b3fc4f8dff76b699ac22,bkhal7qdcb,"Deep vs Shallow",1,17,2020-07-08T14:28:02-07:00,2.9953751564026,2,versionA_stim.csv,RLVersionB.csv,"Relational Version B","Relational, read only version B",EVEN,REVENGE,Study2,B,122,162,Study,User,-,,Study/JOL,"Study Phase",2211,,,-1,-1,,,,1
5f04b3fc4f8dff76b699ac22,bkhal7qdcb,"Deep vs Shallow",1,18,2020-07-08T14:28:05-07:00,2.9702370166779,2,versionA_stim.csv,RLVersionB.csv,"Relational Version B","Relational, read only version B",GIVE,STEAK,Study2,U,158,114,Study,User,-,,Study/JOL,"Study Phase",2266,,,-1,-1,,,,1
5f04b3fc4f8dff76b699ac22,bkhal7qdcb,"Deep vs Shallow",1,19,2020-07-08T14:28:08-07:00,2.9880859851837,2,versionA_stim.csv,RLVersionB.csv,"Relational Version B","Relational, read only version B",DEAD,COFFIN,Study2,B,128,157,Study,User,-,,Study/JOL,"Study Phase",2170,,,-1,-1,,,,1
5f04b3fc4f8dff76b699ac22,bkhal7qdcb,"Deep vs Shallow",1,20,2020-07-08T14:28:11-07:00,3.0075738430023,2,versionA_stim.csv,RLVersionB.csv,"Relational Version B","Relational, read only version B",GONE,AWAY,Study2,S,142,112,Study,User,-,,Study/JOL,"Study Phase",2172,,,-1,-1,,,,1
5f04b3fc4f8dff76b699ac22,bkhal7qdcb,"Deep vs Shallow",1,21,2020-07-08T14:28:14-07:00,3.2029330730438,2,versionA_stim.csv,RLVersionB.csv,"Relational Version B","Relational, read only version B",BEST,FAVORITE,Study2,B,125,99,Study,User,-,,Study/JOL,"Study Phase",2345,,,-1,-1,,,,1
5f04b3fc4f8dff76b699ac22,bkhal7qdcb,"Deep vs Shallow",1,22,2020-07-08T14:28:18-07:00,4.0734829902649,2,versionA_stim.csv,RLVersionB.csv,"Relational Version B","Relational, read only version B",KEYS,JOKE,Study2,U,165,141,Study,User,-,,Study/JOL,"Study Phase",3028,,,-1,-1,,,,1
5f04b3fc4f8dff76b699ac22,bkhal7qdcb,"Deep vs Shallow",1,23,2020-07-08T14:28:21-07:00,3.5339999198914,2,versionA_stim.csv,RLVersionB.csv,"Relational Version B","Relational, read only version B",TANTRUM,TEMPER,Study2,S,154,132,Study,User,-,,Study/JOL,"Study Phase",2417,,,-1,-1,,,,1
5f04b3fc4f8dff76b699ac22,bkhal7qdcb,"Deep vs Shallow",1,24,2020-07-08T14:28:24-07:00,2.8892590999603,2,versionA_stim.csv,RLVersionB.csv,"Relational Version B","Relational, read only version B",FIGHT,BRAWL,Study2,B,135,166,Study,User,-,,Study/JOL,"Study Phase",1811,,,-1,-1,,,,1
5f04b3fc4f8dff76b699ac22,bkhal7qdcb,"Deep vs Shallow",1,25,2020-07-08T14:28:27-07:00,2.9294629096985,2,versionA_stim.csv,RLVersionB.csv,"Relational Version B","Relational, read only version B",THREAD,THIMBLE,Study2,B,121,150,Study,User,-,,Study/JOL,"Study Phase",2072,,,-1,-1,,,,1
5f04b3fc4f8dff76b699ac22,bkhal7qdcb,"Deep vs Shallow",1,26,2020-07-08T14:28:30-07:00,2.6437430381775,2,versionA_stim.csv,RLVersionB.csv,"Relational Version B","Relational, read only version B",LEASE,TOIL,Study2,U,170,128,Study,User,-,,Study/JOL,"Study Phase",1845,,,-1,-1,,,,1
5f04b3fc4f8dff76b699ac22,bkhal7qdcb,"Deep vs Shallow",1,27,2020-07-08T14:28:32-07:00,2.4580500125885,2,versionA_stim.csv,RLVersionB.csv,"Relational Version B","Relational, read only version B",LOUD,NOISE,Study2,S,152,134,Study,User,-,,Study/JOL,"Study Phase",1548,,,-1,-1,,,,1
5f04b3fc4f8dff76b699ac22,bkhal7qdcb,"Deep vs Shallow",1,28,2020-07-08T14:28:35-07:00,2.452996969223,2,versionA_stim.csv,RLVersionB.csv,"Relational Version B","Relational, read only version B",ADJOURN,END,Study2,F,101,161,Study,User,-,,Study/JOL,"Study Phase",1667,,,-1,-1,,,,1
5f04b3fc4f8dff76b699ac22,bkhal7qdcb,"Deep vs Shallow",1,29,2020-07-08T14:28:37-07:00,2.0612740516663,2,versionA_stim.csv,RLVersionB.csv,"Relational Version B","Relational, read only version B",EXTENSION,LONG,Study2,F,96,135,Study,User,-,,Study/JOL,"Study Phase",1323,,,-1,-1,,,,1
5f04b3fc4f8dff76b699ac22,bkhal7qdcb,"Deep vs Shallow",1,30,2020-07-08T14:28:39-07:00,2.4337129592896,2,versionA_stim.csv,RLVersionB.csv,"Relational Version B","Relational, read only version B",NAME,HATE,Study2,U,167,167,Study,User,-,,Study/JOL,"Study Phase",1460,,,-1,-1,,,,1
5f04b3fc4f8dff76b699ac22,bkhal7qdcb,"Deep vs Shallow",1,31,2020-07-08T14:28:41-07:00,1.772961139679,2,versionA_stim.csv,RLVersionB.csv,"Relational Version B","Relational, read only version B",EARTH,GROUND,Study2,S,144,151,Study,User,-,,Study/JOL,"Study Phase",1113,,,-1,-1,,,,1
5f04b3fc4f8dff76b699ac22,bkhal7qdcb,"Deep vs Shallow",1,32,2020-07-08T14:28:43-07:00,2.0092418193817,2,versionA_stim.csv,RLVersionB.csv,"Relational Version B","Relational, read only version B",LITTER,TRASH,Study2,F,103,139,Study,User,-,,Study/JOL,"Study Phase",1488,,,-1,-1,,,,1
5f04b3fc4f8dff76b699ac22,bkhal7qdcb,"Deep vs Shallow",1,33,2020-07-08T14:28:45-07:00,1.8526179790497,2,versionA_stim.csv,RLVersionB.csv,"Relational Version B","Relational, read only version B",TEMPERATURE,Morning,Study2,U,173,101,Study,User,-,,Study/JOL,"Study Phase",1279,,,-1,-1,,,,1
5f04b3fc4f8dff76b699ac22,bkhal7qdcb,"Deep vs Shallow",1,34,2020-07-08T14:28:47-07:00,1.8074882030487,2,versionA_stim.csv,RLVersionB.csv,"Relational Version B","Relational, read only version B",FISH,SARDINE,Study2,B,130,97,Study,User,-,,Study/JOL,"Study Phase",1193,,,-1,-1,,,,1
5f04b3fc4f8dff76b699ac22,bkhal7qdcb,"Deep vs Shallow",1,35,2020-07-08T14:28:49-07:00,2.1601388454437,2,versionA_stim.csv,RLVersionB.csv,"Relational Version B","Relational, read only version B",CANDLE,WAX,Study2,S,139,163,Study,User,-,,Study/JOL,"Study Phase",1526,,,-1,-1,,,,1
5f04b3fc4f8dff76b699ac22,bkhal7qdcb,"Deep vs Shallow",1,36,2020-07-08T14:28:51-07:00,2.2468709945679,2,versionA_stim.csv,RLVersionB.csv,"Relational Version B","Relational, read only version B",CAKE,CLOTHES,Study2,U,166,159,Study,User,-,,Study/JOL,"Study Phase",1357,,,-1,-1,,,,1
5f04b3fc4f8dff76b699ac22,bkhal7qdcb,"Deep vs Shallow",1,37,2020-07-08T14:28:54-07:00,2.57120013237,2,versionA_stim.csv,RLVersionB.csv,"Relational Version B","Relational, read only version B",INCENSE,SMELL,Study2,F,110,165,Study,User,-,,Study/JOL,"Study Phase",1891,,,-1,-1,,,,1
5f04b3fc4f8dff76b699ac22,bkhal7qdcb,"Deep vs Shallow",1,38,2020-07-08T14:28:56-07:00,1.9509248733521,2,versionA_stim.csv,RLVersionB.csv,"Relational Version B","Relational, read only version B",MOAT,CLEAR,Study2,U,169,107,Study,User,-,,Study/JOL,"Study Phase",1252,,,-1,-1,,,,1
5f04b3fc4f8dff76b699ac22,bkhal7qdcb,"Deep vs Shallow",1,39,2020-07-08T14:28:58-07:00,2.4411339759827,2,versionA_stim.csv,RLVersionB.csv,"Relational Version B","Relational, read only version B",ALONE,LONELY,Study2,S,145,173,Study,User,-,,Study/JOL,"Study Phase",1659,,,-1,-1,,,,1
5f04b3fc4f8dff76b699ac22,bkhal7qdcb,"Deep vs Shallow",1,40,2020-07-08T14:29:01-07:00,2.4431250095367,2,versionA_stim.csv,RLVersionB.csv,"Relational Version B","Relational, read only version B",SAFETY,SEATBELT,Study2,S,147,117,Study,User,-,,Study/JOL,"Study Phase",1611,,,-1,-1,,,,1
5f04b3fc4f8dff76b699ac22,bkhal7qdcb,"Deep vs Shallow",1,41,2020-07-08T14:29:04-07:00,3.3378620147705,2,versionA_stim.csv,RLVersionB.csv,"Relational Version B","Relational, read only version B",BOTH,OUNCE,Study2,U,172,123,Study,User,-,,Study/JOL,"Study Phase",2462,,,-1,-1,,,,1
5f04b3fc4f8dff76b699ac22,bkhal7qdcb,"Deep vs Shallow",1,42,2020-07-08T14:29:06-07:00,2.0589101314545,2,versionA_stim.csv,RLVersionB.csv,"Relational Version B","Relational, read only version B",SLEEP,NAP,Study2,B,134,124,Study,User,-,,Study/JOL,"Study Phase",1390,,,-1,-1,,,,1
5f04b3fc4f8dff76b699ac22,bkhal7qdcb,"Deep vs Shallow",1,43,2020-07-08T14:29:08-07:00,1.8218560218811,2,versionA_stim.csv,RLVersionB.csv,"Relational Version B","Relational, read only version B",Shell,SHAKE,Study2,U,163,153,Study,User,-,,Study/JOL,"Study Phase",1158,,,-1,-1,,,,1
5f04b3fc4f8dff76b699ac22,bkhal7qdcb,"Deep vs Shallow",1,44,2020-07-08T14:29:13-07:00,5.1628329753876,2,versionA_stim.csv,RLVersionB.csv,"Relational Version B","Relational, read only version B",,,,,,0,Instruct,-,3,"Remember to focus on how the two items are similiar while you study!",,CHECK2,4458,,,-1,-1,,,,1
5f04b3fc4f8dff76b699ac22,bkhal7qdcb,"Deep vs Shallow",1,45,2020-07-08T14:29:17-07:00,3.5180268287659,2,versionA_stim.csv,RLVersionB.csv,"Relational Version B","Relational, read only version B",SCALP,HEAD,Study2,F,105,115,Study,User,-,,Study/JOL,"Study Phase",2728,,,-1,-1,,,,1
5f04b3fc4f8dff76b699ac22,bkhal7qdcb,"Deep vs Shallow",1,46,2020-07-08T14:29:23-07:00,6.2773020267487,2,versionA_stim.csv,RLVersionB.csv,"Relational Version B","Relational, read only version B",CLUE,GAME,Study2,F,97,126,Study,User,-,,Study/JOL,"Study Phase",5469,,,-1,-1,,,,1
5f04b3fc4f8dff76b699ac22,bkhal7qdcb,"Deep vs Shallow",1,47,2020-07-08T14:29:25-07:00,2.4793050289154,2,versionA_stim.csv,RLVersionB.csv,"Relational Version B","Relational, read only version B",AFFECTION,LOVE,Study2,F,115,138,Study,User,-,,Study/JOL,"Study Phase",1647,,,-1,-1,,,,1
5f04b3fc4f8dff76b699ac22,bkhal7qdcb,"Deep vs Shallow",1,48,2020-07-08T14:29:27-07:00,2.2210350036621,2,versionA_stim.csv,RLVersionB.csv,"Relational Version B","Relational, read only version B",FLEA,TICK,Study2,S,151,109,Study,User,-,,Study/JOL,"Study Phase",1488,,,-1,-1,,,,1
5f04b3fc4f8dff76b699ac22,bkhal7qdcb,"Deep vs Shallow",1,49,2020-07-08T14:29:31-07:00,3.3868420124054,2,versionA_stim.csv,RLVersionB.csv,"Relational Version B","Relational, read only version B",RAZOR,SHAVE,Study2,S,136,119,Study,User,-,,Study/JOL,"Study Phase",2613,,,-1,-1,,,,1
5f04b3fc4f8dff76b699ac22,bkhal7qdcb,"Deep vs Shallow",1,50,2020-07-08T14:29:34-07:00,3.2123789787292,2,versionA_stim.csv,RLVersionB.csv,"Relational Version B","Relational, read only version B",WATER,DRINK,Study2,S,143,105,Study,User,-,,Study/JOL,"Study Phase",2438,,,-1,-1,,,,1
5f04b3fc4f8dff76b699ac22,bkhal7qdcb,"Deep vs Shallow",1,51,2020-07-08T14:29:37-07:00,3.1701171398163,2,versionA_stim.csv,RLVersionB.csv,"Relational Version B","Relational, read only version B",FURRY,DOG,Study2,F,102,120,Study,User,-,,Study/JOL,"Study Phase",2340,,,-1,-1,,,,1
5f04b3fc4f8dff76b699ac22,bkhal7qdcb,"Deep vs Shallow",1,52,2020-07-08T14:29:40-07:00,3.108608007431,2,versionA_stim.csv,RLVersionB.csv,"Relational Version B","Relational, read only version B",MASON,JAR,Study2,S,138,147,Study,User,-,,Study/JOL,"Study Phase",2329,,,-1,-1,,,,1
5f04b3fc4f8dff76b699ac22,bkhal7qdcb,"Deep vs Shallow",1,53,2020-07-08T14:29:45-07:00,4.4040219783783,2,versionA_stim.csv,RLVersionB.csv,"Relational Version B","Relational, read only version B",STRETCH,CLOTH,Study2,U,157,110,Study,User,-,,Study/JOL,"Study Phase",3296,,,-1,-1,,,,1
5f04b3fc4f8dff76b699ac22,bkhal7qdcb,"Deep vs Shallow",1,54,2020-07-08T14:29:48-07:00,3.6207318305969,2,versionA_stim.csv,RLVersionB.csv,"Relational Version B","Relational, read only version B",MEAT,OBTAIN,Study2,U,161,164,Study,User,-,,Study/JOL,"Study Phase",2765,,,-1,-1,,,,1
5f04b3fc4f8dff76b699ac22,bkhal7qdcb,"Deep vs Shallow",1,55,2020-07-08T14:29:51-07:00,3.0318741798401,2,versionA_stim.csv,RLVersionB.csv,"Relational Version B","Relational, read only version B",OWN,HAVE,Study2,S,153,137,Study,User,-,,Study/JOL,"Study Phase",2162,,,-1,-1,,,,1
5f04b3fc4f8dff76b699ac22,bkhal7qdcb,"Deep vs Shallow",1,56,2020-07-08T14:29:54-07:00,2.2162389755249,2,versionA_stim.csv,RLVersionB.csv,"Relational Version B","Relational, read only version B",ELEMENT,CARBON,Study2,S,141,106,Study,User,-,,Study/JOL,"Study Phase",1657,,,-1,-1,,,,1
5f04b3fc4f8dff76b699ac22,bkhal7qdcb,"Deep vs Shallow",1,57,2020-07-08T14:29:56-07:00,2.5468380451202,2,versionA_stim.csv,RLVersionB.csv,"Relational Version B","Relational, read only version B",FEUD,FIGHT,Study2,F,113,129,Study,User,-,,Study/JOL,"Study Phase",1802,,,-1,-1,,,,1
5f04b3fc4f8dff76b699ac22,bkhal7qdcb,"Deep vs Shallow",1,58,2020-07-08T14:29:59-07:00,2.6120059490204,2,versionA_stim.csv,RLVersionB.csv,"Relational Version B","Relational, read only version B",CHOP,CUT,Study2,F,107,146,Study,User,-,,Study/JOL,"Study Phase",1800,,,-1,-1,,,,1
5f04b3fc4f8dff76b699ac22,bkhal7qdcb,"Deep vs Shallow",1,59,2020-07-08T14:30:02-07:00,3.3646278381348,2,versionA_stim.csv,RLVersionB.csv,"Relational Version B","Relational, read only version B",PLANE,AIRCRAFT,Study2,B,129,127,Study,User,-,,Study/JOL,"Study Phase",2607,,,-1,-1,,,,1
5f04b3fc4f8dff76b699ac22,bkhal7qdcb,"Deep vs Shallow",1,60,2020-07-08T14:30:06-07:00,3.583211183548,2,versionA_stim.csv,RLVersionB.csv,"Relational Version B","Relational, read only version B",LISTEN,FICTION,Study2,U,164,171,Study,User,-,,Study/JOL,"Study Phase",2860,,,-1,-1,,,,1
5f04b3fc4f8dff76b699ac22,bkhal7qdcb,"Deep vs Shallow",1,61,2020-07-08T14:30:09-07:00,3.0004210472107,2,versionA_stim.csv,RLVersionB.csv,"Relational Version B","Relational, read only version B",CRACKLE,ABLE,Study2,U,162,175,Study,User,-,,Study/JOL,"Study Phase",2147,,,-1,-1,,,,1
5f04b3fc4f8dff76b699ac22,bkhal7qdcb,"Deep vs Shallow",1,62,2020-07-08T14:30:11-07:00,2.5718538761139,2,versionA_stim.csv,RLVersionB.csv,"Relational Version B","Relational, read only version B",MULE,DONKEY,Study2,F,108,143,Study,User,-,,Study/JOL,"Study Phase",2023,,,-1,-1,,,,1
5f04b3fc4f8dff76b699ac22,bkhal7qdcb,"Deep vs Shallow",1,63,2020-07-08T14:30:14-07:00,2.4243669509888,2,versionA_stim.csv,RLVersionB.csv,"Relational Version B","Relational, read only version B",DINE,EAT,Study2,F,111,152,Study,User,-,,Study/JOL,"Study Phase",1748,,,-1,-1,,,,1
5f04b3fc4f8dff76b699ac22,bkhal7qdcb,"Deep vs Shallow",1,64,2020-07-08T14:30:16-07:00,2.169399023056,2,versionA_stim.csv,RLVersionB.csv,"Relational Version B","Relational, read only version B",SUN,TAN,Study2,S,155,148,Study,User,-,,Study/JOL,"Study Phase",1601,,,-1,-1,,,,1
5f04b3fc4f8dff76b699ac22,bkhal7qdcb,"Deep vs Shallow",1,65,2020-07-08T14:30:18-07:00,2.4343569278717,2,versionA_stim.csv,RLVersionB.csv,"Relational Version B","Relational, read only version B",DETECTIVE,MYSTERY,Study2,F,100,176,Study,User,-,,Study/JOL,"Study Phase",1720,,,-1,-1,,,,1
5f04b3fc4f8dff76b699ac22,bkhal7qdcb,"Deep vs Shallow",1,66,2020-07-08T14:30:21-07:00,3.0589270591736,2,versionA_stim.csv,RLVersionB.csv,"Relational Version B","Relational, read only version B",STAR,ACTRESS,Study2,B,120,155,Study,User,-,,Study/JOL,"Study Phase",2378,,,-1,-1,,,,1
5f04b3fc4f8dff76b699ac22,bkhal7qdcb,"Deep vs Shallow",1,67,2020-07-08T14:30:23-07:00,1.8177571296692,2,versionA_stim.csv,RLVersionB.csv,"Relational Version B","Relational, read only version B",MAIN,SCAR,Study2,U,175,158,Study,User,-,,Study/JOL,"Study Phase",1033,,,-1,-1,,,,1
5f04b3fc4f8dff76b699ac22,bkhal7qdcb,"Deep vs Shallow",1,68,2020-07-08T14:30:25-07:00,1.8300919532776,2,versionA_stim.csv,RLVersionB.csv,"Relational Version B","Relational, read only version B",HONEST,TRUTHFUL,Study2,B,133,122,Study,User,-,,Study/JOL,"Study Phase",1148,,,-1,-1,,,,1
5f04b3fc4f8dff76b699ac22,bkhal7qdcb,"Deep vs Shallow",1,69,2020-07-08T14:30:27-07:00,1.9592988491058,2,versionA_stim.csv,RLVersionB.csv,"Relational Version B","Relational, read only version B",FUZZY,BANG,Study2,U,168,136,Study,User,-,,Study/JOL,"Study Phase",1139,,,-1,-1,,,,1
5f04b3fc4f8dff76b699ac22,bkhal7qdcb,"Deep vs Shallow",1,70,2020-07-08T14:30:29-07:00,2.1180801391602,2,versionA_stim.csv,RLVersionB.csv,"Relational Version B","Relational, read only version B",CHILL,COLD,Study2,F,114,130,Study,User,-,,Study/JOL,"Study Phase",1274,,,-1,-1,,,,1
5f04b3fc4f8dff76b699ac22,bkhal7qdcb,"Deep vs Shallow",1,71,2020-07-08T14:30:31-07:00,2.1695358753204,2,versionA_stim.csv,RLVersionB.csv,"Relational Version B","Relational, read only version B",FRUIT,STRAWBERRY,Study2,B,124,125,Study,User,-,,Study/JOL,"Study Phase",1406,,,-1,-1,,,,1
5f04b3fc4f8dff76b699ac22,bkhal7qdcb,"Deep vs Shallow",1,72,2020-07-08T14:30:33-07:00,1.7769751548767,2,versionA_stim.csv,RLVersionB.csv,"Relational Version B","Relational, read only version B",RIGHTS,EQUAL,Study2,S,137,169,Study,User,-,,Study/JOL,"Study Phase",1102,,,-1,-1,,,,1
5f04b3fc4f8dff76b699ac22,bkhal7qdcb,"Deep vs Shallow",1,73,2020-07-08T14:30:35-07:00,1.7626860141754,2,versionA_stim.csv,RLVersionB.csv,"Relational Version B","Relational, read only version B",MAZE,ELECTION,Study2,U,159,116,Study,User,-,,Study/JOL,"Study Phase",1142,,,-1,-1,,,,1
5f04b3fc4f8dff76b699ac22,bkhal7qdcb,"Deep vs Shallow",1,74,2020-07-08T14:30:37-07:00,1.9705078601837,2,versionA_stim.csv,RLVersionB.csv,"Relational Version B","Relational, read only version B",DRIVER,CAR,Study2,F,106,98,Study,User,-,,Study/JOL,"Study Phase",1401,,,-1,-1,,,,1
5f04b3fc4f8dff76b699ac22,bkhal7qdcb,"Deep vs Shallow",1,75,2020-07-08T14:30:39-07:00,2.5270221233368,2,versionA_stim.csv,RLVersionB.csv,"Relational Version B","Relational, read only version B",VEHICLE,CHARM,Study2,U,160,118,Study,User,-,,Study/JOL,"Study Phase",1675,,,-1,-1,,,,1
5f04b3fc4f8dff76b699ac22,bkhal7qdcb,"Deep vs Shallow",1,76,2020-07-08T14:30:41-07:00,1.8878948688507,2,versionA_stim.csv,RLVersionB.csv,"Relational Version B","Relational, read only version B",WRIST,BRACELET,Study2,S,140,108,Study,User,-,,Study/JOL,"Study Phase",1126,,,-1,-1,,,,1
5f04b3fc4f8dff76b699ac22,bkhal7qdcb,"Deep vs Shallow",1,77,2020-07-08T14:30:43-07:00,2.0907480716705,2,versionA_stim.csv,RLVersionB.csv,"Relational Version B","Relational, read only version B",BIRD,PENGUIN,Study2,B,119,113,Study,User,-,,Study/JOL,"Study Phase",1463,,,-1,-1,,,,1
5f04b3fc4f8dff76b699ac22,bkhal7qdcb,"Deep vs Shallow",1,78,2020-07-08T14:30:45-07:00,1.7171430587769,2,versionA_stim.csv,RLVersionB.csv,"Relational Version B","Relational, read only version B",BAD,VILLAIN,Study2,B,118,168,Study,User,-,,Study/JOL,"Study Phase",1128,,,-1,-1,,,,1
5f04b3fc4f8dff76b699ac22,bkhal7qdcb,"Deep vs Shallow",1,79,2020-07-08T14:30:47-07:00,1.8521389961243,2,versionA_stim.csv,RLVersionB.csv,"Relational Version B","Relational, read only version B",DRY,WET,Study2,S,146,149,Study,User,-,,Study/JOL,"Study Phase",1223,,,-1,-1,,,,1
5f04b3fc4f8dff76b699ac22,bkhal7qdcb,"Deep vs Shallow",1,80,2020-07-08T14:30:49-07:00,1.9561350345612,2,versionA_stim.csv,RLVersionB.csv,"Relational Version B","Relational, read only version B",SHOELACE,TIE,Study2,F,99,131,Study,User,-,,Study/JOL,"Study Phase",1360,,,-1,-1,,,,1
5f04b3fc4f8dff76b699ac22,bkhal7qdcb,"Deep vs Shallow",1,81,2020-07-08T14:30:50-07:00,1.6601138114929,2,versionA_stim.csv,RLVersionB.csv,"Relational Version B","Relational, read only version B",ROD,REEL,Study2,S,150,160,Study,User,-,,Study/JOL,"Study Phase",950,,,-1,-1,,,,1
5f04b3fc4f8dff76b699ac22,bkhal7qdcb,"Deep vs Shallow",1,82,2020-07-08T14:30:53-07:00,2.42555809021,2,versionA_stim.csv,RLVersionB.csv,"Relational Version B","Relational, read only version B",SHEARS,SCISSORS,Study2,F,112,172,Study,User,-,,Study/JOL,"Study Phase",1389,,,-1,-1,,,,1
5f04b3fc4f8dff76b699ac22,bkhal7qdcb,"Deep vs Shallow",1,83,2020-07-08T14:30:55-07:00,1.9608569145203,2,versionA_stim.csv,RLVersionB.csv,"Relational Version B","Relational, read only version B",PHONE,COMMUNICATION,Study2,S,149,111,Study,User,-,,Study/JOL,"Study Phase",1251,,,-1,-1,,,,1
5f04b3fc4f8dff76b699ac22,bkhal7qdcb,"Deep vs Shallow",1,84,2020-07-08T14:30:57-07:00,1.7481610774994,2,versionA_stim.csv,RLVersionB.csv,"Relational Version B","Relational, read only version B",MONEY,BANKER,Study2,B,132,104,Study,User,-,,Study/JOL,"Study Phase",1136,,,-1,-1,,,,1
5f04b3fc4f8dff76b699ac22,bkhal7qdcb,"Deep vs Shallow",1,85,2020-07-08T14:30:58-07:00,1.7518379688263,2,versionA_stim.csv,RLVersionB.csv,"Relational Version B","Relational, read only version B",CAR,WINDSHIELD,Study2,B,117,102,Study,User,-,,Study/JOL,"Study Phase",1074,,,-1,-1,,,,1
5f04b3fc4f8dff76b699ac22,bkhal7qdcb,"Deep vs Shallow",1,86,2020-07-08T14:31:00-07:00,1.6551220417023,2,versionA_stim.csv,RLVersionB.csv,"Relational Version B","Relational, read only version B",CAT,PANTHER,Study2,B,126,156,Study,User,-,,Study/JOL,"Study Phase",1056,,,-1,-1,,,,1
5f04b3fc4f8dff76b699ac22,bkhal7qdcb,"Deep vs Shallow",1,87,2020-07-08T14:31:02-07:00,1.6811509132385,2,versionA_stim.csv,RLVersionB.csv,"Relational Version B","Relational, read only version B",CACTUS,PLANT,Study2,F,98,174,Study,User,-,,Study/JOL,"Study Phase",1041,,,-1,-1,,,,1
5f04b3fc4f8dff76b699ac22,bkhal7qdcb,"Deep vs Shallow",1,88,2020-07-08T14:31:03-07:00,1.6655042171478,2,versionA_stim.csv,RLVersionB.csv,"Relational Version B","Relational, read only version B",DOCUMENT,PAPER,Study2,F,109,142,Study,User,-,,Study/JOL,"Study Phase",1044,,,-1,-1,,,,1
5f04b3fc4f8dff76b699ac22,bkhal7qdcb,"Deep vs Shallow",1,89,2020-07-08T14:31:05-07:00,2.0091118812561,2,versionA_stim.csv,RLVersionB.csv,"Relational Version B","Relational, read only version B",BASEBALL,LEAGUE,Study2,B,131,100,Study,User,-,,Study/JOL,"Study Phase",1421,,,-1,-1,,,,1
5f04b3fc4f8dff76b699ac22,bkhal7qdcb,"Deep vs Shallow",1,90,2020-07-08T14:31:07-07:00,1.9488921165466,2,versionA_stim.csv,RLVersionB.csv,"Relational Version B","Relational, read only version B",TURN,FLIP,Study2,B,116,154,Study,User,-,,Study/JOL,"Study Phase",1257,,,-1,-1,,,,1
5f04b3fc4f8dff76b699ac22,bkhal7qdcb,"Deep vs Shallow",1,91,2020-07-08T14:31:10-07:00,2.9374189376831,2,versionA_stim.csv,RLVersionB.csv,"Relational Version B","Relational, read only version B",DAYS,WEAKS,BUFFER4,Buffer,176,180,Study,User,-,,Study/JOL,BUFFER2,2181,,,-1,-1,,,,1
5f04b3fc4f8dff76b699ac22,bkhal7qdcb,"Deep vs Shallow",1,92,2020-07-08T14:31:12-07:00,2.1967329978943,2,versionA_stim.csv,RLVersionB.csv,"Relational Version B","Relational, read only version B",MONTH,YEAR,BUFFER4,Buffer,177,178,Study,User,-,,Study/JOL,BUFFER2,1180,,,-1,-1,,,,1
5f04b3fc4f8dff76b699ac22,bkhal7qdcb,"Deep vs Shallow",1,93,2020-07-08T14:31:14-07:00,1.6949698925018,2,versionA_stim.csv,RLVersionB.csv,"Relational Version B","Relational, read only version B",TOOL,SHED,BUFFER4,Buffer,178,177,Study,User,-,,Study/JOL,BUFFER2,1057,,,-1,-1,,,,1
5f04b3fc4f8dff76b699ac22,bkhal7qdcb,"Deep vs Shallow",1,94,2020-07-08T14:31:16-07:00,1.8534400463104,2,versionA_stim.csv,RLVersionB.csv,"Relational Version B","Relational, read only version B",SPRING,MARCH,BUFFER4,Buffer,179,181,Study,User,-,,Study/JOL,BUFFER2,1197,,,-1,-1,,,,1
5f04b3fc4f8dff76b699ac22,bkhal7qdcb,"Deep vs Shallow",1,95,2020-07-08T14:31:19-07:00,2.7292120456696,2,versionA_stim.csv,RLVersionB.csv,"Relational Version B","Relational, read only version B",OCTOBER,SPOOKY,BUFFER4,Buffer,180,179,Study,User,-,,Study/JOL,BUFFER2,1963,,,-1,-1,,,,1
5f04b3fc4f8dff76b699ac22,bkhal7qdcb,"Deep vs Shallow",1,96,2020-07-08T14:31:22-07:00,3.6280450820923,2,versionA_stim.csv,RLVersionB.csv,"Relational Version B","Relational, read only version B",,,,,,0,Instruct,User,-,"You have completed this section. Please press Enter.",Filler_Instruction,Instruct2,2855,,,-1,-1,,,,1
5f04b3fc4f8dff76b699ac22,bkhal7qdcb,"Deep vs Shallow",1,97,2020-07-08T14:31:32-07:00,9.7491858005524,2,versionA_stim.csv,RLVersionB.csv,"Relational Version B","Relational, read only version B",,,,,,0,Instruct,User,-,"You have completed this section. Please press Enter.",Filler_Instruction,Instruct5,8954,,,-1,-1,,,,1
5f04b3fc4f8dff76b699ac22,bkhal7qdcb,"Deep vs Shallow",1,98,2020-07-08T14:32:28-07:00,56.106535196304,2,versionA_stim.csv,RLVersionB.csv,"Relational Version B","Relational, read only version B",,,,,,0,FreeRecall,-,10,"What were you supposed to focus on while you studied each pair? (Hint: Think back to the instructions). Type your answer in the space below.",,CHECK3,55086,"what they had in common Or if they are similar ",0,-1,-1,0,0,,1
5f04b3fc4f8dff76b699ac22,bkhal7qdcb,"Deep vs Shallow",1,99,2020-07-08T14:34:29-07:00,120.95775580406,2,versionA_stim.csv,RLVersionB.csv,"Relational Version B","Relational, read only version B",,,,,,0,FreeRecall,120,120,"Please list the 50 US states in alphabetical order. The task will automatically advance to the next screen after two minutes.",,Filler1,120013,"alabama alaska Arizona arkanzas california colarado Connecticut Delaware florida",0,-1,-1,0,0,,1
5f04b3fc4f8dff76b699ac22,bkhal7qdcb,"Deep vs Shallow",1,100,2020-07-08T14:34:47-07:00,17.94371008873,2,versionA_stim.csv,RLVersionB.csv,"Relational Version B","Relational, read only version B",,,,,,0,Instruct,-,10,"You will now be presented with the first word from each of the previously studied item pairs. Please type the missing word. If you do not know the word, you may guess or press Enter to skip forward to the next pair.",,Instruct3,17248,,,-1,-1,,,,1
5f04b3fc4f8dff76b699ac22,bkhal7qdcb,"Deep vs Shallow",1,101,2020-07-08T14:35:00-07:00,13.289490938187,2,versionA_stim.csv,RLVersionB.csv,"Relational Version B","Relational, read only version B",FUZZY,BANG,Study2,U,168,136,Test,User,-,,Recall,Recall1,11433,"dog ",28.571428571429,-1,-1,0,0,,1
5f04b3fc4f8dff76b699ac22,bkhal7qdcb,"Deep vs Shallow",1,102,2020-07-08T14:35:11-07:00,10.098082065582,2,versionA_stim.csv,RLVersionB.csv,"Relational Version B","Relational, read only version B",MONEY,BANKER,Study2,B,132,104,Test,User,-,,Recall,Recall1,9290,"cash ",20,-1,-1,0,0,,1
5f04b3fc4f8dff76b699ac22,bkhal7qdcb,"Deep vs Shallow",1,103,2020-07-08T14:35:19-07:00,8.3898561000824,2,versionA_stim.csv,RLVersionB.csv,"Relational Version B","Relational, read only version B",RIGHTS,EQUAL,Study2,S,137,169,Test,User,-,,Recall,Recall1,7275,wrong,0,-1,-1,0,0,,1
5f04b3fc4f8dff76b699ac22,bkhal7qdcb,"Deep vs Shallow",1,104,2020-07-08T14:35:25-07:00,5.7192299365997,2,versionA_stim.csv,RLVersionB.csv,"Relational Version B","Relational, read only version B",POP,BALLOON,Study2,B,123,103,Test,User,-,,Recall,Recall1,4672,"drink ",16.666666666667,-1,-1,0,0,,1
5f04b3fc4f8dff76b699ac22,bkhal7qdcb,"Deep vs Shallow",1,105,2020-07-08T14:35:33-07:00,8.2488968372345,2,versionA_stim.csv,RLVersionB.csv,"Relational Version B","Relational, read only version B",GIVE,STEAK,Study2,U,158,114,Test,User,-,,Recall,Recall1,7484,take,66.666666666667,-1,-1,0,0,,1
5f04b3fc4f8dff76b699ac22,bkhal7qdcb,"Deep vs Shallow",1,106,2020-07-08T14:35:39-07:00,5.9005601406097,2,versionA_stim.csv,RLVersionB.csv,"Relational Version B","Relational, read only version B",TURN,FLIP,Study2,B,116,154,Test,User,-,,Recall,Recall1,4977,"around ",0,-1,-1,0,0,,1
5f04b3fc4f8dff76b699ac22,bkhal7qdcb,"Deep vs Shallow",1,107,2020-07-08T14:35:45-07:00,5.8693089485168,2,versionA_stim.csv,RLVersionB.csv,"Relational Version B","Relational, read only version B",WATER,DRINK,Study2,S,143,105,Test,User,-,,Recall,Recall1,5061,"drink ",100,-1,-1,1,1,,1
5f04b3fc4f8dff76b699ac22,bkhal7qdcb,"Deep vs Shallow",1,108,2020-07-08T14:35:51-07:00,6.4121150970459,2,versionA_stim.csv,RLVersionB.csv,"Relational Version B","Relational, read only version B",SHOELACE,TIE,Study2,F,99,131,Test,User,-,,Recall,Recall1,5464,"trainer ",60,-1,-1,0,0,,1
5f04b3fc4f8dff76b699ac22,bkhal7qdcb,"Deep vs Shallow",1,109,2020-07-08T14:36:03-07:00,11.9148478508,2,versionA_stim.csv,RLVersionB.csv,"Relational Version B","Relational, read only version B",PLANE,AIRCRAFT,Study2,B,129,127,Test,User,-,,Recall,Recall1,11204,"aircraft ",100,-1,-1,1,1,,1
5f04b3fc4f8dff76b699ac22,bkhal7qdcb,"Deep vs Shallow",1,110,2020-07-08T14:36:13-07:00,10.404592990875,2,versionA_stim.csv,RLVersionB.csv,"Relational Version B","Relational, read only version B",CANDLE,WAX,Study2,S,139,163,Test,User,-,,Recall,Recall1,9672,"wax ",100,-1,-1,1,1,,1
5f04b3fc4f8dff76b699ac22,bkhal7qdcb,"Deep vs Shallow",1,111,2020-07-08T14:36:32-07:00,18.186094999313,2,versionA_stim.csv,RLVersionB.csv,"Relational Version B","Relational, read only version B",CAR,WINDSHIELD,Study2,B,117,102,Test,User,-,,Recall,Recall1,17362,"Vehicle ",35.294117647059,-1,-1,0,0,,1
5f04b3fc4f8dff76b699ac22,bkhal7qdcb,"Deep vs Shallow",1,112,2020-07-08T14:36:36-07:00,4.8569240570068,2,versionA_stim.csv,RLVersionB.csv,"Relational Version B","Relational, read only version B",OWN,HAVE,Study2,S,153,137,Test,User,-,,Recall,Recall1,3918,mine,25,-1,-1,0,0,,1
5f04b3fc4f8dff76b699ac22,bkhal7qdcb,"Deep vs Shallow",1,113,2020-07-08T14:36:44-07:00,7.1992409229279,2,versionA_stim.csv,RLVersionB.csv,"Relational Version B","Relational, read only version B",CAKE,CLOTHES,Study2,U,166,159,Test,User,-,,Recall,Recall1,6358,"clothes ",100,-1,-1,1,1,,1
5f04b3fc4f8dff76b699ac22,bkhal7qdcb,"Deep vs Shallow",1,114,2020-07-08T14:36:49-07:00,5.2080700397491,2,versionA_stim.csv,RLVersionB.csv,"Relational Version B","Relational, read only version B",MULE,DONKEY,Study2,F,108,143,Test,User,-,,Recall,Recall1,4357,horse,36.363636363636,-1,-1,0,0,,1
5f04b3fc4f8dff76b699ac22,bkhal7qdcb,"Deep vs Shallow",1,115,2020-07-08T14:37:02-07:00,13.40064406395,2,versionA_stim.csv,RLVersionB.csv,"Relational Version B","Relational, read only version B",CLUE,GAME,Study2,F,97,126,Test,User,-,,Recall,Recall1,12372,Answer,40,-1,-1,0,0,,1
5f04b3fc4f8dff76b699ac22,bkhal7qdcb,"Deep vs Shallow",1,116,2020-07-08T14:37:38-07:00,35.704061985016,2,versionA_stim.csv,RLVersionB.csv,"Relational Version B","Relational, read only version B",JUSTICE,MAROON,Study2,U,156,144,Test,User,-,,Recall,Recall1,34764,"end ",22.222222222222,-1,-1,0,0,,1
5f04b3fc4f8dff76b699ac22,bkhal7qdcb,"Deep vs Shallow",1,117,2020-07-08T14:37:43-07:00,4.8805599212646,2,versionA_stim.csv,RLVersionB.csv,"Relational Version B","Relational, read only version B",BAD,VILLAIN,Study2,B,118,168,Test,User,-,,Recall,Recall1,4006,good,0,-1,-1,0,0,,1
5f04b3fc4f8dff76b699ac22,bkhal7qdcb,"Deep vs Shallow",1,118,2020-07-08T14:38:11-07:00,28.043666124344,2,versionA_stim.csv,RLVersionB.csv,"Relational Version B","Relational, read only version B",NAME,HATE,Study2,U,167,167,Test,User,-,,Recall,Recall1,25965,,0,-1,-1,0,0,,1
5f04b3fc4f8dff76b699ac22,bkhal7qdcb,"Deep vs Shallow",1,119,2020-07-08T14:38:22-07:00,11.424268960953,2,versionA_stim.csv,RLVersionB.csv,"Relational Version B","Relational, read only version B",THREAD,THIMBLE,Study2,B,121,150,Test,User,-,,Recall,Recall1,10609,"Thimble ",100,-1,-1,1,1,,1
5f04b3fc4f8dff76b699ac22,bkhal7qdcb,"Deep vs Shallow",1,120,2020-07-08T14:38:29-07:00,6.8814079761505,2,versionA_stim.csv,RLVersionB.csv,"Relational Version B","Relational, read only version B",FEUD,FIGHT,Study2,F,113,129,Test,User,-,,Recall,Recall1,6075,"fight ",100,-1,-1,1,1,,1
5f04b3fc4f8dff76b699ac22,bkhal7qdcb,"Deep vs Shallow",1,121,2020-07-08T14:38:36-07:00,6.7464220523834,2,versionA_stim.csv,RLVersionB.csv,"Relational Version B","Relational, read only version B",CHOP,CUT,Study2,F,107,146,Test,User,-,,Recall,Recall1,6057,cut,100,-1,-1,1,1,,1
5f04b3fc4f8dff76b699ac22,bkhal7qdcb,"Deep vs Shallow",1,122,2020-07-08T14:38:42-07:00,5.9018270969391,2,versionA_stim.csv,RLVersionB.csv,"Relational Version B","Relational, read only version B",DEAD,COFFIN,Study2,B,128,157,Test,User,-,,Recall,Recall1,4816,buried,16.666666666667,-1,-1,0,0,,1
5f04b3fc4f8dff76b699ac22,bkhal7qdcb,"Deep vs Shallow",1,123,2020-07-08T14:38:49-07:00,7.1995627880096,2,versionA_stim.csv,RLVersionB.csv,"Relational Version B","Relational, read only version B",TRUTH,LIE,Study2,S,148,121,Test,User,-,,Recall,Recall1,6386,lie,100,-1,-1,1,1,,1
5f04b3fc4f8dff76b699ac22,bkhal7qdcb,"Deep vs Shallow",1,124,2020-07-08T14:39:03-07:00,13.548930168152,2,versionA_stim.csv,RLVersionB.csv,"Relational Version B","Relational, read only version B",ADJOURN,END,Study2,F,101,161,Test,User,-,,Recall,Recall1,12739,end,100,-1,-1,1,1,,1
5f04b3fc4f8dff76b699ac22,bkhal7qdcb,"Deep vs Shallow",1,125,2020-07-08T14:39:07-07:00,4.3958039283752,2,versionA_stim.csv,RLVersionB.csv,"Relational Version B","Relational, read only version B",DRY,WET,Study2,S,146,149,Test,User,-,,Recall,Recall1,3589,wet,100,-1,-1,1,1,,1
5f04b3fc4f8dff76b699ac22,bkhal7qdcb,"Deep vs Shallow",1,126,2020-07-08T14:39:26-07:00,18.59765791893,2,versionA_stim.csv,RLVersionB.csv,"Relational Version B","Relational, read only version B",DETECTIVE,MYSTERY,Study2,F,100,176,Test,User,-,,Recall,Recall1,17570,"investigate ",33.333333333333,-1,-1,0,0,,1
5f04b3fc4f8dff76b699ac22,bkhal7qdcb,"Deep vs Shallow",1,127,2020-07-08T14:39:31-07:00,5.0180871486664,2,versionA_stim.csv,RLVersionB.csv,"Relational Version B","Relational, read only version B",CHILL,COLD,Study2,F,114,130,Test,User,-,,Recall,Recall1,4213,hot,28.571428571429,-1,-1,0,0,,1
5f04b3fc4f8dff76b699ac22,bkhal7qdcb,"Deep vs Shallow",1,128,2020-07-08T14:39:35-07:00,4.8745019435883,2,versionA_stim.csv,RLVersionB.csv,"Relational Version B","Relational, read only version B",AFFECTION,LOVE,Study2,F,115,138,Test,User,-,,Recall,Recall1,4069,love,100,-1,-1,1,1,,1
5f04b3fc4f8dff76b699ac22,bkhal7qdcb,"Deep vs Shallow",1,129,2020-07-08T14:39:41-07:00,5.622631072998,2,versionA_stim.csv,RLVersionB.csv,"Relational Version B","Relational, read only version B",EARTH,GROUND,Study2,S,144,151,Test,User,-,,Recall,Recall1,4677,sun,44.444444444444,-1,-1,0,0,,1
5f04b3fc4f8dff76b699ac22,bkhal7qdcb,"Deep vs Shallow",1,130,2020-07-08T14:39:51-07:00,9.4535980224609,2,versionA_stim.csv,RLVersionB.csv,"Relational Version B","Relational, read only version B",Shell,SHAKE,Study2,U,163,153,Test,User,-,,Recall,Recall1,8623,crab,22.222222222222,-1,-1,0,0,,1
5f04b3fc4f8dff76b699ac22,bkhal7qdcb,"Deep vs Shallow",1,131,2020-07-08T14:39:55-07:00,4.4755380153656,2,versionA_stim.csv,RLVersionB.csv,"Relational Version B","Relational, read only version B",CRACKLE,ABLE,Study2,U,162,175,Test,User,-,,Recall,Recall1,3623,pop,0,-1,-1,0,0,,1
5f04b3fc4f8dff76b699ac22,bkhal7qdcb,"Deep vs Shallow",1,132,2020-07-08T14:40:01-07:00,5.9756059646606,2,versionA_stim.csv,RLVersionB.csv,"Relational Version B","Relational, read only version B",LISTEN,FICTION,Study2,U,164,171,Test,User,-,,Recall,Recall1,5086,hear,0,-1,-1,0,0,,1
5f04b3fc4f8dff76b699ac22,bkhal7qdcb,"Deep vs Shallow",1,133,2020-07-08T14:40:05-07:00,4.0957410335541,2,versionA_stim.csv,RLVersionB.csv,"Relational Version B","Relational, read only version B",STAR,ACTRESS,Study2,B,120,155,Test,User,-,,Recall,Recall1,3237,sun,20,-1,-1,0,0,,1
5f04b3fc4f8dff76b699ac22,bkhal7qdcb,"Deep vs Shallow",1,134,2020-07-08T14:40:10-07:00,4.6979608535767,2,versionA_stim.csv,RLVersionB.csv,"Relational Version B","Relational, read only version B",BEST,FAVORITE,Study2,B,125,99,Test,User,-,,Recall,Recall1,3914,good,16.666666666667,-1,-1,0,0,,1
5f04b3fc4f8dff76b699ac22,bkhal7qdcb,"Deep vs Shallow",1,135,2020-07-08T14:40:24-07:00,14.14705991745,2,versionA_stim.csv,RLVersionB.csv,"Relational Version B","Relational, read only version B",STRETCH,CLOTH,Study2,U,157,110,Test,User,-,,Recall,Recall1,13096,Cloth,100,-1,-1,1,1,,1
5f04b3fc4f8dff76b699ac22,bkhal7qdcb,"Deep vs Shallow",1,136,2020-07-08T14:40:30-07:00,6.4942991733551,2,versionA_stim.csv,RLVersionB.csv,"Relational Version B","Relational, read only version B",MEAT,OBTAIN,Study2,U,161,164,Test,User,-,,Recall,Recall1,5638,,0,-1,-1,0,0,,1
5f04b3fc4f8dff76b699ac22,bkhal7qdcb,"Deep vs Shallow",1,137,2020-07-08T14:40:35-07:00,4.9214329719543,2,versionA_stim.csv,RLVersionB.csv,"Relational Version B","Relational, read only version B",EXTENSION,LONG,Study2,F,96,135,Test,User,-,,Recall,Recall1,3866,,0,-1,-1,0,0,,1
5f04b3fc4f8dff76b699ac22,bkhal7qdcb,"Deep vs Shallow",1,138,2020-07-08T14:40:40-07:00,4.6639399528503,2,versionA_stim.csv,RLVersionB.csv,"Relational Version B","Relational, read only version B",WRIST,BRACELET,Study2,S,140,108,Test,User,-,,Recall,Recall1,3853,Hand,16.666666666667,-1,-1,0,0,,1
5f04b3fc4f8dff76b699ac22,bkhal7qdcb,"Deep vs Shallow",1,139,2020-07-08T14:40:57-07:00,17.245685100555,2,versionA_stim.csv,RLVersionB.csv,"Relational Version B","Relational, read only version B",HONEST,TRUTHFUL,Study2,B,133,122,Test,User,-,,Recall,Recall1,16016,Dishonest,11.764705882353,-1,-1,0,0,,1
5f04b3fc4f8dff76b699ac22,bkhal7qdcb,"Deep vs Shallow",1,140,2020-07-08T14:41:05-07:00,7.8900139331818,2,versionA_stim.csv,RLVersionB.csv,"Relational Version B","Relational, read only version B",ELEMENT,CARBON,Study2,S,141,106,Test,User,-,,Recall,Recall1,6908,air,44.444444444444,-1,-1,0,0,,1
5f04b3fc4f8dff76b699ac22,bkhal7qdcb,"Deep vs Shallow",1,141,2020-07-08T14:41:10-07:00,4.9627330303192,2,versionA_stim.csv,RLVersionB.csv,"Relational Version B","Relational, read only version B",DRIVER,CAR,Study2,F,106,98,Test,User,-,,Recall,Recall1,4297,car,100,-1,-1,1,1,,1
5f04b3fc4f8dff76b699ac22,bkhal7qdcb,"Deep vs Shallow",1,142,2020-07-08T14:41:16-07:00,5.5766389369965,2,versionA_stim.csv,RLVersionB.csv,"Relational Version B","Relational, read only version B",ROD,REEL,Study2,S,150,160,Test,User,-,,Recall,Recall1,4736,stick,0,-1,-1,0,0,,1
5f04b3fc4f8dff76b699ac22,bkhal7qdcb,"Deep vs Shallow",1,143,2020-07-08T14:41:24-07:00,7.9054610729218,2,versionA_stim.csv,RLVersionB.csv,"Relational Version B","Relational, read only version B",EVEN,REVENGE,Study2,B,122,162,Test,User,-,,Recall,Recall1,7184,uneven,61.538461538462,-1,-1,0,0,,1
5f04b3fc4f8dff76b699ac22,bkhal7qdcb,"Deep vs Shallow",1,144,2020-07-08T14:41:29-07:00,5.2590479850769,2,versionA_stim.csv,RLVersionB.csv,"Relational Version B","Relational, read only version B",SCALP,HEAD,Study2,F,105,115,Test,User,-,,Recall,Recall1,4214,"Head ",100,-1,-1,1,1,,1
5f04b3fc4f8dff76b699ac22,bkhal7qdcb,"Deep vs Shallow",1,145,2020-07-08T14:41:39-07:00,10.495851993561,2,versionA_stim.csv,RLVersionB.csv,"Relational Version B","Relational, read only version B",SLEEP,NAP,Study2,B,134,124,Test,User,-,,Recall,Recall1,9702,awake,25,-1,-1,0,0,,1
5f04b3fc4f8dff76b699ac22,bkhal7qdcb,"Deep vs Shallow",1,146,2020-07-08T14:41:45-07:00,5.6431479454041,2,versionA_stim.csv,RLVersionB.csv,"Relational Version B","Relational, read only version B",RAZOR,SHAVE,Study2,S,136,119,Test,User,-,,Recall,Recall1,4878,shave,100,-1,-1,1,1,,1
5f04b3fc4f8dff76b699ac22,bkhal7qdcb,"Deep vs Shallow",1,147,2020-07-08T14:41:55-07:00,9.6606681346893,2,versionA_stim.csv,RLVersionB.csv,"Relational Version B","Relational, read only version B",FRUIT,STRAWBERRY,Study2,B,124,125,Test,User,-,,Recall,Recall1,8847,Veg,15.384615384615,-1,-1,0,0,,1
5f04b3fc4f8dff76b699ac22,bkhal7qdcb,"Deep vs Shallow",1,148,2020-07-08T14:41:59-07:00,4.7651979923248,2,versionA_stim.csv,RLVersionB.csv,"Relational Version B","Relational, read only version B",CACTUS,PLANT,Study2,F,98,174,Test,User,-,,Recall,Recall1,3931,plant,100,-1,-1,1,1,,1
5f04b3fc4f8dff76b699ac22,bkhal7qdcb,"Deep vs Shallow",1,149,2020-07-08T14:42:09-07:00,9.9729487895966,2,versionA_stim.csv,RLVersionB.csv,"Relational Version B","Relational, read only version B",LOUD,NOISE,Study2,S,152,134,Test,User,-,,Recall,Recall1,9349,Noisy,80,-1,-1,0,1,,1
5f04b3fc4f8dff76b699ac22,bkhal7qdcb,"Deep vs Shallow",1,150,2020-07-08T14:42:27-07:00,18.085964202881,2,versionA_stim.csv,RLVersionB.csv,"Relational Version B","Relational, read only version B",VEHICLE,CHARM,Study2,U,160,118,Test,User,-,,Recall,Recall1,17122,car,75,-1,-1,0,1,,1
5f04b3fc4f8dff76b699ac22,bkhal7qdcb,"Deep vs Shallow",1,151,2020-07-08T14:42:32-07:00,4.785336971283,2,versionA_stim.csv,RLVersionB.csv,"Relational Version B","Relational, read only version B",FISH,SARDINE,Study2,B,130,97,Test,User,-,,Recall,Recall1,4007,"crab ",18.181818181818,-1,-1,0,0,,1
5f04b3fc4f8dff76b699ac22,bkhal7qdcb,"Deep vs Shallow",1,152,2020-07-08T14:42:44-07:00,11.395891904831,2,versionA_stim.csv,RLVersionB.csv,"Relational Version B","Relational, read only version B",LITTER,TRASH,Study2,F,103,139,Test,User,-,,Recall,Recall1,10514,"Rubbish ",50,-1,-1,0,0,,1
5f04b3fc4f8dff76b699ac22,bkhal7qdcb,"Deep vs Shallow",1,153,2020-07-08T14:42:48-07:00,4.7190289497375,2,versionA_stim.csv,RLVersionB.csv,"Relational Version B","Relational, read only version B",DOCUMENT,PAPER,Study2,F,109,142,Test,User,-,,Recall,Recall1,3700,letter,36.363636363636,-1,-1,0,0,,1
5f04b3fc4f8dff76b699ac22,bkhal7qdcb,"Deep vs Shallow",1,154,2020-07-08T14:42:54-07:00,6.080491065979,2,versionA_stim.csv,RLVersionB.csv,"Relational Version B","Relational, read only version B",SUN,TAN,Study2,S,155,148,Test,User,-,,Recall,Recall1,5025,Moon,28.571428571429,-1,-1,0,0,,1
5f04b3fc4f8dff76b699ac22,bkhal7qdcb,"Deep vs Shallow",1,155,2020-07-08T14:43:03-07:00,9.0204210281372,2,versionA_stim.csv,RLVersionB.csv,"Relational Version B","Relational, read only version B",GLASS,BREAKABLE,Study2,B,127,145,Test,User,-,,Recall,Recall1,7952,Children,23.529411764706,-1,-1,0,0,,1
5f04b3fc4f8dff76b699ac22,bkhal7qdcb,"Deep vs Shallow",1,156,2020-07-08T14:43:12-07:00,8.4067809581757,2,versionA_stim.csv,RLVersionB.csv,"Relational Version B","Relational, read only version B",MASON,JAR,Study2,S,138,147,Test,User,-,,Recall,Recall1,7611,Jar,100,-1,-1,1,1,,1
5f04b3fc4f8dff76b699ac22,bkhal7qdcb,"Deep vs Shallow",1,157,2020-07-08T14:43:21-07:00,9.3424260616302,2,versionA_stim.csv,RLVersionB.csv,"Relational Version B","Relational, read only version B",CAT,PANTHER,Study2,B,126,156,Test,User,-,,Recall,Recall1,8578,furry,16.666666666667,-1,-1,0,0,,1
5f04b3fc4f8dff76b699ac22,bkhal7qdcb,"Deep vs Shallow",1,158,2020-07-08T14:43:29-07:00,8.1329019069672,2,versionA_stim.csv,RLVersionB.csv,"Relational Version B","Relational, read only version B",PHONE,COMMUNICATION,Study2,S,149,111,Test,User,-,,Recall,Recall1,7346,"mobile ",21.052631578947,-1,-1,0,0,,1
5f04b3fc4f8dff76b699ac22,bkhal7qdcb,"Deep vs Shallow",1,159,2020-07-08T14:44:04-07:00,34.51584815979,2,versionA_stim.csv,RLVersionB.csv,"Relational Version B","Relational, read only version B",FIGHT,BRAWL,Study2,B,135,166,Test,User,-,,Recall,Recall1,33431,,0,-1,-1,0,0,,1
5f04b3fc4f8dff76b699ac22,bkhal7qdcb,"Deep vs Shallow",1,160,2020-07-08T14:44:11-07:00,6.8130829334259,2,versionA_stim.csv,RLVersionB.csv,"Relational Version B","Relational, read only version B",TANTRUM,TEMPER,Study2,S,154,132,Test,User,-,,Recall,Recall1,5951,Moody,18.181818181818,-1,-1,0,0,,1
5f04b3fc4f8dff76b699ac22,bkhal7qdcb,"Deep vs Shallow",1,161,2020-07-08T14:44:19-07:00,7.9398460388184,2,versionA_stim.csv,RLVersionB.csv,"Relational Version B","Relational, read only version B",BIRD,PENGUIN,Study2,B,119,113,Test,User,-,,Recall,Recall1,7159,penguin,100,-1,-1,1,1,,1
5f04b3fc4f8dff76b699ac22,bkhal7qdcb,"Deep vs Shallow",1,162,2020-07-08T14:44:36-07:00,17.152592897415,2,versionA_stim.csv,RLVersionB.csv,"Relational Version B","Relational, read only version B",LOAN,SIGN,Study2,U,171,133,Test,User,-,,Recall,Recall1,15089,"Money ",22.222222222222,-1,-1,0,0,,1
5f04b3fc4f8dff76b699ac22,bkhal7qdcb,"Deep vs Shallow",1,163,2020-07-08T14:44:46-07:00,9.8727250099182,2,versionA_stim.csv,RLVersionB.csv,"Relational Version B","Relational, read only version B",SHEARS,SCISSORS,Study2,F,112,172,Test,User,-,,Recall,Recall1,9013,"scissors ",100,-1,-1,1,1,,1
5f04b3fc4f8dff76b699ac22,bkhal7qdcb,"Deep vs Shallow",1,164,2020-07-08T14:44:55-07:00,8.9845590591431,2,versionA_stim.csv,RLVersionB.csv,"Relational Version B","Relational, read only version B",KEYS,JOKE,Study2,U,165,141,Test,User,-,,Recall,Recall1,8071,metal,22.222222222222,-1,-1,0,0,,1
5f04b3fc4f8dff76b699ac22,bkhal7qdcb,"Deep vs Shallow",1,165,2020-07-08T14:45:01-07:00,6.625923871994,2,versionA_stim.csv,RLVersionB.csv,"Relational Version B","Relational, read only version B",FURRY,DOG,Study2,F,102,120,Test,User,-,,Recall,Recall1,5783,cat,0,-1,-1,0,0,,1
5f04b3fc4f8dff76b699ac22,bkhal7qdcb,"Deep vs Shallow",1,166,2020-07-08T14:45:11-07:00,9.2569141387939,2,versionA_stim.csv,RLVersionB.csv,"Relational Version B","Relational, read only version B",BASEBALL,LEAGUE,Study2,B,131,100,Test,User,-,,Recall,Recall1,8471,"Football ",14.285714285714,-1,-1,0,0,,1
5f04b3fc4f8dff76b699ac22,bkhal7qdcb,"Deep vs Shallow",1,167,2020-07-08T14:45:24-07:00,13.193738937378,2,versionA_stim.csv,RLVersionB.csv,"Relational Version B","Relational, read only version B",GONE,AWAY,Study2,S,142,112,Test,User,-,,Recall,Recall1,12374,Bye,28.571428571429,-1,-1,0,0,,1
5f04b3fc4f8dff76b699ac22,bkhal7qdcb,"Deep vs Shallow",1,168,2020-07-08T14:45:35-07:00,11.706142902374,2,versionA_stim.csv,RLVersionB.csv,"Relational Version B","Relational, read only version B",LEASE,TOIL,Study2,U,170,128,Test,User,-,,Recall,Recall1,10902,,0,-1,-1,0,0,,1
5f04b3fc4f8dff76b699ac22,bkhal7qdcb,"Deep vs Shallow",1,169,2020-07-08T14:45:43-07:00,7.8388721942902,2,versionA_stim.csv,RLVersionB.csv,"Relational Version B","Relational, read only version B",MAZE,ELECTION,Study2,U,159,116,Test,User,-,,Recall,Recall1,6996,Corn,50,-1,-1,0,0,,1
5f04b3fc4f8dff76b699ac22,bkhal7qdcb,"Deep vs Shallow",1,170,2020-07-08T14:45:53-07:00,9.3603639602661,2,versionA_stim.csv,RLVersionB.csv,"Relational Version B","Relational, read only version B",INCENSE,SMELL,Study2,F,110,165,Test,User,-,,Recall,Recall1,8573,stick,20,-1,-1,0,0,,1
5f04b3fc4f8dff76b699ac22,bkhal7qdcb,"Deep vs Shallow",1,171,2020-07-08T14:46:05-07:00,12.674237966537,2,versionA_stim.csv,RLVersionB.csv,"Relational Version B","Relational, read only version B",MOAT,CLEAR,Study2,U,169,107,Test,User,-,,Recall,Recall1,11900,,0,-1,-1,0,0,,1
5f04b3fc4f8dff76b699ac22,bkhal7qdcb,"Deep vs Shallow",1,172,2020-07-08T14:46:12-07:00,7.2101449966431,2,versionA_stim.csv,RLVersionB.csv,"Relational Version B","Relational, read only version B",MIRROR,CHILDREN,Study2,U,174,170,Test,User,-,,Recall,Recall1,6223,"Children ",100,-1,-1,1,1,,1
5f04b3fc4f8dff76b699ac22,bkhal7qdcb,"Deep vs Shallow",1,173,2020-07-08T14:46:21-07:00,8.7681879997253,2,versionA_stim.csv,RLVersionB.csv,"Relational Version B","Relational, read only version B",TEMPERATURE,Morning,Study2,U,173,101,Test,User,-,,Recall,Recall1,7573,heat,0,-1,-1,0,0,,1
5f04b3fc4f8dff76b699ac22,bkhal7qdcb,"Deep vs Shallow",1,174,2020-07-08T14:46:31-07:00,9.8836500644684,2,versionA_stim.csv,RLVersionB.csv,"Relational Version B","Relational, read only version B",CHERRY,RED,Study2,F,104,140,Test,User,-,,Recall,Recall1,9123,Pie,33.333333333333,-1,-1,0,0,,1
5f04b3fc4f8dff76b699ac22,bkhal7qdcb,"Deep vs Shallow",1,175,2020-07-08T14:46:39-07:00,8.1260678768158,2,versionA_stim.csv,RLVersionB.csv,"Relational Version B","Relational, read only version B",MAIN,SCAR,Study2,U,175,158,Test,User,-,,Recall,Recall1,7326,L,0,-1,-1,0,0,,1
5f04b3fc4f8dff76b699ac22,bkhal7qdcb,"Deep vs Shallow",1,176,2020-07-08T14:46:43-07:00,3.5436379909515,2,versionA_stim.csv,RLVersionB.csv,"Relational Version B","Relational, read only version B",BOTH,OUNCE,Study2,U,172,123,Test,User,-,,Recall,Recall1,2924,,0,-1,-1,0,0,,1
5f04b3fc4f8dff76b699ac22,bkhal7qdcb,"Deep vs Shallow",1,177,2020-07-08T14:46:57-07:00,13.737748146057,2,versionA_stim.csv,RLVersionB.csv,"Relational Version B","Relational, read only version B",DINE,EAT,Study2,F,111,152,Test,User,-,,Recall,Recall1,12409,"Food ",0,-1,-1,0,0,,1
5f04b3fc4f8dff76b699ac22,bkhal7qdcb,"Deep vs Shallow",1,178,2020-07-08T14:47:01-07:00,4.6851148605347,2,versionA_stim.csv,RLVersionB.csv,"Relational Version B","Relational, read only version B",FLEA,TICK,Study2,S,151,109,Test,User,-,,Recall,Recall1,3902,tick,100,-1,-1,1,1,,1
5f04b3fc4f8dff76b699ac22,bkhal7qdcb,"Deep vs Shallow",1,179,2020-07-08T14:47:07-07:00,6.2071890830994,2,versionA_stim.csv,RLVersionB.csv,"Relational Version B","Relational, read only version B",SAFETY,SEATBELT,Study2,S,147,117,Test,User,-,,Recall,Recall1,5475,,0,-1,-1,0,0,,1
5f04b3fc4f8dff76b699ac22,bkhal7qdcb,"Deep vs Shallow",1,180,2020-07-08T14:47:14-07:00,6.4374380111694,2,versionA_stim.csv,RLVersionB.csv,"Relational Version B","Relational, read only version B",ALONE,LONELY,Study2,S,145,173,Test,User,-,,Recall,Recall1,5679,"Together ",28.571428571429,-1,-1,0,0,,1
5f04b3fc4f8dff76b699ac22,bkhal7qdcb,"Deep vs Shallow",1,181,2020-07-08T14:47:40-07:00,25.695598840714,2,versionA_stim.csv,RLVersionB.csv,"Relational Version B","Relational, read only version B",,,,,,0,Instruct,,10,"You will now be presented with a new set of word pairs. Please study each pair. Remember that your memory will be tested! When finished, press Enter to move to the next pair.",,Instruct10,24797,,,-1,-1,,,,1
5f04b3fc4f8dff76b699ac22,bkhal7qdcb,"Deep vs Shallow",1,182,2020-07-08T14:47:56-07:00,16.712059020996,2,versionA_stim.csv,RLVersionB.csv,"Relational Version B","Relational, read only version B",,,,,,0,Instruct,-,15,"As you study, please think about how the two concepts are RELATED to each other. For example, if you see the pair TURTLE-CAT, think about how both are alive, they are both animals, and both can be kept as pets.",,Instruct20,15891,,,-1,-1,,,,1
5f04b3fc4f8dff76b699ac22,bkhal7qdcb,"Deep vs Shallow",1,183,2020-07-08T14:48:22-07:00,25.883460044861,2,versionA_stim.csv,RLVersionB.csv,"Relational Version B","Relational, read only version B",,,,,,0,FreeRecall,-,10,"What you should think about as you study each item pair? Type your response in the box below.",,CHECK4,24936,"how they relate ",0,-1,-1,0,0,,0.888
5f04b3fc4f8dff76b699ac22,bkhal7qdcb,"Deep vs Shallow",1,184,2020-07-08T14:48:25-07:00,2.6815071105957,2,versionA_stim.csv,RLVersionB.csv,"Relational Version B","Relational, read only version B",,,,,,0,Instruct,User,-,"Press Enter when you are readty to begin",,Instruct11,1920,,,-1,-1,,,,1
5f04b3fc4f8dff76b699ac22,bkhal7qdcb,"Deep vs Shallow",1,185,2020-07-08T14:48:32-07:00,6.7305068969727,2,versionA_stim.csv,RLVersionB.csv,"Relational Version B","Relational, read only version B",PEANUT,BUTTER,BUFFER1,Buffer,3,4,Study,User,-,,Study/JOL,BUFFER3,5865,,,-1,-1,,,,1
5f04b3fc4f8dff76b699ac22,bkhal7qdcb,"Deep vs Shallow",1,186,2020-07-08T14:48:38-07:00,5.9880530834198,2,versionA_stim.csv,RLVersionB.csv,"Relational Version B","Relational, read only version B",SPACE,JAM,BUFFER1,Buffer,5,2,Study,User,-,,Study/JOL,BUFFER3,5309,,,-1,-1,,,,1
5f04b3fc4f8dff76b699ac22,bkhal7qdcb,"Deep vs Shallow",1,187,2020-07-08T14:48:44-07:00,6.2859809398651,2,versionA_stim.csv,RLVersionB.csv,"Relational Version B","Relational, read only version B",SCARE,HIDE,BUFFER1,Buffer,4,3,Study,User,-,,Study/JOL,BUFFER3,5498,,,-1,-1,,,,1
5f04b3fc4f8dff76b699ac22,bkhal7qdcb,"Deep vs Shallow",1,188,2020-07-08T14:48:50-07:00,6.0661981105804,2,versionA_stim.csv,RLVersionB.csv,"Relational Version B","Relational, read only version B",BASEBALL,CATCHER,BUFFER1,Buffer,2,6,Study,User,-,,Study/JOL,BUFFER3,5269,,,-1,-1,,,,1
5f04b3fc4f8dff76b699ac22,bkhal7qdcb,"Deep vs Shallow",1,189,2020-07-08T14:48:55-07:00,5.451721906662,2,versionA_stim.csv,RLVersionB.csv,"Relational Version B","Relational, read only version B",TREES,GREEN,BUFFER1,Buffer,1,5,Study,User,-,,Study/JOL,BUFFER3,4693,,,-1,-1,,,,1
5f04b3fc4f8dff76b699ac22,bkhal7qdcb,"Deep vs Shallow",1,190,2020-07-08T14:49:01-07:00,5.3322610855103,2,versionA_stim.csv,RLVersionB.csv,"Relational Version B","Relational, read only version B",PAST,FUTURE,Study1,S,61,78,Study,User,-,,Study/JOL,"Study Phase2",4591,,,-1,-1,,,,1
5f04b3fc4f8dff76b699ac22,bkhal7qdcb,"Deep vs Shallow",1,191,2020-07-08T14:49:06-07:00,4.8563318252563,2,versionA_stim.csv,RLVersionB.csv,"Relational Version B","Relational, read only version B",BLOW,WIND,Study1,S,55,82,Study,User,-,,Study/JOL,"Study Phase2",3970,,,-1,-1,,,,1
5f04b3fc4f8dff76b699ac22,bkhal7qdcb,"Deep vs Shallow",1,192,2020-07-08T14:49:09-07:00,3.0225651264191,2,versionA_stim.csv,RLVersionB.csv,"Relational Version B","Relational, read only version B",ROOT,PLANT,Study1,F,13,85,Study,User,-,,Study/JOL,"Study Phase2",2104,,,-1,-1,,,,1
5f04b3fc4f8dff76b699ac22,bkhal7qdcb,"Deep vs Shallow",1,193,2020-07-08T14:49:15-07:00,6.2821490764618,2,versionA_stim.csv,RLVersionB.csv,"Relational Version B","Relational, read only version B",GRILL,BAR,Study1,S,52,62,Study,User,-,,Study/JOL,"Study Phase2",5541,,,-1,-1,,,,1
5f04b3fc4f8dff76b699ac22,bkhal7qdcb,"Deep vs Shallow",1,194,2020-07-08T14:49:21-07:00,6.014741897583,2,versionA_stim.csv,RLVersionB.csv,"Relational Version B","Relational, read only version B",WINE,CHEESE,Study1,S,57,47,Study,User,-,,Study/JOL,"Study Phase2",5156,,,-1,-1,,,,1
5f04b3fc4f8dff76b699ac22,bkhal7qdcb,"Deep vs Shallow",1,195,2020-07-08T14:49:29-07:00,7.8186399936676,2,versionA_stim.csv,RLVersionB.csv,"Relational Version B","Relational, read only version B",DELINQUENT,BAD,Study1,F,6,17,Study,User,-,,Study/JOL,"Study Phase2",6957,,,-1,-1,,,,1
5f04b3fc4f8dff76b699ac22,bkhal7qdcb,"Deep vs Shallow",1,196,2020-07-08T14:49:37-07:00,8.621169090271,2,versionA_stim.csv,RLVersionB.csv,"Relational Version B","Relational, read only version B",HAPPY,CAR,Study1,U,77,21,Study,User,-,,Study/JOL,"Study Phase2",7806,,,-1,-1,,,,1
5f04b3fc4f8dff76b699ac22,bkhal7qdcb,"Deep vs Shallow",1,197,2020-07-08T14:49:43-07:00,6.0354700088501,2,versionA_stim.csv,RLVersionB.csv,"Relational Version B","Relational, read only version B",SENTENCE,WORD,Study1,B,31,74,Study,User,-,,Study/JOL,"Study Phase2",4844,,,-1,-1,,,,1
5f04b3fc4f8dff76b699ac22,bkhal7qdcb,"Deep vs Shallow",1,198,2020-07-08T14:49:50-07:00,6.8887588977814,2,versionA_stim.csv,RLVersionB.csv,"Relational Version B","Relational, read only version B",BATHROOM,TOILET,Study1,S,58,56,Study,User,-,,Study/JOL,"Study Phase2",5843,,,-1,-1,,,,1
5f04b3fc4f8dff76b699ac22,bkhal7qdcb,"Deep vs Shallow",1,199,2020-07-08T14:49:56-07:00,5.5660099983215,2,versionA_stim.csv,RLVersionB.csv,"Relational Version B","Relational, read only version B",WAGE,MONEY,Study1,F,8,8,Study,User,-,,Study/JOL,"Study Phase2",4683,,,-1,-1,,,,1
5f04b3fc4f8dff76b699ac22,bkhal7qdcb,"Deep vs Shallow",1,200,2020-07-08T14:50:05-07:00,8.7762999534607,2,versionA_stim.csv,RLVersionB.csv,"Relational Version B","Relational, read only version B",SUGAR,RIDDLE,Study1,U,81,23,Study,User,-,,Study/JOL,"Study Phase2",7771,,,-1,-1,,,,1
5f04b3fc4f8dff76b699ac22,bkhal7qdcb,"Deep vs Shallow",1,201,2020-07-08T14:50:23-07:00,18.191179990768,2,versionA_stim.csv,RLVersionB.csv,"Relational Version B","Relational, read only version B",DISCOVER,FLOOR,Study1,U,71,25,Study,User,-,,Study/JOL,"Study Phase2",17108,,,-1,-1,,,,1
5f04b3fc4f8dff76b699ac22,bkhal7qdcb,"Deep vs Shallow",1,202,2020-07-08T14:50:32-07:00,9.3564169406891,2,versionA_stim.csv,RLVersionB.csv,"Relational Version B","Relational, read only version B",CREDIT,CARD,Study1,F,23,77,Study,User,-,,Study/JOL,"Study Phase2",8603,,,-1,-1,,,,1
5f04b3fc4f8dff76b699ac22,bkhal7qdcb,"Deep vs Shallow",1,203,2020-07-08T14:50:40-07:00,7.8566420078278,2,versionA_stim.csv,RLVersionB.csv,"Relational Version B","Relational, read only version B",HOT,CHILI,Study1,B,37,71,Study,User,-,,Study/JOL,"Study Phase2",7164,,,-1,-1,,,,1
5f04b3fc4f8dff76b699ac22,bkhal7qdcb,"Deep vs Shallow",1,204,2020-07-08T14:50:48-07:00,7.6578080654144,2,versionA_stim.csv,RLVersionB.csv,"Relational Version B","Relational, read only version B",WORK,CHORE,Study1,B,39,79,Study,User,-,,Study/JOL,"Study Phase2",6768,,,-1,-1,,,,1
5f04b3fc4f8dff76b699ac22,bkhal7qdcb,"Deep vs Shallow",1,205,2020-07-08T14:50:55-07:00,7.1662709712982,2,versionA_stim.csv,RLVersionB.csv,"Relational Version B","Relational, read only version B",DARK,CAVE,Study1,B,28,73,Study,User,-,,Study/JOL,"Study Phase2",6312,,,-1,-1,,,,1
5f04b3fc4f8dff76b699ac22,bkhal7qdcb,"Deep vs Shallow",1,206,2020-07-08T14:51:01-07:00,5.8623750209808,2,versionA_stim.csv,RLVersionB.csv,"Relational Version B","Relational, read only version B",BALL,RACKET,Study1,B,38,75,Study,User,-,,Study/JOL,"Study Phase2",5020,,,-1,-1,,,,1
5f04b3fc4f8dff76b699ac22,bkhal7qdcb,"Deep vs Shallow",1,207,2020-07-08T14:51:07-07:00,6.6904740333557,2,versionA_stim.csv,RLVersionB.csv,"Relational Version B","Relational, read only version B",HORNET,STING,Study1,F,11,45,Study,User,-,,Study/JOL,"Study Phase2",5936,,,-1,-1,,,,1
5f04b3fc4f8dff76b699ac22,bkhal7qdcb,"Deep vs Shallow",1,208,2020-07-08T14:51:13-07:00,5.6111359596252,2,versionA_stim.csv,RLVersionB.csv,"Relational Version B","Relational, read only version B",BABY,CHILD,Study1,S,64,31,Study,User,-,,Study/JOL,"Study Phase2",4832,,,-1,-1,,,,1
5f04b3fc4f8dff76b699ac22,bkhal7qdcb,"Deep vs Shallow",1,209,2020-07-08T14:51:32-07:00,19.165451049805,2,versionA_stim.csv,RLVersionB.csv,"Relational Version B","Relational, read only version B",HUNGER,FAMINE,Study1,B,40,67,Study,User,-,,Study/JOL,"Study Phase2",18324,,,-1,-1,,,,1
5f04b3fc4f8dff76b699ac22,bkhal7qdcb,"Deep vs Shallow",1,210,2020-07-08T14:51:38-07:00,5.9636259078979,2,versionA_stim.csv,RLVersionB.csv,"Relational Version B","Relational, read only version B",BEGIN,END,Study1,S,54,33,Study,User,-,,Study/JOL,"Study Phase2",5125,,,-1,-1,,,,1
5f04b3fc4f8dff76b699ac22,bkhal7qdcb,"Deep vs Shallow",1,211,2020-07-08T14:51:46-07:00,8.1947560310364,2,versionA_stim.csv,RLVersionB.csv,"Relational Version B","Relational, read only version B",REVOLUTION,WAR,Study1,F,20,13,Study,User,-,,Study/JOL,"Study Phase2",7119,,,-1,-1,,,,1
5f04b3fc4f8dff76b699ac22,bkhal7qdcb,"Deep vs Shallow",1,212,2020-07-08T14:51:57-07:00,10.291246175766,2,versionA_stim.csv,RLVersionB.csv,"Relational Version B","Relational, read only version B",WAY,OUT,Study1,F,16,10,Study,User,-,,Study/JOL,"Study Phase2",9414,,,-1,-1,,,,1
5f04b3fc4f8dff76b699ac22,bkhal7qdcb,"Deep vs Shallow",1,213,2020-07-08T14:52:03-07:00,6.3523409366608,2,versionA_stim.csv,RLVersionB.csv,"Relational Version B","Relational, read only version B",DRINK,SIP,Study1,B,27,36,Study,User,-,,Study/JOL,"Study Phase2",5604,,,-1,-1,,,,1
5f04b3fc4f8dff76b699ac22,bkhal7qdcb,"Deep vs Shallow",1,214,2020-07-08T14:52:15-07:00,11.553047895432,2,versionA_stim.csv,RLVersionB.csv,"Relational Version B","Relational, read only version B",DEBATE,SIGHT,Study1,U,73,38,Study,User,-,,Study/JOL,"Study Phase2",10676,,,-1,-1,,,,1
5f04b3fc4f8dff76b699ac22,bkhal7qdcb,"Deep vs Shallow",1,215,2020-07-08T14:52:20-07:00,5.855978012085,2,versionA_stim.csv,RLVersionB.csv,"Relational Version B","Relational, read only version B",PUSHER,CLUTTER,Study1,U,66,26,Study,User,-,,Study/JOL,"Study Phase2",4996,,,-1,-1,,,,1
5f04b3fc4f8dff76b699ac22,bkhal7qdcb,"Deep vs Shallow",1,216,2020-07-08T14:52:25-07:00,4.9141540527344,2,versionA_stim.csv,RLVersionB.csv,"Relational Version B","Relational, read only version B",PAW,DOG,Study1,F,15,61,Study,User,-,,Study/JOL,"Study Phase2",4130,,,-1,-1,,,,1
5f04b3fc4f8dff76b699ac22,bkhal7qdcb,"Deep vs Shallow",1,217,2020-07-08T14:52:32-07:00,6.3661940097809,2,versionA_stim.csv,RLVersionB.csv,"Relational Version B","Relational, read only version B",MACHINE,POSITION,Study1,U,76,7,Study,User,-,,Study/JOL,"Study Phase2",5482,,,-1,-1,,,,1
5f04b3fc4f8dff76b699ac22,bkhal7qdcb,"Deep vs Shallow",1,218,2020-07-08T14:52:39-07:00,7.5995109081268,2,versionA_stim.csv,RLVersionB.csv,"Relational Version B","Relational, read only version B",DUE,ASSIGNMENT,Study1,S,46,40,Study,User,-,,Study/JOL,"Study Phase2",6768,,,-1,-1,,,,1
5f04b3fc4f8dff76b699ac22,bkhal7qdcb,"Deep vs Shallow",1,219,2020-07-08T14:52:47-07:00,7.5147659778595,2,versionA_stim.csv,RLVersionB.csv,"Relational Version B","Relational, read only version B",MATH,DIVISION,Study1,B,33,64,Study,User,-,,Study/JOL,"Study Phase2",6681,,,-1,-1,,,,1
5f04b3fc4f8dff76b699ac22,bkhal7qdcb,"Deep vs Shallow",1,220,2020-07-08T14:52:51-07:00,4.6651999950409,2,versionA_stim.csv,RLVersionB.csv,"Relational Version B","Relational, read only version B",BRIDGE,WATER,Study1,F,18,27,Study,User,-,,Study/JOL,"Study Phase2",3917,,,-1,-1,,,,1
5f04b3fc4f8dff76b699ac22,bkhal7qdcb,"Deep vs Shallow",1,221,2020-07-08T14:52:57-07:00,6.0443181991577,2,versionA_stim.csv,RLVersionB.csv,"Relational Version B","Relational, read only version B",ART,LION,Study1,U,79,39,Study,User,-,,Study/JOL,"Study Phase2",5051,,,-1,-1,,,,1
5f04b3fc4f8dff76b699ac22,bkhal7qdcb,"Deep vs Shallow",1,222,2020-07-08T14:53:04-07:00,6.8868899345398,2,versionA_stim.csv,RLVersionB.csv,"Relational Version B","Relational, read only version B",TAKE,SEIZE,Study1,B,29,14,Study,User,-,,Study/JOL,"Study Phase2",6028,,,-1,-1,,,,1
5f04b3fc4f8dff76b699ac22,bkhal7qdcb,"Deep vs Shallow",1,223,2020-07-08T14:53:13-07:00,8.5302169322968,2,versionA_stim.csv,RLVersionB.csv,"Relational Version B","Relational, read only version B",DIGESTION,STOMACH,Study1,F,7,35,Study,User,-,,Study/JOL,"Study Phase2",7728,,,-1,-1,,,,1
5f04b3fc4f8dff76b699ac22,bkhal7qdcb,"Deep vs Shallow",1,224,2020-07-08T14:53:18-07:00,4.8744270801544,2,versionA_stim.csv,RLVersionB.csv,"Relational Version B","Relational, read only version B",,,,,,0,Instruct,-,3,"Remember to focus on how the two items are similiar while you study!",,CHECK5,4028,,,-1,-1,,,,1
5f04b3fc4f8dff76b699ac22,bkhal7qdcb,"Deep vs Shallow",1,225,2020-07-08T14:53:27-07:00,8.7712368965149,2,versionA_stim.csv,RLVersionB.csv,"Relational Version B","Relational, read only version B",CLOTHES,ATTIRE,Study1,B,43,83,Study,User,-,,Study/JOL,"Study Phase2",7874,,,-1,-1,,,,1
5f04b3fc4f8dff76b699ac22,bkhal7qdcb,"Deep vs Shallow",1,226,2020-07-08T14:53:45-07:00,18.403110980988,2,versionA_stim.csv,RLVersionB.csv,"Relational Version B","Relational, read only version B",GREAT,FANTASTIC,Study1,B,35,72,Study,User,-,,Study/JOL,"Study Phase2",17188,,,-1,-1,,,,1
5f04b3fc4f8dff76b699ac22,bkhal7qdcb,"Deep vs Shallow",1,227,2020-07-08T14:53:54-07:00,8.7775750160217,2,versionA_stim.csv,RLVersionB.csv,"Relational Version B","Relational, read only version B",HEIGHT,GROWTH,Study1,B,30,53,Study,User,-,,Study/JOL,"Study Phase2",8058,,,-1,-1,,,,1
5f04b3fc4f8dff76b699ac22,bkhal7qdcb,"Deep vs Shallow",1,228,2020-07-08T14:53:59-07:00,5.3674459457397,2,versionA_stim.csv,RLVersionB.csv,"Relational Version B","Relational, read only version B",KIDNEY,LIVER,Study1,S,53,54,Study,User,-,,Study/JOL,"Study Phase2",4500,,,-1,-1,,,,1
5f04b3fc4f8dff76b699ac22,bkhal7qdcb,"Deep vs Shallow",1,229,2020-07-08T14:54:06-07:00,6.46342420578,2,versionA_stim.csv,RLVersionB.csv,"Relational Version B","Relational, read only version B",KEY,LATCH,Study1,B,36,84,Study,User,-,,Study/JOL,"Study Phase2",4608,,,-1,-1,,,,1
5f04b3fc4f8dff76b699ac22,bkhal7qdcb,"Deep vs Shallow",1,230,2020-07-08T14:54:11-07:00,5.1271908283234,2,versionA_stim.csv,RLVersionB.csv,"Relational Version B","Relational, read only version B",POP,SODA,Study1,S,56,41,Study,User,-,,Study/JOL,"Study Phase2",4368,,,-1,-1,,,,1
5f04b3fc4f8dff76b699ac22,bkhal7qdcb,"Deep vs Shallow",1,231,2020-07-08T14:54:19-07:00,8.5091021060944,2,versionA_stim.csv,RLVersionB.csv,"Relational Version B","Relational, read only version B",DEATH,BUSINESS,Study1,U,72,50,Study,User,-,,Study/JOL,"Study Phase2",7622,,,-1,-1,,,,1
5f04b3fc4f8dff76b699ac22,bkhal7qdcb,"Deep vs Shallow",1,232,2020-07-08T14:54:27-07:00,7.5980670452118,2,versionA_stim.csv,RLVersionB.csv,"Relational Version B","Relational, read only version B",GEOLOGY,ROCK,Study1,F,19,20,Study,User,-,,Study/JOL,"Study Phase2",6751,,,-1,-1,,,,1
5f04b3fc4f8dff76b699ac22,bkhal7qdcb,"Deep vs Shallow",1,233,2020-07-08T14:54:37-07:00,9.973151922226,2,versionA_stim.csv,RLVersionB.csv,"Relational Version B","Relational, read only version B",FIRE,BLAZE,Study1,B,45,18,Study,User,-,,Study/JOL,"Study Phase2",9080,,,-1,-1,,,,1
5f04b3fc4f8dff76b699ac22,bkhal7qdcb,"Deep vs Shallow",1,234,2020-07-08T14:54:44-07:00,7.6160609722137,2,versionA_stim.csv,RLVersionB.csv,"Relational Version B","Relational, read only version B",HONEY,BEE,Study1,S,63,19,Study,User,-,,Study/JOL,"Study Phase2",6635,,,-1,-1,,,,1
5f04b3fc4f8dff76b699ac22,bkhal7qdcb,"Deep vs Shallow",1,235,2020-07-08T14:54:51-07:00,6.5487649440765,2,versionA_stim.csv,RLVersionB.csv,"Relational Version B","Relational, read only version B",CHISEL,HAMMER,Study1,F,9,76,Study,User,-,,Study/JOL,"Study Phase2",5824,,,-1,-1,,,,1
5f04b3fc4f8dff76b699ac22,bkhal7qdcb,"Deep vs Shallow",1,236,2020-07-08T14:54:56-07:00,5.273567199707,2,versionA_stim.csv,RLVersionB.csv,"Relational Version B","Relational, read only version B",TUNA,FISH,Study1,F,25,46,Study,User,-,,Study/JOL,"Study Phase2",4419,,,-1,-1,,,,1
5f04b3fc4f8dff76b699ac22,bkhal7qdcb,"Deep vs Shallow",1,237,2020-07-08T14:55:04-07:00,8.0762619972229,2,versionA_stim.csv,RLVersionB.csv,"Relational Version B","Relational, read only version B",ARTERY,BRONZE,Study1,U,74,55,Study,User,-,,Study/JOL,"Study Phase2",7256,,,-1,-1,,,,1
5f04b3fc4f8dff76b699ac22,bkhal7qdcb,"Deep vs Shallow",1,238,2020-07-08T14:55:10-07:00,5.661602973938,2,versionA_stim.csv,RLVersionB.csv,"Relational Version B","Relational, read only version B",BITTER,COLD,Study1,F,12,60,Study,User,-,,Study/JOL,"Study Phase2",4594,,,-1,-1,,,,1
5f04b3fc4f8dff76b699ac22,bkhal7qdcb,"Deep vs Shallow",1,239,2020-07-08T14:55:19-07:00,9.2467160224915,2,versionA_stim.csv,RLVersionB.csv,"Relational Version B","Relational, read only version B",VALLEY,ADD,Study1,U,82,16,Study,User,-,,Study/JOL,"Study Phase2",8122,,,-1,-1,,,,1
5f04b3fc4f8dff76b699ac22,bkhal7qdcb,"Deep vs Shallow",1,240,2020-07-08T14:55:26-07:00,6.655131816864,2,versionA_stim.csv,RLVersionB.csv,"Relational Version B","Relational, read only version B",DUMP,WASTE,Study1,S,49,70,Study,User,-,,Study/JOL,"Study Phase2",5967,,,-1,-1,,,,1
5f04b3fc4f8dff76b699ac22,bkhal7qdcb,"Deep vs Shallow",1,241,2020-07-08T14:55:33-07:00,6.860023021698,2,versionA_stim.csv,RLVersionB.csv,"Relational Version B","Relational, read only version B",CIRCLE,ROUND,Study1,S,65,63,Study,User,-,,Study/JOL,"Study Phase2",6120,,,-1,-1,,,,1
5f04b3fc4f8dff76b699ac22,bkhal7qdcb,"Deep vs Shallow",1,242,2020-07-08T14:55:38-07:00,5.5370750427246,2,versionA_stim.csv,RLVersionB.csv,"Relational Version B","Relational, read only version B",ALLOW,TUCK,Study1,U,78,29,Study,User,-,,Study/JOL,"Study Phase2",4694,,,-1,-1,,,,1
5f04b3fc4f8dff76b699ac22,bkhal7qdcb,"Deep vs Shallow",1,243,2020-07-08T14:55:48-07:00,9.8956940174103,2,versionA_stim.csv,RLVersionB.csv,"Relational Version B","Relational, read only version B",LETTUCE,SALAD,Study1,S,59,59,Study,User,-,,Study/JOL,"Study Phase2",9123,,,-1,-1,,,,1
5f04b3fc4f8dff76b699ac22,bkhal7qdcb,"Deep vs Shallow",1,244,2020-07-08T14:55:57-07:00,8.6649789810181,2,versionA_stim.csv,RLVersionB.csv,"Relational Version B","Relational, read only version B",DISCUSSION,TALK,Study1,F,21,65,Study,User,-,,Study/JOL,"Study Phase2",7851,,,-1,-1,,,,1
5f04b3fc4f8dff76b699ac22,bkhal7qdcb,"Deep vs Shallow",1,245,2020-07-08T14:56:06-07:00,9.0018889904022,2,versionA_stim.csv,RLVersionB.csv,"Relational Version B","Relational, read only version B",MEANING,DEFINITION,Study1,S,62,42,Study,User,-,,Study/JOL,"Study Phase2",8232,,,-1,-1,,,,1
5f04b3fc4f8dff76b699ac22,bkhal7qdcb,"Deep vs Shallow",1,246,2020-07-08T14:56:13-07:00,7.2162079811096,2,versionA_stim.csv,RLVersionB.csv,"Relational Version B","Relational, read only version B",ORCHID,FLOWER,Study1,F,24,22,Study,User,-,,Study/JOL,"Study Phase2",6453,,,-1,-1,,,,1
5f04b3fc4f8dff76b699ac22,bkhal7qdcb,"Deep vs Shallow",1,247,2020-07-08T14:56:18-07:00,5.0709900856018,2,versionA_stim.csv,RLVersionB.csv,"Relational Version B","Relational, read only version B",HERD,COW,Study1,F,22,66,Study,User,-,,Study/JOL,"Study Phase2",4313,,,-1,-1,,,,1
5f04b3fc4f8dff76b699ac22,bkhal7qdcb,"Deep vs Shallow",1,248,2020-07-08T14:56:25-07:00,7.3316290378571,2,versionA_stim.csv,RLVersionB.csv,"Relational Version B","Relational, read only version B",EDITOR,NEWS,Study1,F,10,80,Study,User,-,,Study/JOL,"Study Phase2",6557,,,-1,-1,,,,1
5f04b3fc4f8dff76b699ac22,bkhal7qdcb,"Deep vs Shallow",1,249,2020-07-08T14:56:35-07:00,9.740406036377,2,versionA_stim.csv,RLVersionB.csv,"Relational Version B","Relational, read only version B",CASH,WOULD,Study1,U,83,28,Study,User,-,,Study/JOL,"Study Phase2",8978,,,-1,-1,,,,1
5f04b3fc4f8dff76b699ac22,bkhal7qdcb,"Deep vs Shallow",1,250,2020-07-08T14:56:44-07:00,8.7486817836761,2,versionA_stim.csv,RLVersionB.csv,"Relational Version B","Relational, read only version B",LAW,ATTORNEY,Study1,B,34,51,Study,User,-,,Study/JOL,"Study Phase2",7887,,,-1,-1,,,,1
5f04b3fc4f8dff76b699ac22,bkhal7qdcb,"Deep vs Shallow",1,251,2020-07-08T14:56:54-07:00,9.6281621456146,2,versionA_stim.csv,RLVersionB.csv,"Relational Version B","Relational, read only version B",LIFT,WOMAN,Study1,U,69,34,Study,User,-,,Study/JOL,"Study Phase2",8918,,,-1,-1,,,,1
5f04b3fc4f8dff76b699ac22,bkhal7qdcb,"Deep vs Shallow",1,252,2020-07-08T14:57:02-07:00,8.7083699703217,2,versionA_stim.csv,RLVersionB.csv,"Relational Version B","Relational, read only version B",ARCHITECTURE,DESIGN,Study1,S,51,57,Study,User,-,,Study/JOL,"Study Phase2",7847,,,-1,-1,,,,1
5f04b3fc4f8dff76b699ac22,bkhal7qdcb,"Deep vs Shallow",1,253,2020-07-08T14:57:19-07:00,17.212950944901,2,versionA_stim.csv,RLVersionB.csv,"Relational Version B","Relational, read only version B",SOON,BELT,Study1,U,70,43,Study,User,-,,Study/JOL,"Study Phase2",16055,,,-1,-1,,,,1
5f04b3fc4f8dff76b699ac22,bkhal7qdcb,"Deep vs Shallow",1,254,2020-07-08T14:57:26-07:00,6.9602661132812,2,versionA_stim.csv,RLVersionB.csv,"Relational Version B","Relational, read only version B",NUMBER,AMOUNT,Study1,S,47,11,Study,User,-,,Study/JOL,"Study Phase2",6228,,,-1,-1,,,,1
5f04b3fc4f8dff76b699ac22,bkhal7qdcb,"Deep vs Shallow",1,255,2020-07-08T14:57:32-07:00,5.9458088874817,2,versionA_stim.csv,RLVersionB.csv,"Relational Version B","Relational, read only version B",TRIAL,JURY,Study1,S,50,44,Study,User,-,,Study/JOL,"Study Phase2",5278,,,-1,-1,,,,1
5f04b3fc4f8dff76b699ac22,bkhal7qdcb,"Deep vs Shallow",1,256,2020-07-08T14:57:39-07:00,6.8617799282074,2,versionA_stim.csv,RLVersionB.csv,"Relational Version B","Relational, read only version B",STRONG,ACCIDENT,Study1,U,80,81,Study,User,-,,Study/JOL,"Study Phase2",5991,,,-1,-1,,,,1
5f04b3fc4f8dff76b699ac22,bkhal7qdcb,"Deep vs Shallow",1,257,2020-07-08T14:57:46-07:00,7.0781021118164,2,versionA_stim.csv,RLVersionB.csv,"Relational Version B","Relational, read only version B",KING,VASE,Study1,U,85,69,Study,User,-,,Study/JOL,"Study Phase2",6115,,,-1,-1,,,,1
5f04b3fc4f8dff76b699ac22,bkhal7qdcb,"Deep vs Shallow",1,258,2020-07-08T14:57:51-07:00,5.0137350559235,2,versionA_stim.csv,RLVersionB.csv,"Relational Version B","Relational, read only version B",LOCATION,SITE,Study1,S,48,32,Study,User,-,,Study/JOL,"Study Phase2",4166,,,-1,-1,,,,1
5f04b3fc4f8dff76b699ac22,bkhal7qdcb,"Deep vs Shallow",1,259,2020-07-08T14:57:56-07:00,4.2169950008392,2,versionA_stim.csv,RLVersionB.csv,"Relational Version B","Relational, read only version B",BUG,WASP,Study1,B,32,24,Study,User,-,,Study/JOL,"Study Phase2",3276,,,-1,-1,,,,1
5f04b3fc4f8dff76b699ac22,bkhal7qdcb,"Deep vs Shallow",1,260,2020-07-08T14:58:01-07:00,5.2054119110107,2,versionA_stim.csv,RLVersionB.csv,"Relational Version B","Relational, read only version B",SMELL,STENCH,Study1,B,42,86,Study,User,-,,Study/JOL,"Study Phase2",4453,,,-1,-1,,,,1
5f04b3fc4f8dff76b699ac22,bkhal7qdcb,"Deep vs Shallow",1,261,2020-07-08T14:58:05-07:00,4.7319359779358,2,versionA_stim.csv,RLVersionB.csv,"Relational Version B","Relational, read only version B",SHOE,FOOT,Study1,S,60,49,Study,User,-,,Study/JOL,"Study Phase2",3938,,,-1,-1,,,,1
5f04b3fc4f8dff76b699ac22,bkhal7qdcb,"Deep vs Shallow",1,262,2020-07-08T14:58:13-07:00,7.0742831230164,2,versionA_stim.csv,RLVersionB.csv,"Relational Version B","Relational, read only version B",FULL,ENOUGH,Study1,B,26,9,Study,User,-,,Study/JOL,"Study Phase2",6168,,,-1,-1,,,,1
5f04b3fc4f8dff76b699ac22,bkhal7qdcb,"Deep vs Shallow",1,263,2020-07-08T14:58:19-07:00,6.6624209880829,2,versionA_stim.csv,RLVersionB.csv,"Relational Version B","Relational, read only version B",SWAN,BIRD,Study1,F,14,30,Study,User,-,,Study/JOL,"Study Phase2",5804,,,-1,-1,,,,1
5f04b3fc4f8dff76b699ac22,bkhal7qdcb,"Deep vs Shallow",1,264,2020-07-08T14:58:27-07:00,7.4211368560791,2,versionA_stim.csv,RLVersionB.csv,"Relational Version B","Relational, read only version B",SLEEP,DROWSY,Study1,B,41,37,Study,User,-,,Study/JOL,"Study Phase2",6658,,,-1,-1,,,,1
5f04b3fc4f8dff76b699ac22,bkhal7qdcb,"Deep vs Shallow",1,265,2020-07-08T14:58:30-07:00,3.2986950874329,2,versionA_stim.csv,RLVersionB.csv,"Relational Version B","Relational, read only version B",PLANE,PILOT,Study1,B,44,12,Study,User,-,,Study/JOL,"Study Phase2",2415,,,-1,-1,,,,1
5f04b3fc4f8dff76b699ac22,bkhal7qdcb,"Deep vs Shallow",1,266,2020-07-08T14:58:36-07:00,5.8265740871429,2,versionA_stim.csv,RLVersionB.csv,"Relational Version B","Relational, read only version B",FIX,HAND,Study1,U,75,48,Study,User,-,,Study/JOL,"Study Phase2",4968,,,-1,-1,,,,1
5f04b3fc4f8dff76b699ac22,bkhal7qdcb,"Deep vs Shallow",1,267,2020-07-08T14:58:54-07:00,18.184932947159,2,versionA_stim.csv,RLVersionB.csv,"Relational Version B","Relational, read only version B",DIETARY,SACKING,Study1,U,67,58,Study,User,-,,Study/JOL,"Study Phase2",17160,,,-1,-1,,,,1
5f04b3fc4f8dff76b699ac22,bkhal7qdcb,"Deep vs Shallow",1,268,2020-07-08T14:59:01-07:00,7.3184330463409,2,versionA_stim.csv,RLVersionB.csv,"Relational Version B","Relational, read only version B",PARK,HUNGRY,Study1,U,68,15,Study,User,-,,Study/JOL,"Study Phase2",6235,,,-1,-1,,,,1
5f04b3fc4f8dff76b699ac22,bkhal7qdcb,"Deep vs Shallow",1,269,2020-07-08T14:59:08-07:00,6.2812848091125,2,versionA_stim.csv,RLVersionB.csv,"Relational Version B","Relational, read only version B",HIDE,SICK,Study1,U,84,52,Study,User,-,,Study/JOL,"Study Phase2",5513,,,-1,-1,,,,1
5f04b3fc4f8dff76b699ac22,bkhal7qdcb,"Deep vs Shallow",1,270,2020-07-08T14:59:13-07:00,5.3192632198334,2,versionA_stim.csv,RLVersionB.csv,"Relational Version B","Relational, read only version B",HYGIENE,CLEAN,Study1,F,17,68,Study,User,-,,Study/JOL,"Study Phase2",4400,,,-1,-1,,,,1
5f04b3fc4f8dff76b699ac22,bkhal7qdcb,"Deep vs Shallow",1,271,2020-07-08T14:59:19-07:00,6.6519730091095,2,versionA_stim.csv,RLVersionB.csv,"Relational Version B","Relational, read only version B",SHERRIF,POLICE,BUFFER2,Buffer,87,89,Study,User,-,,Study/JOL,BUFFER4,5812,,,-1,-1,,,,1
5f04b3fc4f8dff76b699ac22,bkhal7qdcb,"Deep vs Shallow",1,272,2020-07-08T14:59:31-07:00,11.624246835709,2,versionA_stim.csv,RLVersionB.csv,"Relational Version B","Relational, read only version B",GEESE,GOOSE,BUFFER2,Buffer,86,88,Study,User,-,,Study/JOL,BUFFER4,10818,,,-1,-1,,,,1
5f04b3fc4f8dff76b699ac22,bkhal7qdcb,"Deep vs Shallow",1,273,2020-07-08T14:59:41-07:00,9.5941240787506,2,versionA_stim.csv,RLVersionB.csv,"Relational Version B","Relational, read only version B",THING,STUFF,BUFFER2,Buffer,90,91,Study,User,-,,Study/JOL,BUFFER4,8798,,,-1,-1,,,,1
5f04b3fc4f8dff76b699ac22,bkhal7qdcb,"Deep vs Shallow",1,274,2020-07-08T14:59:47-07:00,6.6064319610596,2,versionA_stim.csv,RLVersionB.csv,"Relational Version B","Relational, read only version B",MALT,CHOCOLATE,BUFFER2,Buffer,88,87,Study,User,-,,Study/JOL,BUFFER4,5529,,,-1,-1,,,,1
5f04b3fc4f8dff76b699ac22,bkhal7qdcb,"Deep vs Shallow",1,275,2020-07-08T14:59:52-07:00,4.6981611251831,2,versionA_stim.csv,RLVersionB.csv,"Relational Version B","Relational, read only version B",MOON,SPACE,BUFFER2,Buffer,89,90,Study,User,-,,Study/JOL,BUFFER4,3897,,,-1,-1,,,,1
5f04b3fc4f8dff76b699ac22,bkhal7qdcb,"Deep vs Shallow",1,276,2020-07-08T14:59:56-07:00,3.8713848590851,2,versionA_stim.csv,RLVersionB.csv,"Relational Version B","Relational, read only version B",,,,,,0,Instruct,User,-,"You have completed this section. Please press Enter.",Filler_Instruction,Instruct5,2928,,,-1,-1,,,,1
5f04b3fc4f8dff76b699ac22,bkhal7qdcb,"Deep vs Shallow",1,277,2020-07-08T15:00:11-07:00,14.960776090622,2,versionA_stim.csv,RLVersionB.csv,"Relational Version B","Relational, read only version B",,,,,,0,FreeRecall,-,10,"What were you supposed to focus on while you studied each pair? (Hint: Think back to the instructions). Type your answer in the space below.",,CHECK3,13980,"how they relate ",0,-1,-1,0,0,,1
5f04b3fc4f8dff76b699ac22,bkhal7qdcb,"Deep vs Shallow",1,278,2020-07-08T15:00:14-07:00,2.9299829006195,2,versionA_stim.csv,RLVersionB.csv,"Relational Version B","Relational, read only version B",,,,,,0,Instruct,User,-,"You have completed this section. Please press Enter.",Filler_Instruction,Instruct5,2194,,,-1,-1,,,,1
5f04b3fc4f8dff76b699ac22,bkhal7qdcb,"Deep vs Shallow",1,279,2020-07-08T15:02:15-07:00,120.78977799416,2,versionA_stim.csv,RLVersionB.csv,"Relational Version B","Relational, read only version B",,,,,,0,FreeRecall,120,120,"Please list the 50 US states in reverse alphabetical order (z - a). The task will automatically advance to the next screen after two minutes.",,Filler2,120007,"warming wisconsan west Virginia Washington vigininia vermont utar texas tennessee South decot",0,-1,-1,0,0,,1
5f04b3fc4f8dff76b699ac22,bkhal7qdcb,"Deep vs Shallow",1,280,2020-07-08T15:02:26-07:00,11.801358938217,2,versionA_stim.csv,RLVersionB.csv,"Relational Version B","Relational, read only version B",,,,,,0,Instruct,-,10,"You will now be presented with the first word from each of the previously studied item pairs. Please type the missing word. If you do not know the word, you may guess or press Enter to skip forward to the next pair.",,Instruct6,11142,,,-1,-1,,,,1
5f04b3fc4f8dff76b699ac22,bkhal7qdcb,"Deep vs Shallow",1,281,2020-07-08T15:02:40-07:00,14.07421207428,2,versionA_stim.csv,RLVersionB.csv,"Relational Version B","Relational, read only version B",BRIDGE,WATER,Study1,F,18,27,Test,User,-,,Recall,Recall2,12770,"water ",100,-1,-1,1,1,,1
5f04b3fc4f8dff76b699ac22,bkhal7qdcb,"Deep vs Shallow",1,282,2020-07-08T15:02:55-07:00,14.964855909348,2,versionA_stim.csv,RLVersionB.csv,"Relational Version B","Relational, read only version B",ART,LION,Study1,U,79,39,Test,User,-,,Recall,Recall2,13708,"Design ",40,-1,-1,0,0,,1
5f04b3fc4f8dff76b699ac22,bkhal7qdcb,"Deep vs Shallow",1,283,2020-07-08T15:03:08-07:00,12.113037109375,2,versionA_stim.csv,RLVersionB.csv,"Relational Version B","Relational, read only version B",BALL,RACKET,Study1,B,38,75,Test,User,-,,Recall,Recall2,11219,baseball,28.571428571429,-1,-1,0,0,,1
5f04b3fc4f8dff76b699ac22,bkhal7qdcb,"Deep vs Shallow",1,284,2020-07-08T15:03:22-07:00,14.712810993195,2,versionA_stim.csv,RLVersionB.csv,"Relational Version B","Relational, read only version B",DEATH,BUSINESS,Study1,U,72,50,Test,User,-,,Recall,Recall2,13829,"buried ",57.142857142857,-1,-1,0,0,,1
5f04b3fc4f8dff76b699ac22,bkhal7qdcb,"Deep vs Shallow",1,285,2020-07-08T15:03:36-07:00,13.590650081635,2,versionA_stim.csv,RLVersionB.csv,"Relational Version B","Relational, read only version B",MACHINE,POSITION,Study1,U,76,7,Test,User,-,,Recall,Recall2,12655,"position ",100,-1,-1,1,1,,1
5f04b3fc4f8dff76b699ac22,bkhal7qdcb,"Deep vs Shallow",1,286,2020-07-08T15:04:03-07:00,27.591339826584,2,versionA_stim.csv,RLVersionB.csv,"Relational Version B","Relational, read only version B",DUE,ASSIGNMENT,Study1,S,46,40,Test,User,-,,Recall,Recall2,26777,"Assignment ",100,-1,-1,1,1,,1
5f04b3fc4f8dff76b699ac22,bkhal7qdcb,"Deep vs Shallow",1,287,2020-07-08T15:04:09-07:00,5.1313421726227,2,versionA_stim.csv,RLVersionB.csv,"Relational Version B","Relational, read only version B",PAST,FUTURE,Study1,S,61,78,Test,User,-,,Recall,Recall2,4207,future,100,-1,-1,1,1,,1
5f04b3fc4f8dff76b699ac22,bkhal7qdcb,"Deep vs Shallow",1,288,2020-07-08T15:04:23-07:00,14.90846991539,2,versionA_stim.csv,RLVersionB.csv,"Relational Version B","Relational, read only version B",PARK,HUNGRY,Study1,U,68,15,Test,User,-,,Recall,Recall2,13980,field,0,-1,-1,0,0,,1
5f04b3fc4f8dff76b699ac22,bkhal7qdcb,"Deep vs Shallow",1,289,2020-07-08T15:04:43-07:00,19.456202983856,2,versionA_stim.csv,RLVersionB.csv,"Relational Version B","Relational, read only version B",SHOE,FOOT,Study1,S,60,49,Test,User,-,,Recall,Recall2,18558,"foot ",100,-1,-1,1,1,,1
5f04b3fc4f8dff76b699ac22,bkhal7qdcb,"Deep vs Shallow",1,290,2020-07-08T15:04:49-07:00,5.7109770774841,2,versionA_stim.csv,RLVersionB.csv,"Relational Version B","Relational, read only version B",KIDNEY,LIVER,Study1,S,53,54,Test,User,-,,Recall,Recall2,4876,liver,100,-1,-1,1,1,,1
5f04b3fc4f8dff76b699ac22,bkhal7qdcb,"Deep vs Shallow",1,291,2020-07-08T15:05:03-07:00,13.932378053665,2,versionA_stim.csv,RLVersionB.csv,"Relational Version B","Relational, read only version B",SWAN,BIRD,Study1,F,14,30,Test,User,-,,Recall,Recall2,13071,Bird,100,-1,-1,1,1,,1
5f04b3fc4f8dff76b699ac22,bkhal7qdcb,"Deep vs Shallow",1,292,2020-07-08T15:05:12-07:00,9.2445938587189,2,versionA_stim.csv,RLVersionB.csv,"Relational Version B","Relational, read only version B",WORK,CHORE,Study1,B,39,79,Test,User,-,,Recall,Recall2,8492,chore,100,-1,-1,1,1,,1
5f04b3fc4f8dff76b699ac22,bkhal7qdcb,"Deep vs Shallow",1,293,2020-07-08T15:05:32-07:00,19.80656504631,2,versionA_stim.csv,RLVersionB.csv,"Relational Version B","Relational, read only version B",WAGE,MONEY,Study1,F,8,8,Test,User,-,,Recall,Recall2,18632,"money ",100,-1,-1,1,1,,1
5f04b3fc4f8dff76b699ac22,bkhal7qdcb,"Deep vs Shallow",1,294,2020-07-08T15:05:56-07:00,23.970338106155,2,versionA_stim.csv,RLVersionB.csv,"Relational Version B","Relational, read only version B",STRONG,ACCIDENT,Study1,U,80,81,Test,User,-,,Recall,Recall2,22374,"Accident ",100,-1,-1,1,1,,1
5f04b3fc4f8dff76b699ac22,bkhal7qdcb,"Deep vs Shallow",1,295,2020-07-08T15:06:05-07:00,9.2280728816986,2,versionA_stim.csv,RLVersionB.csv,"Relational Version B","Relational, read only version B",ROOT,PLANT,Study1,F,13,85,Test,User,-,,Recall,Recall2,8334,plant,100,-1,-1,1,1,,1
5f04b3fc4f8dff76b699ac22,bkhal7qdcb,"Deep vs Shallow",1,296,2020-07-08T15:06:30-07:00,24.959810018539,2,versionA_stim.csv,RLVersionB.csv,"Relational Version B","Relational, read only version B",WAY,OUT,Study1,F,16,10,Test,User,-,,Recall,Recall2,23651,out,100,-1,-1,1,1,,1
5f04b3fc4f8dff76b699ac22,bkhal7qdcb,"Deep vs Shallow",1,297,2020-07-08T15:06:35-07:00,5.0506999492645,2,versionA_stim.csv,RLVersionB.csv,"Relational Version B","Relational, read only version B",POP,SODA,Study1,S,56,41,Test,User,-,,Recall,Recall2,4272,soda,100,-1,-1,1,1,,1
5f04b3fc4f8dff76b699ac22,bkhal7qdcb,"Deep vs Shallow",1,298,2020-07-08T15:06:59-07:00,23.862206935883,2,versionA_stim.csv,RLVersionB.csv,"Relational Version B","Relational, read only version B",DELINQUENT,BAD,Study1,F,6,17,Test,User,-,,Recall,Recall2,22827,rubbish,20,-1,-1,0,0,,1
5f04b3fc4f8dff76b699ac22,bkhal7qdcb,"Deep vs Shallow",1,299,2020-07-08T15:07:19-07:00,19.998172998428,2,versionA_stim.csv,RLVersionB.csv,"Relational Version B","Relational, read only version B",HUNGER,FAMINE,Study1,B,40,67,Test,User,-,,Recall,Recall2,18970,Food,20,-1,-1,0,0,,1
5f04b3fc4f8dff76b699ac22,bkhal7qdcb,"Deep vs Shallow",1,300,2020-07-08T15:07:26-07:00,6.8691191673279,2,versionA_stim.csv,RLVersionB.csv,"Relational Version B","Relational, read only version B",BEGIN,END,Study1,S,54,33,Test,User,-,,Recall,Recall2,6011,end,100,-1,-1,1,1,,1
5f04b3fc4f8dff76b699ac22,bkhal7qdcb,"Deep vs Shallow",1,301,2020-07-08T15:07:40-07:00,14.598227977753,2,versionA_stim.csv,RLVersionB.csv,"Relational Version B","Relational, read only version B",HOT,CHILI,Study1,B,37,71,Test,User,-,,Recall,Recall2,13735,chilllii,76.923076923077,-1,-1,0,1,,1
5f04b3fc4f8dff76b699ac22,bkhal7qdcb,"Deep vs Shallow",1,302,2020-07-08T15:07:58-07:00,18.141434907913,2,versionA_stim.csv,RLVersionB.csv,"Relational Version B","Relational, read only version B",DRINK,SIP,Study1,B,27,36,Test,User,-,,Recall,Recall2,16126,sip,100,-1,-1,1,1,,1
5f04b3fc4f8dff76b699ac22,bkhal7qdcb,"Deep vs Shallow",1,303,2020-07-08T15:08:18-07:00,19.640444993973,2,versionA_stim.csv,RLVersionB.csv,"Relational Version B","Relational, read only version B",MATH,DIVISION,Study1,B,33,64,Test,User,-,,Recall,Recall2,18637,"division ",100,-1,-1,1,1,,1
5f04b3fc4f8dff76b699ac22,bkhal7qdcb,"Deep vs Shallow",1,304,2020-07-08T15:08:38-07:00,19.644835948944,2,versionA_stim.csv,RLVersionB.csv,"Relational Version B","Relational, read only version B",CHISEL,HAMMER,Study1,F,9,76,Test,User,-,,Recall,Recall2,18633,hammer,100,-1,-1,1,1,,1
5f04b3fc4f8dff76b699ac22,bkhal7qdcb,"Deep vs Shallow",1,305,2020-07-08T15:09:01-07:00,23.495507001877,2,versionA_stim.csv,RLVersionB.csv,"Relational Version B","Relational, read only version B",FULL,ENOUGH,Study1,B,26,9,Test,User,-,,Recall,Recall2,22708,enough,100,-1,-1,1,1,,1
5f04b3fc4f8dff76b699ac22,bkhal7qdcb,"Deep vs Shallow",1,306,2020-07-08T15:09:24-07:00,23.00939822197,2,versionA_stim.csv,RLVersionB.csv,"Relational Version B","Relational, read only version B",ALLOW,TUCK,Study1,U,78,29,Test,User,-,,Recall,Recall2,21945,tok,57.142857142857,-1,-1,0,0,,1
5f04b3fc4f8dff76b699ac22,bkhal7qdcb,"Deep vs Shallow",1,307,2020-07-08T15:09:48-07:00,24.378629922867,2,versionA_stim.csv,RLVersionB.csv,"Relational Version B","Relational, read only version B",FIRE,BLAZE,Study1,B,45,18,Test,User,-,,Recall,Recall2,23429,Blaze,100,-1,-1,1,1,,1
5f04b3fc4f8dff76b699ac22,bkhal7qdcb,"Deep vs Shallow",1,308,2020-07-08T15:10:04-07:00,15.146223068237,2,versionA_stim.csv,RLVersionB.csv,"Relational Version B","Relational, read only version B",DISCUSSION,TALK,Study1,F,21,65,Test,User,-,,Recall,Recall2,14272,"talking ",72.727272727273,-1,-1,0,0,,1
5f04b3fc4f8dff76b699ac22,bkhal7qdcb,"Deep vs Shallow",1,309,2020-07-08T15:10:19-07:00,15.098552942276,2,versionA_stim.csv,RLVersionB.csv,"Relational Version B","Relational, read only version B",HORNET,STING,Study1,F,11,45,Test,User,-,,Recall,Recall2,14130,Sting,100,-1,-1,1,1,,1
5f04b3fc4f8dff76b699ac22,bkhal7qdcb,"Deep vs Shallow",1,310,2020-07-08T15:10:29-07:00,9.9084138870239,2,versionA_stim.csv,RLVersionB.csv,"Relational Version B","Relational, read only version B",GEOLOGY,ROCK,Study1,F,19,20,Test,User,-,,Recall,Recall2,8781,rock,100,-1,-1,1,1,,1
5f04b3fc4f8dff76b699ac22,bkhal7qdcb,"Deep vs Shallow",1,311,2020-07-08T15:11:18-07:00,49.363852977753,2,versionA_stim.csv,RLVersionB.csv,"Relational Version B","Relational, read only version B",DUMP,WASTE,Study1,S,49,70,Test,User,-,,Recall,Recall2,48572,Waste,100,-1,-1,1,1,,1
5f04b3fc4f8dff76b699ac22,bkhal7qdcb,"Deep vs Shallow",1,312,2020-07-08T15:11:52-07:00,34.463251113892,2,versionA_stim.csv,RLVersionB.csv,"Relational Version B","Relational, read only version B",NUMBER,AMOUNT,Study1,S,47,11,Test,User,-,,Recall,Recall2,33494,Amount,100,-1,-1,1,1,,1
5f04b3fc4f8dff76b699ac22,bkhal7qdcb,"Deep vs Shallow",1,313,2020-07-08T15:12:09-07:00,16.808088064194,2,versionA_stim.csv,RLVersionB.csv,"Relational Version B","Relational, read only version B",HYGIENE,CLEAN,Study1,F,17,68,Test,User,-,,Recall,Recall2,15935,clean,100,-1,-1,1,1,,1
5f04b3fc4f8dff76b699ac22,bkhal7qdcb,"Deep vs Shallow",1,314,2020-07-08T15:12:40-07:00,31.025344848633,2,versionA_stim.csv,RLVersionB.csv,"Relational Version B","Relational, read only version B",LIFT,WOMAN,Study1,U,69,34,Test,User,-,,Recall,Recall2,30106,women,80,-1,-1,0,1,,1
5f04b3fc4f8dff76b699ac22,bkhal7qdcb,"Deep vs Shallow",1,315,2020-07-08T15:12:59-07:00,19.036642074585,2,versionA_stim.csv,RLVersionB.csv,"Relational Version B","Relational, read only version B",GREAT,FANTASTIC,Study1,B,35,72,Test,User,-,,Recall,Recall2,18112,"grand ",28.571428571429,-1,-1,0,0,,1
5f04b3fc4f8dff76b699ac22,bkhal7qdcb,"Deep vs Shallow",1,316,2020-07-08T15:13:34-07:00,35.071348905563,2,versionA_stim.csv,RLVersionB.csv,"Relational Version B","Relational, read only version B",CLOTHES,ATTIRE,Study1,B,43,83,Test,User,-,,Recall,Recall2,33105,attire,100,-1,-1,1,1,,1
5f04b3fc4f8dff76b699ac22,bkhal7qdcb,"Deep vs Shallow",1,317,2020-07-08T15:13:58-07:00,23.546514034271,2,versionA_stim.csv,RLVersionB.csv,"Relational Version B","Relational, read only version B",BATHROOM,TOILET,Study1,S,58,56,Test,User,-,,Recall,Recall2,22302,"toilets ",92.307692307692,-1,-1,0,1,,1
5f04b3fc4f8dff76b699ac22,bkhal7qdcb,"Deep vs Shallow",1,318,2020-07-08T15:14:06-07:00,8.1165959835052,2,versionA_stim.csv,RLVersionB.csv,"Relational Version B","Relational, read only version B",ORCHID,FLOWER,Study1,F,24,22,Test,User,-,,Recall,Recall2,7257,flower,100,-1,-1,1,1,,1
5f04b3fc4f8dff76b699ac22,bkhal7qdcb,"Deep vs Shallow",1,319,2020-07-08T15:14:11-07:00,4.5218191146851,2,versionA_stim.csv,RLVersionB.csv,"Relational Version B","Relational, read only version B",CREDIT,CARD,Study1,F,23,77,Test,User,-,,Recall,Recall2,3626,card,100,-1,-1,1,1,,1
5f04b3fc4f8dff76b699ac22,bkhal7qdcb,"Deep vs Shallow",1,320,2020-07-08T15:14:25-07:00,14.889420986176,2,versionA_stim.csv,RLVersionB.csv,"Relational Version B","Relational, read only version B",EDITOR,NEWS,Study1,F,10,80,Test,User,-,,Recall,Recall2,13659,,0,-1,-1,0,0,,1
5f04b3fc4f8dff76b699ac22,bkhal7qdcb,"Deep vs Shallow",1,321,2020-07-08T15:14:52-07:00,26.631448030472,2,versionA_stim.csv,RLVersionB.csv,"Relational Version B","Relational, read only version B",SMELL,STENCH,Study1,B,42,86,Test,User,-,,Recall,Recall2,25675,"Stench ",100,-1,-1,1,1,,1
5f04b3fc4f8dff76b699ac22,bkhal7qdcb,"Deep vs Shallow",1,322,2020-07-08T15:15:06-07:00,13.829406023026,2,versionA_stim.csv,RLVersionB.csv,"Relational Version B","Relational, read only version B",HEIGHT,GROWTH,Study1,B,30,53,Test,User,-,,Recall,Recall2,12914,grow,80,-1,-1,0,1,,1
5f04b3fc4f8dff76b699ac22,bkhal7qdcb,"Deep vs Shallow",1,323,2020-07-08T15:15:15-07:00,8.6089849472046,2,versionA_stim.csv,RLVersionB.csv,"Relational Version B","Relational, read only version B",DARK,CAVE,Study1,B,28,73,Test,User,-,,Recall,Recall2,7783,cave,100,-1,-1,1,1,,1
5f04b3fc4f8dff76b699ac22,bkhal7qdcb,"Deep vs Shallow",1,324,2020-07-08T15:15:23-07:00,8.8438360691071,2,versionA_stim.csv,RLVersionB.csv,"Relational Version B","Relational, read only version B",WINE,CHEESE,Study1,S,57,47,Test,User,-,,Recall,Recall2,7804,chese,90.909090909091,-1,-1,0,1,,1
5f04b3fc4f8dff76b699ac22,bkhal7qdcb,"Deep vs Shallow",1,325,2020-07-08T15:15:36-07:00,12.717654943466,2,versionA_stim.csv,RLVersionB.csv,"Relational Version B","Relational, read only version B",TAKE,SEIZE,Study1,B,29,14,Test,User,-,,Recall,Recall2,11911,seize,100,-1,-1,1,1,,1
5f04b3fc4f8dff76b699ac22,bkhal7qdcb,"Deep vs Shallow",1,326,2020-07-08T15:15:52-07:00,15.661463975906,2,versionA_stim.csv,RLVersionB.csv,"Relational Version B","Relational, read only version B",PUSHER,CLUTTER,Study1,U,66,26,Test,User,-,,Recall,Recall2,14611,Pull,18.181818181818,-1,-1,0,0,,1
5f04b3fc4f8dff76b699ac22,bkhal7qdcb,"Deep vs Shallow",1,327,2020-07-08T15:16:20-07:00,27.808286905289,2,versionA_stim.csv,RLVersionB.csv,"Relational Version B","Relational, read only version B",CASH,WOULD,Study1,U,83,28,Test,User,-,,Recall,Recall2,26401,Money,20,-1,-1,0,0,,1
5f04b3fc4f8dff76b699ac22,bkhal7qdcb,"Deep vs Shallow",1,328,2020-07-08T15:16:42-07:00,22.46025800705,2,versionA_stim.csv,RLVersionB.csv,"Relational Version B","Relational, read only version B",BLOW,WIND,Study1,S,55,82,Test,User,-,,Recall,Recall2,21409,wind,100,-1,-1,1,1,,1
5f04b3fc4f8dff76b699ac22,bkhal7qdcb,"Deep vs Shallow",1,329,2020-07-08T15:17:03-07:00,20.959644079208,2,versionA_stim.csv,RLVersionB.csv,"Relational Version B","Relational, read only version B",HIDE,SICK,Study1,U,84,52,Test,User,-,,Recall,Recall2,18935,sick,100,-1,-1,1,1,,1
5f04b3fc4f8dff76b699ac22,bkhal7qdcb,"Deep vs Shallow",1,330,2020-07-08T15:17:08-07:00,5.4088170528412,2,versionA_stim.csv,RLVersionB.csv,"Relational Version B","Relational, read only version B",REVOLUTION,WAR,Study1,F,20,13,Test,User,-,,Recall,Recall2,4398,war,100,-1,-1,1,1,,1
5f04b3fc4f8dff76b699ac22,bkhal7qdcb,"Deep vs Shallow",1,331,2020-07-08T15:17:43-07:00,34.724901914597,2,versionA_stim.csv,RLVersionB.csv,"Relational Version B","Relational, read only version B",BITTER,COLD,Study1,F,12,60,Test,User,-,,Recall,Recall2,33705,cold,100,-1,-1,1,1,,1
5f04b3fc4f8dff76b699ac22,bkhal7qdcb,"Deep vs Shallow",1,332,2020-07-08T15:17:50-07:00,7.2622900009155,2,versionA_stim.csv,RLVersionB.csv,"Relational Version B","Relational, read only version B",TRIAL,JURY,Study1,S,50,44,Test,User,-,,Recall,Recall2,6415,jury,100,-1,-1,1,1,,1
5f04b3fc4f8dff76b699ac22,bkhal7qdcb,"Deep vs Shallow",1,333,2020-07-08T15:18:03-07:00,13.012229919434,2,versionA_stim.csv,RLVersionB.csv,"Relational Version B","Relational, read only version B",PAW,DOG,Study1,F,15,61,Test,User,-,,Recall,Recall2,11748,dog,100,-1,-1,1,1,,1
5f04b3fc4f8dff76b699ac22,bkhal7qdcb,"Deep vs Shallow",1,334,2020-07-08T15:18:12-07:00,8.3241012096405,2,versionA_stim.csv,RLVersionB.csv,"Relational Version B","Relational, read only version B",LAW,ATTORNEY,Study1,B,34,51,Test,User,-,,Recall,Recall2,7463,"attorney ",100,-1,-1,1,1,,1
5f04b3fc4f8dff76b699ac22,bkhal7qdcb,"Deep vs Shallow",1,335,2020-07-08T15:18:20-07:00,8.7923429012299,2,versionA_stim.csv,RLVersionB.csv,"Relational Version B","Relational, read only version B",DIGESTION,STOMACH,Study1,F,7,35,Test,User,-,,Recall,Recall2,7939,food,18.181818181818,-1,-1,0,0,,1
5f04b3fc4f8dff76b699ac22,bkhal7qdcb,"Deep vs Shallow",1,336,2020-07-08T15:18:36-07:00,15.541662931442,2,versionA_stim.csv,RLVersionB.csv,"Relational Version B","Relational, read only version B",DIETARY,SACKING,Study1,U,67,58,Test,User,-,,Recall,Recall2,14489,,0,-1,-1,0,0,,1
5f04b3fc4f8dff76b699ac22,bkhal7qdcb,"Deep vs Shallow",1,337,2020-07-08T15:18:48-07:00,11.651729106903,2,versionA_stim.csv,RLVersionB.csv,"Relational Version B","Relational, read only version B",KEY,LATCH,Study1,B,36,84,Test,User,-,,Recall,Recall2,10730,"Latch ",100,-1,-1,1,1,,1
5f04b3fc4f8dff76b699ac22,bkhal7qdcb,"Deep vs Shallow",1,338,2020-07-08T15:19:11-07:00,23.800148963928,2,versionA_stim.csv,RLVersionB.csv,"Relational Version B","Relational, read only version B",GRILL,BAR,Study1,S,52,62,Test,User,-,,Recall,Recall2,22875,bar,100,-1,-1,1,1,,1
5f04b3fc4f8dff76b699ac22,bkhal7qdcb,"Deep vs Shallow",1,339,2020-07-08T15:19:43-07:00,31.718254089355,2,versionA_stim.csv,RLVersionB.csv,"Relational Version B","Relational, read only version B",DEBATE,SIGHT,Study1,U,73,38,Test,User,-,,Recall,Recall2,30801,sigh,88.888888888889,-1,-1,0,1,,1
5f04b3fc4f8dff76b699ac22,bkhal7qdcb,"Deep vs Shallow",1,340,2020-07-08T15:19:58-07:00,14.816916942596,2,versionA_stim.csv,RLVersionB.csv,"Relational Version B","Relational, read only version B",KING,VASE,Study1,U,85,69,Test,User,-,,Recall,Recall2,13826,Queen,22.222222222222,-1,-1,0,0,,1
5f04b3fc4f8dff76b699ac22,bkhal7qdcb,"Deep vs Shallow",1,341,2020-07-08T15:20:12-07:00,14.322068929672,2,versionA_stim.csv,RLVersionB.csv,"Relational Version B","Relational, read only version B",HAPPY,CAR,Study1,U,77,21,Test,User,-,,Recall,Recall2,13491,car,100,-1,-1,1,1,,1
5f04b3fc4f8dff76b699ac22,bkhal7qdcb,"Deep vs Shallow",1,342,2020-07-08T15:20:18-07:00,5.9054980278015,2,versionA_stim.csv,RLVersionB.csv,"Relational Version B","Relational, read only version B",ARCHITECTURE,DESIGN,Study1,S,51,57,Test,User,-,,Recall,Recall2,5150,"design ",100,-1,-1,1,1,,1
5f04b3fc4f8dff76b699ac22,bkhal7qdcb,"Deep vs Shallow",1,343,2020-07-08T15:20:37-07:00,18.79360294342,2,versionA_stim.csv,RLVersionB.csv,"Relational Version B","Relational, read only version B",SUGAR,RIDDLE,Study1,U,81,23,Test,User,-,,Recall,Recall2,17546,riddle,100,-1,-1,1,1,,1
5f04b3fc4f8dff76b699ac22,bkhal7qdcb,"Deep vs Shallow",1,344,2020-07-08T15:20:51-07:00,13.823125123978,2,versionA_stim.csv,RLVersionB.csv,"Relational Version B","Relational, read only version B",ARTERY,BRONZE,Study1,U,74,55,Test,User,-,,Recall,Recall2,13042,Heart,18.181818181818,-1,-1,0,0,,1
5f04b3fc4f8dff76b699ac22,bkhal7qdcb,"Deep vs Shallow",1,345,2020-07-08T15:20:59-07:00,8.3602750301361,2,versionA_stim.csv,RLVersionB.csv,"Relational Version B","Relational, read only version B",FIX,HAND,Study1,U,75,48,Test,User,-,,Recall,Recall2,7591,"hand ",100,-1,-1,1,1,,1
5f04b3fc4f8dff76b699ac22,bkhal7qdcb,"Deep vs Shallow",1,346,2020-07-08T15:21:08-07:00,8.6170258522034,2,versionA_stim.csv,RLVersionB.csv,"Relational Version B","Relational, read only version B",SLEEP,DROWSY,Study1,B,41,37,Test,User,-,,Recall,Recall2,7745,drowsy,100,-1,-1,1,1,,1
5f04b3fc4f8dff76b699ac22,bkhal7qdcb,"Deep vs Shallow",1,347,2020-07-08T15:21:21-07:00,13.544489145279,2,versionA_stim.csv,RLVersionB.csv,"Relational Version B","Relational, read only version B",VALLEY,ADD,Study1,U,82,16,Test,User,-,,Recall,Recall2,12056,Add,100,-1,-1,1,1,,1
