Username,ID,ExperimentName,Session,Trial,Date,TimeDif,"Condition Number","Stimuli File","Order File","Condition Description","Condition Notes",Stimuli*Cue,Stimuli*Answer,Stimuli*Shuffle,"Stimuli*Stimuli Notes",Stimuli*Value,Procedure*Item,"Procedure*Trial Type","Procedure*Max Time","Procedure*Min Time",Procedure*Text,"Procedure*Procedure Notes",Procedure*Shuffle,Response*RT,Response*Response,Response*Accuracy,Response*RTfirst,Response*RTlast,Response*strictAcc,Response*lenientAcc,Response*focus,Response*Focus
5e5dbe11de3ec60d863dcfba,pk6inlnqw5,"Deep vs Shallow",1,1,2020-07-08T14:30:26-07:00,13.616441965103,3,versionC_stim.csv,RLVersionC.csv,"Realational Version C","Relational, read only version C",,,,,,0,Instruct,-,10,"In this section, you will be presented with a series of word pairs. Please study both items in the pair.",,Instruct15,13314,,,-1,-1,,,,0.94
5e5dbe11de3ec60d863dcfba,pk6inlnqw5,"Deep vs Shallow",1,2,2020-07-08T14:30:42-07:00,16.024662017822,3,versionC_stim.csv,RLVersionC.csv,"Realational Version C","Relational, read only version C",,,,,,0,Instruct,-,15,"As you study, please think about how the two concepts are RELATED to each other. For example, if you see the pair TURTLE-CAT, think about how both are alive, they are both animals, and both can be kept as pets.",,Instruct19,15677,,,-1,-1,,,,1
5e5dbe11de3ec60d863dcfba,pk6inlnqw5,"Deep vs Shallow",1,3,2020-07-08T14:30:53-07:00,11.589871883392,3,versionC_stim.csv,RLVersionC.csv,"Realational Version C","Relational, read only version C",,,,,,0,FreeRecall,-,10,"What you should think about as you study each item pair? Type your response in the box below.",,CHECK1,11270,"how they are related",0,8102,10299,0,0,,1
5e5dbe11de3ec60d863dcfba,pk6inlnqw5,"Deep vs Shallow",1,4,2020-07-08T14:30:56-07:00,2.2785251140594,3,versionC_stim.csv,RLVersionC.csv,"Realational Version C","Relational, read only version C",,,,,,0,Instruct,User,-,"You will now begin the experiment. Press ENTER when you are ready to begin.",,Instruct000,1979,,,-1,-1,,,,1
5e5dbe11de3ec60d863dcfba,pk6inlnqw5,"Deep vs Shallow",1,5,2020-07-08T14:31:01-07:00,4.9424018859863,3,versionC_stim.csv,RLVersionC.csv,"Realational Version C","Relational, read only version C",GREEN,TREES,BUFFER1,Buffer,1,6,Study,User,-,,Study/JOL,BUFFER,4670,,,-1,-1,,,,1
5e5dbe11de3ec60d863dcfba,pk6inlnqw5,"Deep vs Shallow",1,6,2020-07-08T14:31:08-07:00,7.5808310508728,3,versionC_stim.csv,RLVersionC.csv,"Realational Version C","Relational, read only version C",JAM,SPACE,BUFFER1,Buffer,5,5,Study,User,-,,Study/JOL,BUFFER,7287,,,-1,-1,,,,1
5e5dbe11de3ec60d863dcfba,pk6inlnqw5,"Deep vs Shallow",1,7,2020-07-08T14:31:25-07:00,17.113502979279,3,versionC_stim.csv,RLVersionC.csv,"Realational Version C","Relational, read only version C",CATCHER,BASEBALL,BUFFER1,Buffer,2,4,Study,User,-,,Study/JOL,BUFFER,16741,,,-1,-1,,,,1
5e5dbe11de3ec60d863dcfba,pk6inlnqw5,"Deep vs Shallow",1,8,2020-07-08T14:31:31-07:00,5.671205997467,3,versionC_stim.csv,RLVersionC.csv,"Realational Version C","Relational, read only version C",BUTTER,PEANUT,BUFFER1,Buffer,3,2,Study,User,-,,Study/JOL,BUFFER,5118,,,-1,-1,,,,1
5e5dbe11de3ec60d863dcfba,pk6inlnqw5,"Deep vs Shallow",1,9,2020-07-08T14:31:38-07:00,7.1783399581909,3,versionC_stim.csv,RLVersionC.csv,"Realational Version C","Relational, read only version C",HIDE,SCARE,BUFFER1,Buffer,4,3,Study,User,-,,Study/JOL,BUFFER,6660,,,-1,-1,,,,1
5e5dbe11de3ec60d863dcfba,pk6inlnqw5,"Deep vs Shallow",1,10,2020-07-08T14:31:53-07:00,15.005741119385,3,versionC_stim.csv,RLVersionC.csv,"Realational Version C","Relational, read only version C",ASSIGNMENT,DUE,Study1,S,46,78,Study,User,-,,Study/JOL,"Study Phase",14621,,,-1,-1,,,,1
5e5dbe11de3ec60d863dcfba,pk6inlnqw5,"Deep vs Shallow",1,11,2020-07-08T14:31:59-07:00,5.4889140129089,3,versionC_stim.csv,RLVersionC.csv,"Realational Version C","Relational, read only version C",PILOT,PLANE,Study1,F,44,22,Study,User,-,,Study/JOL,"Study Phase",5187,,,-1,-1,,,,1
5e5dbe11de3ec60d863dcfba,pk6inlnqw5,"Deep vs Shallow",1,12,2020-07-08T14:32:04-07:00,5.2890169620514,3,versionC_stim.csv,RLVersionC.csv,"Realational Version C","Relational, read only version C",RACKET,BALL,Study1,F,38,32,Study,User,-,,Study/JOL,"Study Phase",5004,,,4910,4910,,,,1
5e5dbe11de3ec60d863dcfba,pk6inlnqw5,"Deep vs Shallow",1,13,2020-07-08T14:32:07-07:00,3.3782949447632,3,versionC_stim.csv,RLVersionC.csv,"Realational Version C","Relational, read only version C",BLAZE,FIRE,Study1,F,45,73,Study,User,-,,Study/JOL,"Study Phase",3065,,,2986,2986,,,,1
5e5dbe11de3ec60d863dcfba,pk6inlnqw5,"Deep vs Shallow",1,14,2020-07-08T14:32:11-07:00,3.355849981308,3,versionC_stim.csv,RLVersionC.csv,"Realational Version C","Relational, read only version C",WASP,BUG,Study1,F,32,21,Study,User,-,,Study/JOL,"Study Phase",3057,,,2935,2935,,,,1
5e5dbe11de3ec60d863dcfba,pk6inlnqw5,"Deep vs Shallow",1,15,2020-07-08T14:32:14-07:00,3.2742390632629,3,versionC_stim.csv,RLVersionC.csv,"Realational Version C","Relational, read only version C",END,BEGIN,Study1,S,54,52,Study,User,-,,Study/JOL,"Study Phase",2976,,,2864,2864,,,,1
5e5dbe11de3ec60d863dcfba,pk6inlnqw5,"Deep vs Shallow",1,16,2020-07-08T14:32:17-07:00,3.386570930481,3,versionC_stim.csv,RLVersionC.csv,"Realational Version C","Relational, read only version C",CHILI,HOT,Study1,F,37,75,Study,User,-,,Study/JOL,"Study Phase",2915,,,2784,2784,,,,1
5e5dbe11de3ec60d863dcfba,pk6inlnqw5,"Deep vs Shallow",1,17,2020-07-08T14:32:20-07:00,2.3248610496521,3,versionC_stim.csv,RLVersionC.csv,"Realational Version C","Relational, read only version C",HAND,FIX,Study1,U,75,28,Study,User,-,,Study/JOL,"Study Phase",2054,,,1956,1956,,,,1
5e5dbe11de3ec60d863dcfba,pk6inlnqw5,"Deep vs Shallow",1,18,2020-07-08T14:32:23-07:00,3.0386030673981,3,versionC_stim.csv,RLVersionC.csv,"Realational Version C","Relational, read only version C",ROCK,GEOLOGY,Study1,B,19,31,Study,User,-,,Study/JOL,"Study Phase",2752,,,2636,2636,,,,1
5e5dbe11de3ec60d863dcfba,pk6inlnqw5,"Deep vs Shallow",1,19,2020-07-08T14:32:26-07:00,3.0709280967712,3,versionC_stim.csv,RLVersionC.csv,"Realational Version C","Relational, read only version C",BAR,GRILL,Study1,S,52,56,Study,User,-,,Study/JOL,"Study Phase",2777,,,2674,2674,,,,1
5e5dbe11de3ec60d863dcfba,pk6inlnqw5,"Deep vs Shallow",1,20,2020-07-08T14:32:29-07:00,3.3786678314209,3,versionC_stim.csv,RLVersionC.csv,"Realational Version C","Relational, read only version C",MONEY,WAGE,Study1,B,8,68,Study,User,-,,Study/JOL,"Study Phase",3060,,,3021,3021,,,,1
5e5dbe11de3ec60d863dcfba,pk6inlnqw5,"Deep vs Shallow",1,21,2020-07-08T14:32:32-07:00,2.4924819469452,3,versionC_stim.csv,RLVersionC.csv,"Realational Version C","Relational, read only version C",FISH,TUNA,Study1,B,25,33,Study,User,-,,Study/JOL,"Study Phase",2185,,,2073,2073,,,,1
5e5dbe11de3ec60d863dcfba,pk6inlnqw5,"Deep vs Shallow",1,22,2020-07-08T14:32:36-07:00,4.6722390651703,3,versionC_stim.csv,RLVersionC.csv,"Realational Version C","Relational, read only version C",COLD,BITTER,Study1,B,12,40,Study,User,-,,Study/JOL,"Study Phase",3350,,,3279,3279,,,,1
5e5dbe11de3ec60d863dcfba,pk6inlnqw5,"Deep vs Shallow",1,23,2020-07-08T14:32:40-07:00,3.636255979538,3,versionC_stim.csv,RLVersionC.csv,"Realational Version C","Relational, read only version C",DEFINITION,MEANING,Study1,S,62,10,Study,User,-,,Study/JOL,"Study Phase",3333,,,3194,3195,,,,1
5e5dbe11de3ec60d863dcfba,pk6inlnqw5,"Deep vs Shallow",1,24,2020-07-08T14:32:47-07:00,7.263524055481,3,versionC_stim.csv,RLVersionC.csv,"Realational Version C","Relational, read only version C",JURY,TRIAL,Study1,S,50,25,Study,User,-,,Study/JOL,"Study Phase",5969,,,5831,5831,,,,1
5e5dbe11de3ec60d863dcfba,pk6inlnqw5,"Deep vs Shallow",1,25,2020-07-08T14:32:51-07:00,3.7789900302887,3,versionC_stim.csv,RLVersionC.csv,"Realational Version C","Relational, read only version C",AMOUNT,NUMBER,Study1,S,47,53,Study,User,-,,Study/JOL,"Study Phase",2981,,,2842,2843,,,,1
5e5dbe11de3ec60d863dcfba,pk6inlnqw5,"Deep vs Shallow",1,26,2020-07-08T14:32:57-07:00,6.3426539897919,3,versionC_stim.csv,RLVersionC.csv,"Realational Version C","Relational, read only version C",BELT,SOON,Study1,U,70,35,Study,User,-,,Study/JOL,"Study Phase",6054,,,5915,5915,,,,1
5e5dbe11de3ec60d863dcfba,pk6inlnqw5,"Deep vs Shallow",1,27,2020-07-08T14:33:12-07:00,14.871427059174,3,versionC_stim.csv,RLVersionC.csv,"Realational Version C","Relational, read only version C",POSITION,MACHINE,Study1,U,76,77,Study,User,-,,Study/JOL,"Study Phase",14500,,,14380,14380,,,,1
5e5dbe11de3ec60d863dcfba,pk6inlnqw5,"Deep vs Shallow",1,28,2020-07-08T14:33:16-07:00,3.5013139247894,3,versionC_stim.csv,RLVersionC.csv,"Realational Version C","Relational, read only version C",LIVER,KIDNEY,Study1,S,53,16,Study,User,-,,Study/JOL,"Study Phase",3184,,,3080,3080,,,,1
5e5dbe11de3ec60d863dcfba,pk6inlnqw5,"Deep vs Shallow",1,29,2020-07-08T14:33:20-07:00,4.1785991191864,3,versionC_stim.csv,RLVersionC.csv,"Realational Version C","Relational, read only version C",OUT,WAY,Study1,B,16,58,Study,User,-,,Study/JOL,"Study Phase",3887,,,3813,3813,,,,1
5e5dbe11de3ec60d863dcfba,pk6inlnqw5,"Deep vs Shallow",1,30,2020-07-08T14:33:26-07:00,6.2940549850464,3,versionC_stim.csv,RLVersionC.csv,"Realational Version C","Relational, read only version C",SIP,DRINK,Study1,F,27,44,Study,User,-,,Study/JOL,"Study Phase",5985,,,5866,5866,,,,1
5e5dbe11de3ec60d863dcfba,pk6inlnqw5,"Deep vs Shallow",1,31,2020-07-08T14:33:29-07:00,2.9106259346008,3,versionC_stim.csv,RLVersionC.csv,"Realational Version C","Relational, read only version C",VASE,KING,Study1,U,85,80,Study,User,-,,Study/JOL,"Study Phase",2616,,,2480,2480,,,,1
5e5dbe11de3ec60d863dcfba,pk6inlnqw5,"Deep vs Shallow",1,32,2020-07-08T14:33:33-07:00,3.8793818950653,3,versionC_stim.csv,RLVersionC.csv,"Realational Version C","Relational, read only version C",STING,HORNET,Study1,B,11,9,Study,User,-,,Study/JOL,"Study Phase",3572,,,3427,3427,,,,1
5e5dbe11de3ec60d863dcfba,pk6inlnqw5,"Deep vs Shallow",1,33,2020-07-08T14:33:34-07:00,1.0025451183319,3,versionC_stim.csv,RLVersionC.csv,"Realational Version C","Relational, read only version C",ROUND,CIRCLE,Study1,S,65,67,Study,User,-,,Study/JOL,"Study Phase",714,,,608,608,,,,1
5e5dbe11de3ec60d863dcfba,pk6inlnqw5,"Deep vs Shallow",1,34,2020-07-08T14:33:36-07:00,1.5477688312531,3,versionC_stim.csv,RLVersionC.csv,"Realational Version C","Relational, read only version C",WAR,REVOLUTION,Study1,B,20,60,Study,User,-,,Study/JOL,"Study Phase",1250,,,1146,1146,,,,1
5e5dbe11de3ec60d863dcfba,pk6inlnqw5,"Deep vs Shallow",1,35,2020-07-08T14:33:41-07:00,5.4173421859741,3,versionC_stim.csv,RLVersionC.csv,"Realational Version C","Relational, read only version C",HUNGRY,PARK,Study1,U,68,27,Study,User,-,,Study/JOL,"Study Phase",5135,,,4995,4995,,,,1
5e5dbe11de3ec60d863dcfba,pk6inlnqw5,"Deep vs Shallow",1,36,2020-07-08T14:33:42-07:00,1.332927942276,3,versionC_stim.csv,RLVersionC.csv,"Realational Version C","Relational, read only version C",DESIGN,ARCHITECTURE,Study1,S,51,47,Study,User,-,,Study/JOL,"Study Phase",1021,,,909,910,,,,1
5e5dbe11de3ec60d863dcfba,pk6inlnqw5,"Deep vs Shallow",1,37,2020-07-08T14:33:46-07:00,3.6918470859528,3,versionC_stim.csv,RLVersionC.csv,"Realational Version C","Relational, read only version C",WOMAN,LIFT,Study1,U,69,43,Study,User,-,,Study/JOL,"Study Phase",3382,,,3207,3207,,,,1
5e5dbe11de3ec60d863dcfba,pk6inlnqw5,"Deep vs Shallow",1,38,2020-07-08T14:33:50-07:00,3.9756000041962,3,versionC_stim.csv,RLVersionC.csv,"Realational Version C","Relational, read only version C",SALAD,LETTUCE,Study1,S,59,38,Study,User,-,,Study/JOL,"Study Phase",3676,,,3530,3530,,,,1
5e5dbe11de3ec60d863dcfba,pk6inlnqw5,"Deep vs Shallow",1,39,2020-07-08T14:33:55-07:00,4.5959107875824,3,versionC_stim.csv,RLVersionC.csv,"Realational Version C","Relational, read only version C",LATCH,KEY,Study1,F,36,36,Study,User,-,,Study/JOL,"Study Phase",4308,,,4158,4158,,,,1
5e5dbe11de3ec60d863dcfba,pk6inlnqw5,"Deep vs Shallow",1,40,2020-07-08T14:34:06-07:00,11.452458143234,3,versionC_stim.csv,RLVersionC.csv,"Realational Version C","Relational, read only version C",ACCIDENT,STRONG,Study1,U,80,37,Study,User,-,,Study/JOL,"Study Phase",11111,,,11027,11027,,,,1
5e5dbe11de3ec60d863dcfba,pk6inlnqw5,"Deep vs Shallow",1,41,2020-07-08T14:34:11-07:00,5.4252560138702,3,versionC_stim.csv,RLVersionC.csv,"Realational Version C","Relational, read only version C",FLOOR,DISCOVER,Study1,U,71,54,Study,User,-,,Study/JOL,"Study Phase",5109,,,4881,4882,,,,1
5e5dbe11de3ec60d863dcfba,pk6inlnqw5,"Deep vs Shallow",1,42,2020-07-08T14:34:13-07:00,1.5073540210724,3,versionC_stim.csv,RLVersionC.csv,"Realational Version C","Relational, read only version C",COW,HERD,Study1,B,22,18,Study,User,-,,Study/JOL,"Study Phase",1213,,,1006,1006,,,,1
5e5dbe11de3ec60d863dcfba,pk6inlnqw5,"Deep vs Shallow",1,43,2020-07-08T14:34:14-07:00,1.1293120384216,3,versionC_stim.csv,RLVersionC.csv,"Realational Version C","Relational, read only version C",PLANT,ROOT,Study1,B,13,61,Study,User,-,,Study/JOL,"Study Phase",844,,,696,696,,,,1
5e5dbe11de3ec60d863dcfba,pk6inlnqw5,"Deep vs Shallow",1,44,2020-07-08T14:34:19-07:00,4.612762928009,3,versionC_stim.csv,RLVersionC.csv,"Realational Version C","Relational, read only version C",,,,,,0,Instruct,-,3,"Remember to focus on how the two items are similiar while you study!",,CHECK2,4309,,,-1,-1,,,,1
5e5dbe11de3ec60d863dcfba,pk6inlnqw5,"Deep vs Shallow",1,45,2020-07-08T14:34:20-07:00,1.6450128555298,3,versionC_stim.csv,RLVersionC.csv,"Realational Version C","Relational, read only version C",CHEESE,WINE,Study1,S,57,17,Study,User,-,,Study/JOL,"Study Phase",1351,,,1198,1198,,,,1
5e5dbe11de3ec60d863dcfba,pk6inlnqw5,"Deep vs Shallow",1,46,2020-07-08T14:34:22-07:00,1.2862741947174,3,versionC_stim.csv,RLVersionC.csv,"Realational Version C","Relational, read only version C",CARD,CREDIT,Study1,B,23,15,Study,User,-,,Study/JOL,"Study Phase",977,,,890,890,,,,1
5e5dbe11de3ec60d863dcfba,pk6inlnqw5,"Deep vs Shallow",1,47,2020-07-08T14:34:23-07:00,1.4260768890381,3,versionC_stim.csv,RLVersionC.csv,"Realational Version C","Relational, read only version C",WORD,SENTENCE,Study1,F,31,79,Study,User,-,,Study/JOL,"Study Phase",1110,,,950,950,,,,1
5e5dbe11de3ec60d863dcfba,pk6inlnqw5,"Deep vs Shallow",1,48,2020-07-08T14:34:25-07:00,1.6995091438293,3,versionC_stim.csv,RLVersionC.csv,"Realational Version C","Relational, read only version C",FUTURE,PAST,Study1,S,61,76,Study,User,-,,Study/JOL,"Study Phase",1416,,,1250,1250,,,,1
5e5dbe11de3ec60d863dcfba,pk6inlnqw5,"Deep vs Shallow",1,49,2020-07-08T14:34:30-07:00,4.9571368694305,3,versionC_stim.csv,RLVersionC.csv,"Realational Version C","Relational, read only version C",RIDDLE,SUGAR,Study1,U,81,85,Study,User,-,,Study/JOL,"Study Phase",4624,,,4469,4469,,,,1
5e5dbe11de3ec60d863dcfba,pk6inlnqw5,"Deep vs Shallow",1,50,2020-07-08T14:34:32-07:00,2.128289937973,3,versionC_stim.csv,RLVersionC.csv,"Realational Version C","Relational, read only version C",DIVISION,MATH,Study1,F,33,12,Study,User,-,,Study/JOL,"Study Phase",840,,,660,660,,,,1
5e5dbe11de3ec60d863dcfba,pk6inlnqw5,"Deep vs Shallow",1,51,2020-07-08T14:34:33-07:00,0.88519597053528,3,versionC_stim.csv,RLVersionC.csv,"Realational Version C","Relational, read only version C",FAMINE,HUNGER,Study1,F,40,59,Study,User,-,,Study/JOL,"Study Phase",559,,,468,468,,,,1
5e5dbe11de3ec60d863dcfba,pk6inlnqw5,"Deep vs Shallow",1,52,2020-07-08T14:34:34-07:00,1.3539211750031,3,versionC_stim.csv,RLVersionC.csv,"Realational Version C","Relational, read only version C",FLOWER,ORCHID,Study1,B,24,11,Study,User,-,,Study/JOL,"Study Phase",1065,,,975,975,,,,1
5e5dbe11de3ec60d863dcfba,pk6inlnqw5,"Deep vs Shallow",1,53,2020-07-08T14:34:43-07:00,9.3004858493805,3,versionC_stim.csv,RLVersionC.csv,"Realational Version C","Relational, read only version C",CLUTTER,PUSHER,Study1,U,66,65,Study,User,-,,Study/JOL,"Study Phase",7862,,,7756,7756,,,,1
5e5dbe11de3ec60d863dcfba,pk6inlnqw5,"Deep vs Shallow",1,54,2020-07-08T14:34:45-07:00,1.3719551563263,3,versionC_stim.csv,RLVersionC.csv,"Realational Version C","Relational, read only version C",HAMMER,CHISEL,Study1,B,9,71,Study,User,-,,Study/JOL,"Study Phase",1079,,,918,918,,,,1
5e5dbe11de3ec60d863dcfba,pk6inlnqw5,"Deep vs Shallow",1,55,2020-07-08T14:34:46-07:00,1.6727869510651,3,versionC_stim.csv,RLVersionC.csv,"Realational Version C","Relational, read only version C",SITE,LOCATION,Study1,S,48,46,Study,User,-,,Study/JOL,"Study Phase",1253,,,1169,1169,,,,1
5e5dbe11de3ec60d863dcfba,pk6inlnqw5,"Deep vs Shallow",1,56,2020-07-08T14:34:48-07:00,1.2375030517578,3,versionC_stim.csv,RLVersionC.csv,"Realational Version C","Relational, read only version C",TOILET,BATHROOM,Study1,S,58,7,Study,User,-,,Study/JOL,"Study Phase",934,,,878,878,,,,1
5e5dbe11de3ec60d863dcfba,pk6inlnqw5,"Deep vs Shallow",1,57,2020-07-08T14:34:49-07:00,1.2069568634033,3,versionC_stim.csv,RLVersionC.csv,"Realational Version C","Relational, read only version C",FOOT,SHOE,Study1,S,60,19,Study,User,-,,Study/JOL,"Study Phase",910,,,858,858,,,,1
5e5dbe11de3ec60d863dcfba,pk6inlnqw5,"Deep vs Shallow",1,58,2020-07-08T14:34:51-07:00,2.199823141098,3,versionC_stim.csv,RLVersionC.csv,"Realational Version C","Relational, read only version C",SODA,POP,Study1,S,56,81,Study,User,-,,Study/JOL,"Study Phase",870,,,802,803,,,,1
5e5dbe11de3ec60d863dcfba,pk6inlnqw5,"Deep vs Shallow",1,59,2020-07-08T14:34:52-07:00,1.3419868946075,3,versionC_stim.csv,RLVersionC.csv,"Realational Version C","Relational, read only version C",WIND,BLOW,Study1,S,55,20,Study,User,-,,Study/JOL,"Study Phase",1050,,,959,959,,,,1
5e5dbe11de3ec60d863dcfba,pk6inlnqw5,"Deep vs Shallow",1,60,2020-07-08T14:34:53-07:00,1.1446371078491,3,versionC_stim.csv,RLVersionC.csv,"Realational Version C","Relational, read only version C",WASTE,DUMP,Study1,S,49,29,Study,User,-,,Study/JOL,"Study Phase",861,,,794,794,,,,1
5e5dbe11de3ec60d863dcfba,pk6inlnqw5,"Deep vs Shallow",1,61,2020-07-08T14:35:00-07:00,6.0487718582153,3,versionC_stim.csv,RLVersionC.csv,"Realational Version C","Relational, read only version C",WOULD,CASH,Study1,U,83,70,Study,User,-,,Study/JOL,"Study Phase",5739,,,5561,5561,,,,1
5e5dbe11de3ec60d863dcfba,pk6inlnqw5,"Deep vs Shallow",1,62,2020-07-08T14:35:01-07:00,1.0395910739899,3,versionC_stim.csv,RLVersionC.csv,"Realational Version C","Relational, read only version C",CHILD,BABY,Study1,S,64,51,Study,User,-,,Study/JOL,"Study Phase",750,,,679,679,,,,1
5e5dbe11de3ec60d863dcfba,pk6inlnqw5,"Deep vs Shallow",1,63,2020-07-08T14:35:02-07:00,1.0570130348206,3,versionC_stim.csv,RLVersionC.csv,"Realational Version C","Relational, read only version C",NEWS,EDITOR,Study1,B,10,74,Study,User,-,,Study/JOL,"Study Phase",742,,,659,659,,,,1
5e5dbe11de3ec60d863dcfba,pk6inlnqw5,"Deep vs Shallow",1,64,2020-07-08T14:35:03-07:00,1.1028978824615,3,versionC_stim.csv,RLVersionC.csv,"Realational Version C","Relational, read only version C",ATTORNEY,LAW,Study1,F,34,24,Study,User,-,,Study/JOL,"Study Phase",773,,,713,713,,,,1
5e5dbe11de3ec60d863dcfba,pk6inlnqw5,"Deep vs Shallow",1,65,2020-07-08T14:35:14-07:00,11.054859161377,3,versionC_stim.csv,RLVersionC.csv,"Realational Version C","Relational, read only version C",SACKING,DIETARY,Study1,U,67,49,Study,User,-,,Study/JOL,"Study Phase",10653,,,10496,10496,,,,1
5e5dbe11de3ec60d863dcfba,pk6inlnqw5,"Deep vs Shallow",1,66,2020-07-08T14:35:15-07:00,1.5658988952637,3,versionC_stim.csv,RLVersionC.csv,"Realational Version C","Relational, read only version C",BEE,HONEY,Study1,S,63,72,Study,User,-,,Study/JOL,"Study Phase",1276,,,1148,1148,,,,1
5e5dbe11de3ec60d863dcfba,pk6inlnqw5,"Deep vs Shallow",1,67,2020-07-08T14:35:16-07:00,1.0427989959717,3,versionC_stim.csv,RLVersionC.csv,"Realational Version C","Relational, read only version C",CAR,HAPPY,Study1,U,77,86,Study,User,-,,Study/JOL,"Study Phase",753,,,669,670,,,,1
5e5dbe11de3ec60d863dcfba,pk6inlnqw5,"Deep vs Shallow",1,68,2020-07-08T14:35:20-07:00,3.5967199802399,3,versionC_stim.csv,RLVersionC.csv,"Realational Version C","Relational, read only version C",GROWTH,HEIGHT,Study1,F,30,50,Study,User,-,,Study/JOL,"Study Phase",3272,,,3186,3186,,,,1
5e5dbe11de3ec60d863dcfba,pk6inlnqw5,"Deep vs Shallow",1,69,2020-07-08T14:35:22-07:00,1.6095340251923,3,versionC_stim.csv,RLVersionC.csv,"Realational Version C","Relational, read only version C",TALK,DISCUSSION,Study1,B,21,41,Study,User,-,,Study/JOL,"Study Phase",1311,,,1236,1236,,,,1
5e5dbe11de3ec60d863dcfba,pk6inlnqw5,"Deep vs Shallow",1,70,2020-07-08T14:35:22-07:00,0.74103689193726,3,versionC_stim.csv,RLVersionC.csv,"Realational Version C","Relational, read only version C",DROWSY,SLEEP,Study1,F,41,8,Study,User,-,,Study/JOL,"Study Phase",446,,,322,322,,,,1
5e5dbe11de3ec60d863dcfba,pk6inlnqw5,"Deep vs Shallow",1,71,2020-07-08T14:35:23-07:00,0.69406318664551,3,versionC_stim.csv,RLVersionC.csv,"Realational Version C","Relational, read only version C",BAD,DELINQUENT,Study1,B,6,45,Study,User,-,,Study/JOL,"Study Phase",394,,,294,294,,,,1
5e5dbe11de3ec60d863dcfba,pk6inlnqw5,"Deep vs Shallow",1,72,2020-07-08T14:35:24-07:00,0.82130789756775,3,versionC_stim.csv,RLVersionC.csv,"Realational Version C","Relational, read only version C",DOG,PAW,Study1,B,15,48,Study,User,-,,Study/JOL,"Study Phase",524,,,425,425,,,,1
5e5dbe11de3ec60d863dcfba,pk6inlnqw5,"Deep vs Shallow",1,73,2020-07-08T14:35:25-07:00,0.7975549697876,3,versionC_stim.csv,RLVersionC.csv,"Realational Version C","Relational, read only version C",CLEAN,HYGIENE,Study1,B,17,63,Study,User,-,,Study/JOL,"Study Phase",502,,,406,406,,,,1
5e5dbe11de3ec60d863dcfba,pk6inlnqw5,"Deep vs Shallow",1,74,2020-07-08T14:35:25-07:00,0.72147798538208,3,versionC_stim.csv,RLVersionC.csv,"Realational Version C","Relational, read only version C",WATER,BRIDGE,Study1,B,18,14,Study,User,-,,Study/JOL,"Study Phase",392,,,297,297,,,,1
5e5dbe11de3ec60d863dcfba,pk6inlnqw5,"Deep vs Shallow",1,75,2020-07-08T14:35:27-07:00,1.1391220092773,3,versionC_stim.csv,RLVersionC.csv,"Realational Version C","Relational, read only version C",ENOUGH,FULL,Study1,F,26,82,Study,User,-,,Study/JOL,"Study Phase",845,,,737,737,,,,1
5e5dbe11de3ec60d863dcfba,pk6inlnqw5,"Deep vs Shallow",1,76,2020-07-08T14:35:27-07:00,0.9088020324707,3,versionC_stim.csv,RLVersionC.csv,"Realational Version C","Relational, read only version C",SICK,HIDE,Study1,U,84,13,Study,User,-,,Study/JOL,"Study Phase",611,,,487,487,,,,1
5e5dbe11de3ec60d863dcfba,pk6inlnqw5,"Deep vs Shallow",1,77,2020-07-08T14:35:35-07:00,7.3821170330048,3,versionC_stim.csv,RLVersionC.csv,"Realational Version C","Relational, read only version C",TUCK,ALLOW,Study1,U,78,34,Study,User,-,,Study/JOL,"Study Phase",7057,,,6938,6938,,,,1
5e5dbe11de3ec60d863dcfba,pk6inlnqw5,"Deep vs Shallow",1,78,2020-07-08T14:35:37-07:00,1.8342039585114,3,versionC_stim.csv,RLVersionC.csv,"Realational Version C","Relational, read only version C",SEIZE,TAKE,Study1,F,29,26,Study,User,-,,Study/JOL,"Study Phase",1537,,,1366,1366,,,,1
5e5dbe11de3ec60d863dcfba,pk6inlnqw5,"Deep vs Shallow",1,79,2020-07-08T14:35:41-07:00,4.2881100177765,3,versionC_stim.csv,RLVersionC.csv,"Realational Version C","Relational, read only version C",SIGHT,DEBATE,Study1,U,73,55,Study,User,-,,Study/JOL,"Study Phase",3988,,,3871,3871,,,,1
5e5dbe11de3ec60d863dcfba,pk6inlnqw5,"Deep vs Shallow",1,80,2020-07-08T14:35:42-07:00,0.83699297904968,3,versionC_stim.csv,RLVersionC.csv,"Realational Version C","Relational, read only version C",CHORE,WORK,Study1,F,39,57,Study,User,-,,Study/JOL,"Study Phase",513,,,342,342,,,,1
5e5dbe11de3ec60d863dcfba,pk6inlnqw5,"Deep vs Shallow",1,81,2020-07-08T14:35:43-07:00,1.083829164505,3,versionC_stim.csv,RLVersionC.csv,"Realational Version C","Relational, read only version C",ATTIRE,CLOTHES,Study1,F,43,30,Study,User,-,,Study/JOL,"Study Phase",785,,,645,645,,,,1
5e5dbe11de3ec60d863dcfba,pk6inlnqw5,"Deep vs Shallow",1,82,2020-07-08T14:35:44-07:00,0.80887579917908,3,versionC_stim.csv,RLVersionC.csv,"Realational Version C","Relational, read only version C",CAVE,DARK,Study1,F,28,42,Study,User,-,,Study/JOL,"Study Phase",504,,,348,349,,,,1
5e5dbe11de3ec60d863dcfba,pk6inlnqw5,"Deep vs Shallow",1,83,2020-07-08T14:35:50-07:00,6.53653216362,3,versionC_stim.csv,RLVersionC.csv,"Realational Version C","Relational, read only version C",BRONZE,ARTERY,Study1,U,74,23,Study,User,-,,Study/JOL,"Study Phase",6240,,,6133,6134,,,,1
5e5dbe11de3ec60d863dcfba,pk6inlnqw5,"Deep vs Shallow",1,84,2020-07-08T14:35:51-07:00,0.96117091178894,3,versionC_stim.csv,RLVersionC.csv,"Realational Version C","Relational, read only version C",BUSINESS,DEATH,Study1,U,72,66,Study,User,-,,Study/JOL,"Study Phase",664,,,569,569,,,,1
5e5dbe11de3ec60d863dcfba,pk6inlnqw5,"Deep vs Shallow",1,85,2020-07-08T14:35:56-07:00,4.9008619785309,3,versionC_stim.csv,RLVersionC.csv,"Realational Version C","Relational, read only version C",STENCH,SMELL,Study1,F,42,62,Study,User,-,,Study/JOL,"Study Phase",4561,,,4459,4459,,,,1
5e5dbe11de3ec60d863dcfba,pk6inlnqw5,"Deep vs Shallow",1,86,2020-07-08T14:36:01-07:00,4.7998769283295,3,versionC_stim.csv,RLVersionC.csv,"Realational Version C","Relational, read only version C",ADD,VALLEY,Study1,U,82,83,Study,User,-,,Study/JOL,"Study Phase",4495,,,4341,4341,,,,1
5e5dbe11de3ec60d863dcfba,pk6inlnqw5,"Deep vs Shallow",1,87,2020-07-08T14:36:02-07:00,1.0395650863647,3,versionC_stim.csv,RLVersionC.csv,"Realational Version C","Relational, read only version C",FANTASTIC,GREAT,Study1,F,35,64,Study,User,-,,Study/JOL,"Study Phase",743,,,600,600,,,,1
5e5dbe11de3ec60d863dcfba,pk6inlnqw5,"Deep vs Shallow",1,88,2020-07-08T14:36:03-07:00,1.1216320991516,3,versionC_stim.csv,RLVersionC.csv,"Realational Version C","Relational, read only version C",STOMACH,DIGESTION,Study1,B,7,69,Study,User,-,,Study/JOL,"Study Phase",797,,,650,650,,,,1
5e5dbe11de3ec60d863dcfba,pk6inlnqw5,"Deep vs Shallow",1,89,2020-07-08T14:36:05-07:00,1.9634919166565,3,versionC_stim.csv,RLVersionC.csv,"Realational Version C","Relational, read only version C",LION,ART,Study1,U,79,84,Study,User,-,,Study/JOL,"Study Phase",496,,,323,323,,,,1
5e5dbe11de3ec60d863dcfba,pk6inlnqw5,"Deep vs Shallow",1,90,2020-07-08T14:36:09-07:00,3.7848420143127,3,versionC_stim.csv,RLVersionC.csv,"Realational Version C","Relational, read only version C",BIRD,SWAN,Study1,B,14,39,Study,User,-,,Study/JOL,"Study Phase",3474,,,3318,3318,,,,1
5e5dbe11de3ec60d863dcfba,pk6inlnqw5,"Deep vs Shallow",1,91,2020-07-08T14:36:10-07:00,0.8173840045929,3,versionC_stim.csv,RLVersionC.csv,"Realational Version C","Relational, read only version C",SPACE,MOON,BUFFER2,Buffer,89,90,Study,User,-,,Study/JOL,BUFFER2,504,,,378,378,,,,1
5e5dbe11de3ec60d863dcfba,pk6inlnqw5,"Deep vs Shallow",1,92,2020-07-08T14:36:10-07:00,0.73499894142151,3,versionC_stim.csv,RLVersionC.csv,"Realational Version C","Relational, read only version C",POLICE,SHERRIF,BUFFER2,Buffer,87,87,Study,User,-,,Study/JOL,BUFFER2,425,,,370,370,,,,1
5e5dbe11de3ec60d863dcfba,pk6inlnqw5,"Deep vs Shallow",1,93,2020-07-08T14:36:11-07:00,0.75629591941833,3,versionC_stim.csv,RLVersionC.csv,"Realational Version C","Relational, read only version C",STUFF,THING,BUFFER2,Buffer,90,89,Study,User,-,,Study/JOL,BUFFER2,477,,,403,404,,,,1
5e5dbe11de3ec60d863dcfba,pk6inlnqw5,"Deep vs Shallow",1,94,2020-07-08T14:36:12-07:00,0.75928616523743,3,versionC_stim.csv,RLVersionC.csv,"Realational Version C","Relational, read only version C",CHOCOLATE,MALT,BUFFER2,Buffer,88,88,Study,User,-,,Study/JOL,BUFFER2,464,,,411,411,,,,1
5e5dbe11de3ec60d863dcfba,pk6inlnqw5,"Deep vs Shallow",1,95,2020-07-08T14:36:13-07:00,0.87336993217468,3,versionC_stim.csv,RLVersionC.csv,"Realational Version C","Relational, read only version C",GOOSE,GEESE,BUFFER2,Buffer,86,91,Study,User,-,,Study/JOL,BUFFER2,532,,,476,476,,,,1
5e5dbe11de3ec60d863dcfba,pk6inlnqw5,"Deep vs Shallow",1,96,2020-07-08T14:36:15-07:00,1.9472191333771,3,versionC_stim.csv,RLVersionC.csv,"Realational Version C","Relational, read only version C",,,,,,0,Instruct,User,-,"You have completed this section. Please press Enter.",Filler_Instruction,Instruct2,1605,,,-1,-1,,,,1
5e5dbe11de3ec60d863dcfba,pk6inlnqw5,"Deep vs Shallow",1,97,2020-07-08T14:36:17-07:00,2.1594758033752,3,versionC_stim.csv,RLVersionC.csv,"Realational Version C","Relational, read only version C",,,,,,0,Instruct,User,-,"You have completed this section. Please press Enter.",Filler_Instruction,Instruct5,1846,,,-1,-1,,,,1
5e5dbe11de3ec60d863dcfba,pk6inlnqw5,"Deep vs Shallow",1,98,2020-07-08T14:36:28-07:00,10.980879068375,3,versionC_stim.csv,RLVersionC.csv,"Realational Version C","Relational, read only version C",,,,,,0,FreeRecall,-,10,"What were you supposed to focus on while you studied each pair? (Hint: Think back to the instructions). Type your answer in the space below.",,CHECK3,10597,"how they are related ",0,4770,9014,0,0,,1
5e5dbe11de3ec60d863dcfba,pk6inlnqw5,"Deep vs Shallow",1,99,2020-07-08T14:38:29-07:00,121.37000799179,3,versionC_stim.csv,RLVersionC.csv,"Realational Version C","Relational, read only version C",,,,,,0,FreeRecall,120,120,"Please list the 50 US states in alphabetical order. The task will automatically advance to the next screen after two minutes.",,Filler1,120002,"(i'm not from the US so i don't know!) alabama, alaska, arkansas, california, ",0,26093,98354,0,0,,1
5e5dbe11de3ec60d863dcfba,pk6inlnqw5,"Deep vs Shallow",1,100,2020-07-08T14:38:41-07:00,11.867223024368,3,versionC_stim.csv,RLVersionC.csv,"Realational Version C","Relational, read only version C",,,,,,0,Instruct,-,10,"You will now be presented with the first word from each of the previously studied item pairs. Please type the missing word. If you do not know the word, you may guess or press Enter to skip forward to the next pair.",,Instruct3,11452,,,-1,-1,,,,1
5e5dbe11de3ec60d863dcfba,pk6inlnqw5,"Deep vs Shallow",1,101,2020-07-08T14:38:49-07:00,8.3659999370575,3,versionC_stim.csv,RLVersionC.csv,"Realational Version C","Relational, read only version C",END,BEGIN,Study1,S,54,52,Test,User,-,,Recall,Recall1,8073,begin,100,6899,7488,1,1,,1
5e5dbe11de3ec60d863dcfba,pk6inlnqw5,"Deep vs Shallow",1,102,2020-07-08T14:38:56-07:00,6.160117149353,3,versionC_stim.csv,RLVersionC.csv,"Realational Version C","Relational, read only version C",CAR,HAPPY,Study1,U,77,86,Test,User,-,,Recall,Recall1,5780,happy,100,4700,5637,1,1,,1
5e5dbe11de3ec60d863dcfba,pk6inlnqw5,"Deep vs Shallow",1,103,2020-07-08T14:39:04-07:00,8.0897588729858,3,versionC_stim.csv,RLVersionC.csv,"Realational Version C","Relational, read only version C",HUNGRY,PARK,Study1,U,68,27,Test,User,-,,Recall,Recall1,7788,park,100,6802,7569,1,1,,1
5e5dbe11de3ec60d863dcfba,pk6inlnqw5,"Deep vs Shallow",1,104,2020-07-08T14:39:15-07:00,11.187063932419,3,versionC_stim.csv,RLVersionC.csv,"Realational Version C","Relational, read only version C",TOILET,BATHROOM,Study1,S,58,7,Test,User,-,,Recall,Recall1,10816,bathroom,100,7862,10590,1,1,,1
5e5dbe11de3ec60d863dcfba,pk6inlnqw5,"Deep vs Shallow",1,105,2020-07-08T14:39:18-07:00,3.397203207016,3,versionC_stim.csv,RLVersionC.csv,"Realational Version C","Relational, read only version C",ATTIRE,CLOTHES,Study1,F,43,30,Test,User,-,,Recall,Recall1,3093,clothing,66.666666666667,1337,2832,0,0,,1
5e5dbe11de3ec60d863dcfba,pk6inlnqw5,"Deep vs Shallow",1,106,2020-07-08T14:39:28-07:00,9.6429347991943,3,versionC_stim.csv,RLVersionC.csv,"Realational Version C","Relational, read only version C",COW,HERD,Study1,B,22,18,Test,User,-,,Recall,Recall1,9325,,0,-1,-1,0,0,,1
5e5dbe11de3ec60d863dcfba,pk6inlnqw5,"Deep vs Shallow",1,107,2020-07-08T14:39:39-07:00,11.571511983871,3,versionC_stim.csv,RLVersionC.csv,"Realational Version C","Relational, read only version C",PLANT,ROOT,Study1,B,13,61,Test,User,-,,Recall,Recall1,11208,orchid,20,9027,9855,0,0,,1
5e5dbe11de3ec60d863dcfba,pk6inlnqw5,"Deep vs Shallow",1,108,2020-07-08T14:39:49-07:00,9.7212650775909,3,versionC_stim.csv,RLVersionC.csv,"Realational Version C","Relational, read only version C",COLD,BITTER,Study1,B,12,40,Test,User,-,,Recall,Recall1,9436,bitter,100,8489,9315,1,1,,1
5e5dbe11de3ec60d863dcfba,pk6inlnqw5,"Deep vs Shallow",1,109,2020-07-08T14:39:59-07:00,9.934415102005,3,versionC_stim.csv,RLVersionC.csv,"Realational Version C","Relational, read only version C",RIDDLE,SUGAR,Study1,U,81,85,Test,User,-,,Recall,Recall1,9611,sugar,100,8661,9192,1,1,,1
5e5dbe11de3ec60d863dcfba,pk6inlnqw5,"Deep vs Shallow",1,110,2020-07-08T14:40:09-07:00,9.6918869018555,3,versionC_stim.csv,RLVersionC.csv,"Realational Version C","Relational, read only version C",WATER,BRIDGE,Study1,B,18,14,Test,User,-,,Recall,Recall1,9413,,0,-1,-1,0,0,,1
5e5dbe11de3ec60d863dcfba,pk6inlnqw5,"Deep vs Shallow",1,111,2020-07-08T14:40:11-07:00,2.1864099502563,3,versionC_stim.csv,RLVersionC.csv,"Realational Version C","Relational, read only version C",SODA,POP,Study1,S,56,81,Test,User,-,,Recall,Recall1,1832,pop,100,1413,1642,1,1,,1
5e5dbe11de3ec60d863dcfba,pk6inlnqw5,"Deep vs Shallow",1,112,2020-07-08T14:40:15-07:00,3.9187881946564,3,versionC_stim.csv,RLVersionC.csv,"Realational Version C","Relational, read only version C",BUSINESS,DEATH,Study1,U,72,66,Test,User,-,,Recall,Recall1,3548,death,100,2225,3167,1,1,,1
5e5dbe11de3ec60d863dcfba,pk6inlnqw5,"Deep vs Shallow",1,113,2020-07-08T14:40:20-07:00,4.9886078834534,3,versionC_stim.csv,RLVersionC.csv,"Realational Version C","Relational, read only version C",FLOWER,ORCHID,Study1,B,24,11,Test,User,-,,Recall,Recall1,4522,orchid,100,2805,4224,1,1,,1
5e5dbe11de3ec60d863dcfba,pk6inlnqw5,"Deep vs Shallow",1,114,2020-07-08T14:40:25-07:00,4.770112991333,3,versionC_stim.csv,RLVersionC.csv,"Realational Version C","Relational, read only version C",WOMAN,LIFT,Study1,U,69,43,Test,User,-,,Recall,Recall1,4354,lift,100,3687,4102,1,1,,1
5e5dbe11de3ec60d863dcfba,pk6inlnqw5,"Deep vs Shallow",1,115,2020-07-08T14:40:30-07:00,5.6329929828644,3,versionC_stim.csv,RLVersionC.csv,"Realational Version C","Relational, read only version C",BLAZE,FIRE,Study1,F,45,73,Test,User,-,,Recall,Recall1,5265,fire,100,3846,4569,1,1,,1
5e5dbe11de3ec60d863dcfba,pk6inlnqw5,"Deep vs Shallow",1,116,2020-07-08T14:40:43-07:00,12.507590055466,3,versionC_stim.csv,RLVersionC.csv,"Realational Version C","Relational, read only version C",BEE,HONEY,Study1,S,63,72,Test,User,-,,Recall,Recall1,12165,insect,36.363636363636,6964,12095,0,0,,1
5e5dbe11de3ec60d863dcfba,pk6inlnqw5,"Deep vs Shallow",1,117,2020-07-08T14:40:46-07:00,3.4543268680573,3,versionC_stim.csv,RLVersionC.csv,"Realational Version C","Relational, read only version C",ASSIGNMENT,DUE,Study1,S,46,78,Test,User,-,,Recall,Recall1,3125,due,100,2808,2939,1,1,,1
5e5dbe11de3ec60d863dcfba,pk6inlnqw5,"Deep vs Shallow",1,118,2020-07-08T14:40:51-07:00,5.0625081062317,3,versionC_stim.csv,RLVersionC.csv,"Realational Version C","Relational, read only version C",BRONZE,ARTERY,Study1,U,74,23,Test,User,-,,Recall,Recall1,4772,artery,100,3758,4531,1,1,,1
5e5dbe11de3ec60d863dcfba,pk6inlnqw5,"Deep vs Shallow",1,119,2020-07-08T14:40:56-07:00,4.207398891449,3,versionC_stim.csv,RLVersionC.csv,"Realational Version C","Relational, read only version C",ACCIDENT,STRONG,Study1,U,80,37,Test,User,-,,Recall,Recall1,3922,strong,100,3222,3814,1,1,,1
5e5dbe11de3ec60d863dcfba,pk6inlnqw5,"Deep vs Shallow",1,120,2020-07-08T14:41:06-07:00,10.2564702034,3,versionC_stim.csv,RLVersionC.csv,"Realational Version C","Relational, read only version C",CHEESE,WINE,Study1,S,57,17,Test,User,-,,Recall,Recall1,9935,swiss,44.444444444444,9286,9829,0,0,,1
5e5dbe11de3ec60d863dcfba,pk6inlnqw5,"Deep vs Shallow",1,121,2020-07-08T14:41:14-07:00,8.0418360233307,3,versionC_stim.csv,RLVersionC.csv,"Realational Version C","Relational, read only version C",SACKING,DIETARY,Study1,U,67,49,Test,User,-,,Recall,Recall1,7718,,0,-1,-1,0,0,,1
5e5dbe11de3ec60d863dcfba,pk6inlnqw5,"Deep vs Shallow",1,122,2020-07-08T14:41:21-07:00,6.756285905838,3,versionC_stim.csv,RLVersionC.csv,"Realational Version C","Relational, read only version C",CHILD,BABY,Study1,S,64,51,Test,User,-,,Recall,Recall1,6449,kid,0,6176,6362,0,0,,1
5e5dbe11de3ec60d863dcfba,pk6inlnqw5,"Deep vs Shallow",1,123,2020-07-08T14:41:30-07:00,9.0431249141693,3,versionC_stim.csv,RLVersionC.csv,"Realational Version C","Relational, read only version C",STOMACH,DIGESTION,Study1,B,7,69,Test,User,-,,Recall,Recall1,8735,hungry,13.333333333333,7779,8326,0,0,,1
5e5dbe11de3ec60d863dcfba,pk6inlnqw5,"Deep vs Shallow",1,124,2020-07-08T14:41:35-07:00,5.0344281196594,3,versionC_stim.csv,RLVersionC.csv,"Realational Version C","Relational, read only version C",ROCK,GEOLOGY,Study1,B,19,31,Test,User,-,,Recall,Recall1,4626,geology,100,3713,4557,1,1,,1
5e5dbe11de3ec60d863dcfba,pk6inlnqw5,"Deep vs Shallow",1,125,2020-07-08T14:41:37-07:00,1.9990289211273,3,versionC_stim.csv,RLVersionC.csv,"Realational Version C","Relational, read only version C",CHORE,WORK,Study1,F,39,57,Test,User,-,,Recall,Recall1,1698,,0,-1,-1,0,0,,1
5e5dbe11de3ec60d863dcfba,pk6inlnqw5,"Deep vs Shallow",1,126,2020-07-08T14:41:42-07:00,5.5302541255951,3,versionC_stim.csv,RLVersionC.csv,"Realational Version C","Relational, read only version C",VASE,KING,Study1,U,85,80,Test,User,-,,Recall,Recall1,5218,flower,0,3793,5136,0,0,,1
5e5dbe11de3ec60d863dcfba,pk6inlnqw5,"Deep vs Shallow",1,127,2020-07-08T14:41:49-07:00,6.9958698749542,3,versionC_stim.csv,RLVersionC.csv,"Realational Version C","Relational, read only version C",HAMMER,CHISEL,Study1,B,9,71,Test,User,-,,Recall,Recall1,6680,tools,18.181818181818,6119,6528,0,0,,1
5e5dbe11de3ec60d863dcfba,pk6inlnqw5,"Deep vs Shallow",1,128,2020-07-08T14:41:54-07:00,4.4002969264984,3,versionC_stim.csv,RLVersionC.csv,"Realational Version C","Relational, read only version C",STENCH,SMELL,Study1,F,42,62,Test,User,-,,Recall,Recall1,4094,smell,100,3314,3878,1,1,,1
5e5dbe11de3ec60d863dcfba,pk6inlnqw5,"Deep vs Shallow",1,129,2020-07-08T14:41:59-07:00,5.6137201786041,3,versionC_stim.csv,RLVersionC.csv,"Realational Version C","Relational, read only version C",ROUND,CIRCLE,Study1,S,65,67,Test,User,-,,Recall,Recall1,5306,circle,100,3877,5208,1,1,,1
5e5dbe11de3ec60d863dcfba,pk6inlnqw5,"Deep vs Shallow",1,130,2020-07-08T14:42:01-07:00,2.1708958148956,3,versionC_stim.csv,RLVersionC.csv,"Realational Version C","Relational, read only version C",DOG,PAW,Study1,B,15,48,Test,User,-,,Recall,Recall1,1844,cat,33.333333333333,1117,1677,0,0,,1
5e5dbe11de3ec60d863dcfba,pk6inlnqw5,"Deep vs Shallow",1,131,2020-07-08T14:42:05-07:00,4.0207622051239,3,versionC_stim.csv,RLVersionC.csv,"Realational Version C","Relational, read only version C",DEFINITION,MEANING,Study1,S,62,10,Test,User,-,,Recall,Recall1,3692,meaning,100,2965,3567,1,1,,1
5e5dbe11de3ec60d863dcfba,pk6inlnqw5,"Deep vs Shallow",1,132,2020-07-08T14:42:09-07:00,3.7095069885254,3,versionC_stim.csv,RLVersionC.csv,"Realational Version C","Relational, read only version C",CAVE,DARK,Study1,F,28,42,Test,User,-,,Recall,Recall1,3411,dark,100,1353,2454,1,1,,1
5e5dbe11de3ec60d863dcfba,pk6inlnqw5,"Deep vs Shallow",1,133,2020-07-08T14:42:16-07:00,6.9060130119324,3,versionC_stim.csv,RLVersionC.csv,"Realational Version C","Relational, read only version C",FANTASTIC,GREAT,Study1,F,35,64,Test,User,-,,Recall,Recall1,6595,excellent,28.571428571429,3740,6201,0,0,,1
5e5dbe11de3ec60d863dcfba,pk6inlnqw5,"Deep vs Shallow",1,134,2020-07-08T14:42:24-07:00,8.146036863327,3,versionC_stim.csv,RLVersionC.csv,"Realational Version C","Relational, read only version C",HAND,FIX,Study1,U,75,28,Test,User,-,,Recall,Recall1,7818,finger,44.444444444444,7233,7691,0,0,,1
5e5dbe11de3ec60d863dcfba,pk6inlnqw5,"Deep vs Shallow",1,135,2020-07-08T14:42:43-07:00,19.067248106003,3,versionC_stim.csv,RLVersionC.csv,"Realational Version C","Relational, read only version C",GROWTH,HEIGHT,Study1,F,30,50,Test,User,-,,Recall,Recall1,18729,spurt,18.181818181818,18249,18671,0,0,,1
5e5dbe11de3ec60d863dcfba,pk6inlnqw5,"Deep vs Shallow",1,136,2020-07-08T14:42:47-07:00,4.0070109367371,3,versionC_stim.csv,RLVersionC.csv,"Realational Version C","Relational, read only version C",ATTORNEY,LAW,Study1,F,34,24,Test,User,-,,Recall,Recall1,3701,law,100,2770,2976,1,1,,1
5e5dbe11de3ec60d863dcfba,pk6inlnqw5,"Deep vs Shallow",1,137,2020-07-08T14:42:56-07:00,9.0313448905945,3,versionC_stim.csv,RLVersionC.csv,"Realational Version C","Relational, read only version C",WASTE,DUMP,Study1,S,49,29,Test,User,-,,Recall,Recall1,8728,trash,0,7710,8548,0,0,,1
5e5dbe11de3ec60d863dcfba,pk6inlnqw5,"Deep vs Shallow",1,138,2020-07-08T14:43:06-07:00,9.6666860580444,3,versionC_stim.csv,RLVersionC.csv,"Realational Version C","Relational, read only version C",DESIGN,ARCHITECTURE,Study1,S,51,47,Test,User,-,,Recall,Recall1,8248,"architecture ",100,2060,8039,1,1,,1
5e5dbe11de3ec60d863dcfba,pk6inlnqw5,"Deep vs Shallow",1,139,2020-07-08T14:43:09-07:00,2.9074771404266,3,versionC_stim.csv,RLVersionC.csv,"Realational Version C","Relational, read only version C",FLOOR,DISCOVER,Study1,U,71,54,Test,User,-,,Recall,Recall1,2578,ceiling,26.666666666667,1584,2267,0,0,,1
5e5dbe11de3ec60d863dcfba,pk6inlnqw5,"Deep vs Shallow",1,140,2020-07-08T14:43:12-07:00,3.0444858074188,3,versionC_stim.csv,RLVersionC.csv,"Realational Version C","Relational, read only version C",TALK,DISCUSSION,Study1,B,21,41,Test,User,-,,Recall,Recall1,2743,speak,13.333333333333,2132,2584,0,0,,1
5e5dbe11de3ec60d863dcfba,pk6inlnqw5,"Deep vs Shallow",1,141,2020-07-08T14:43:17-07:00,5.523638010025,3,versionC_stim.csv,RLVersionC.csv,"Realational Version C","Relational, read only version C",CLEAN,HYGIENE,Study1,B,17,63,Test,User,-,,Recall,Recall1,5237,,0,-1,-1,0,0,,1
5e5dbe11de3ec60d863dcfba,pk6inlnqw5,"Deep vs Shallow",1,142,2020-07-08T14:43:27-07:00,9.7261459827423,3,versionC_stim.csv,RLVersionC.csv,"Realational Version C","Relational, read only version C",BELT,SOON,Study1,U,70,35,Test,User,-,,Recall,Recall1,9423,,0,-1,-1,0,0,,1
5e5dbe11de3ec60d863dcfba,pk6inlnqw5,"Deep vs Shallow",1,143,2020-07-08T14:43:30-07:00,3.2910799980164,3,versionC_stim.csv,RLVersionC.csv,"Realational Version C","Relational, read only version C",SIP,DRINK,Study1,F,27,44,Test,User,-,,Recall,Recall1,2977,drink,100,1471,2844,1,1,,1
5e5dbe11de3ec60d863dcfba,pk6inlnqw5,"Deep vs Shallow",1,144,2020-07-08T14:43:34-07:00,3.3284871578217,3,versionC_stim.csv,RLVersionC.csv,"Realational Version C","Relational, read only version C",BIRD,SWAN,Study1,B,14,39,Test,User,-,,Recall,Recall1,3012,,0,-1,-1,0,0,,1
5e5dbe11de3ec60d863dcfba,pk6inlnqw5,"Deep vs Shallow",1,145,2020-07-08T14:43:42-07:00,8.2799868583679,3,versionC_stim.csv,RLVersionC.csv,"Realational Version C","Relational, read only version C",MONEY,WAGE,Study1,B,8,68,Test,User,-,,Recall,Recall1,6983,"wage ",100,6211,6819,1,1,,1
5e5dbe11de3ec60d863dcfba,pk6inlnqw5,"Deep vs Shallow",1,146,2020-07-08T14:43:45-07:00,3.0732960700989,3,versionC_stim.csv,RLVersionC.csv,"Realational Version C","Relational, read only version C",SALAD,LETTUCE,Study1,S,59,38,Test,User,-,,Recall,Recall1,2765,lettuce,100,1808,2667,1,1,,1
5e5dbe11de3ec60d863dcfba,pk6inlnqw5,"Deep vs Shallow",1,147,2020-07-08T14:43:50-07:00,4.7307169437408,3,versionC_stim.csv,RLVersionC.csv,"Realational Version C","Relational, read only version C",ADD,VALLEY,Study1,U,82,83,Test,User,-,,Recall,Recall1,4417,subtract,14.285714285714,3230,4327,0,0,,1
5e5dbe11de3ec60d863dcfba,pk6inlnqw5,"Deep vs Shallow",1,148,2020-07-08T14:43:52-07:00,2.1755809783936,3,versionC_stim.csv,RLVersionC.csv,"Realational Version C","Relational, read only version C",CLUTTER,PUSHER,Study1,U,66,65,Test,User,-,,Recall,Recall1,1877,mes,22.222222222222,1336,1631,0,0,,1
5e5dbe11de3ec60d863dcfba,pk6inlnqw5,"Deep vs Shallow",1,149,2020-07-08T14:44:00-07:00,7.6520040035248,3,versionC_stim.csv,RLVersionC.csv,"Realational Version C","Relational, read only version C",SIGHT,DEBATE,Study1,U,73,55,Test,User,-,,Recall,Recall1,7317,debate,100,6566,7126,1,1,,1
5e5dbe11de3ec60d863dcfba,pk6inlnqw5,"Deep vs Shallow",1,150,2020-07-08T14:44:05-07:00,5.3891181945801,3,versionC_stim.csv,RLVersionC.csv,"Realational Version C","Relational, read only version C",PILOT,PLANE,Study1,F,44,22,Test,User,-,,Recall,Recall1,5074,plane,100,4573,4969,1,1,,1
5e5dbe11de3ec60d863dcfba,pk6inlnqw5,"Deep vs Shallow",1,151,2020-07-08T14:44:10-07:00,4.806804895401,3,versionC_stim.csv,RLVersionC.csv,"Realational Version C","Relational, read only version C",FOOT,SHOE,Study1,S,60,19,Test,User,-,,Recall,Recall1,4489,toes,50,4000,4412,0,0,,1
5e5dbe11de3ec60d863dcfba,pk6inlnqw5,"Deep vs Shallow",1,152,2020-07-08T14:44:18-07:00,7.8050210475922,3,versionC_stim.csv,RLVersionC.csv,"Realational Version C","Relational, read only version C",SEIZE,TAKE,Study1,F,29,26,Test,User,-,,Recall,Recall1,7509,get,28.571428571429,7168,7388,0,0,,1
5e5dbe11de3ec60d863dcfba,pk6inlnqw5,"Deep vs Shallow",1,153,2020-07-08T14:44:34-07:00,16.560972929001,3,versionC_stim.csv,RLVersionC.csv,"Realational Version C","Relational, read only version C",JURY,TRIAL,Study1,S,50,25,Test,User,-,,Recall,Recall1,16188,court,20,15731,16130,0,0,,1
5e5dbe11de3ec60d863dcfba,pk6inlnqw5,"Deep vs Shallow",1,154,2020-07-08T14:44:40-07:00,6.0854740142822,3,versionC_stim.csv,RLVersionC.csv,"Realational Version C","Relational, read only version C",BAD,DELINQUENT,Study1,B,6,45,Test,User,-,,Recall,Recall1,5745,good,14.285714285714,4937,5439,0,0,,1
5e5dbe11de3ec60d863dcfba,pk6inlnqw5,"Deep vs Shallow",1,155,2020-07-08T14:44:46-07:00,5.3269820213318,3,versionC_stim.csv,RLVersionC.csv,"Realational Version C","Relational, read only version C",RACKET,BALL,Study1,F,38,32,Test,User,-,,Recall,Recall1,4911,ball,100,4375,4774,1,1,,1
5e5dbe11de3ec60d863dcfba,pk6inlnqw5,"Deep vs Shallow",1,156,2020-07-08T14:44:53-07:00,7.6532828807831,3,versionC_stim.csv,RLVersionC.csv,"Realational Version C","Relational, read only version C",LIVER,KIDNEY,Study1,S,53,16,Test,User,-,,Recall,Recall1,7127,kidney,100,6219,6896,1,1,,1
5e5dbe11de3ec60d863dcfba,pk6inlnqw5,"Deep vs Shallow",1,157,2020-07-08T14:44:59-07:00,5.9163920879364,3,versionC_stim.csv,RLVersionC.csv,"Realational Version C","Relational, read only version C",NEWS,EDITOR,Study1,B,10,74,Test,User,-,,Recall,Recall1,5586,,0,-1,-1,0,0,,1
5e5dbe11de3ec60d863dcfba,pk6inlnqw5,"Deep vs Shallow",1,158,2020-07-08T14:45:01-07:00,2.0126121044159,3,versionC_stim.csv,RLVersionC.csv,"Realational Version C","Relational, read only version C",LION,ART,Study1,U,79,84,Test,User,-,,Recall,Recall1,1672,art,100,1185,1585,1,1,,1
5e5dbe11de3ec60d863dcfba,pk6inlnqw5,"Deep vs Shallow",1,159,2020-07-08T14:45:17-07:00,15.756238937378,3,versionC_stim.csv,RLVersionC.csv,"Realational Version C","Relational, read only version C",WIND,BLOW,Study1,S,55,20,Test,User,-,,Recall,Recall1,15385,breeze,20,14174,15315,0,0,,1
5e5dbe11de3ec60d863dcfba,pk6inlnqw5,"Deep vs Shallow",1,160,2020-07-08T14:45:19-07:00,2.153990983963,3,versionC_stim.csv,RLVersionC.csv,"Realational Version C","Relational, read only version C",DIVISION,MATH,Study1,F,33,12,Test,User,-,,Recall,Recall1,1855,math,100,1086,1597,1,1,,1
5e5dbe11de3ec60d863dcfba,pk6inlnqw5,"Deep vs Shallow",1,161,2020-07-08T14:45:23-07:00,3.4668819904327,3,versionC_stim.csv,RLVersionC.csv,"Realational Version C","Relational, read only version C",WOULD,CASH,Study1,U,83,70,Test,User,-,,Recall,Recall1,3120,cash,100,2693,2970,1,1,,1
5e5dbe11de3ec60d863dcfba,pk6inlnqw5,"Deep vs Shallow",1,162,2020-07-08T14:45:35-07:00,12.504693984985,3,versionC_stim.csv,RLVersionC.csv,"Realational Version C","Relational, read only version C",ENOUGH,FULL,Study1,F,26,82,Test,User,-,,Recall,Recall1,12113,full,100,8580,11925,1,1,,1
5e5dbe11de3ec60d863dcfba,pk6inlnqw5,"Deep vs Shallow",1,163,2020-07-08T14:45:46-07:00,10.464467048645,3,versionC_stim.csv,RLVersionC.csv,"Realational Version C","Relational, read only version C",SITE,LOCATION,Study1,S,48,46,Test,User,-,,Recall,Recall1,10084,location,100,9176,9937,1,1,,1
5e5dbe11de3ec60d863dcfba,pk6inlnqw5,"Deep vs Shallow",1,164,2020-07-08T14:45:52-07:00,6.4012899398804,3,versionC_stim.csv,RLVersionC.csv,"Realational Version C","Relational, read only version C",POSITION,MACHINE,Study1,U,76,77,Test,User,-,,Recall,Recall1,6083,machine,100,5452,6006,1,1,,1
5e5dbe11de3ec60d863dcfba,pk6inlnqw5,"Deep vs Shallow",1,165,2020-07-08T14:45:55-07:00,2.9510440826416,3,versionC_stim.csv,RLVersionC.csv,"Realational Version C","Relational, read only version C",CHILI,HOT,Study1,F,37,75,Test,User,-,,Recall,Recall1,2651,hot,100,2398,2514,1,1,,1
5e5dbe11de3ec60d863dcfba,pk6inlnqw5,"Deep vs Shallow",1,166,2020-07-08T14:46:01-07:00,5.9342339038849,3,versionC_stim.csv,RLVersionC.csv,"Realational Version C","Relational, read only version C",TUCK,ALLOW,Study1,U,78,34,Test,User,-,,Recall,Recall1,5635,allow,100,5084,5598,1,1,,1
5e5dbe11de3ec60d863dcfba,pk6inlnqw5,"Deep vs Shallow",1,167,2020-07-08T14:46:04-07:00,2.6869270801544,3,versionC_stim.csv,RLVersionC.csv,"Realational Version C","Relational, read only version C",CARD,CREDIT,Study1,B,23,15,Test,User,-,,Recall,Recall1,2354,credit,100,1542,2252,1,1,,1
5e5dbe11de3ec60d863dcfba,pk6inlnqw5,"Deep vs Shallow",1,168,2020-07-08T14:46:11-07:00,7.4121789932251,3,versionC_stim.csv,RLVersionC.csv,"Realational Version C","Relational, read only version C",OUT,WAY,Study1,B,16,58,Test,User,-,,Recall,Recall1,7092,,0,-1,-1,0,0,,1
5e5dbe11de3ec60d863dcfba,pk6inlnqw5,"Deep vs Shallow",1,169,2020-07-08T14:46:18-07:00,7.1842670440674,3,versionC_stim.csv,RLVersionC.csv,"Realational Version C","Relational, read only version C",WORD,SENTENCE,Study1,F,31,79,Test,User,-,,Recall,Recall1,6872,sentencw,87.5,5166,6794,0,1,,1
5e5dbe11de3ec60d863dcfba,pk6inlnqw5,"Deep vs Shallow",1,170,2020-07-08T14:46:23-07:00,5.2196278572083,3,versionC_stim.csv,RLVersionC.csv,"Realational Version C","Relational, read only version C",AMOUNT,NUMBER,Study1,S,47,53,Test,User,-,,Recall,Recall1,4895,number,100,4281,4781,1,1,,1
5e5dbe11de3ec60d863dcfba,pk6inlnqw5,"Deep vs Shallow",1,171,2020-07-08T14:46:28-07:00,5.1127510070801,3,versionC_stim.csv,RLVersionC.csv,"Realational Version C","Relational, read only version C",FUTURE,PAST,Study1,S,61,76,Test,User,-,,Recall,Recall1,4795,present,54.545454545455,3871,4713,0,0,,1
5e5dbe11de3ec60d863dcfba,pk6inlnqw5,"Deep vs Shallow",1,172,2020-07-08T14:46:36-07:00,7.9009940624237,3,versionC_stim.csv,RLVersionC.csv,"Realational Version C","Relational, read only version C",WAR,REVOLUTION,Study1,B,20,60,Test,User,-,,Recall,Recall1,7591,,0,-1,-1,0,0,,1
5e5dbe11de3ec60d863dcfba,pk6inlnqw5,"Deep vs Shallow",1,173,2020-07-08T14:46:39-07:00,2.1246519088745,3,versionC_stim.csv,RLVersionC.csv,"Realational Version C","Relational, read only version C",DROWSY,SLEEP,Study1,F,41,8,Test,User,-,,Recall,Recall1,1801,sleep,100,1167,1614,1,1,,1
5e5dbe11de3ec60d863dcfba,pk6inlnqw5,"Deep vs Shallow",1,174,2020-07-08T14:46:47-07:00,8.237498998642,3,versionC_stim.csv,RLVersionC.csv,"Realational Version C","Relational, read only version C",WASP,BUG,Study1,F,32,21,Test,User,-,,Recall,Recall1,7863,bug,100,7619,7713,1,1,,1
5e5dbe11de3ec60d863dcfba,pk6inlnqw5,"Deep vs Shallow",1,175,2020-07-08T14:46:50-07:00,3.474100112915,3,versionC_stim.csv,RLVersionC.csv,"Realational Version C","Relational, read only version C",FISH,TUNA,Study1,B,25,33,Test,User,-,,Recall,Recall1,3182,,0,-1,-1,0,0,,1
5e5dbe11de3ec60d863dcfba,pk6inlnqw5,"Deep vs Shallow",1,176,2020-07-08T14:46:53-07:00,2.8056950569153,3,versionC_stim.csv,RLVersionC.csv,"Realational Version C","Relational, read only version C",LATCH,KEY,Study1,F,36,36,Test,User,-,,Recall,Recall1,2490,key,100,2113,2364,1,1,,1
5e5dbe11de3ec60d863dcfba,pk6inlnqw5,"Deep vs Shallow",1,177,2020-07-08T14:46:55-07:00,2.2998688220978,3,versionC_stim.csv,RLVersionC.csv,"Realational Version C","Relational, read only version C",FAMINE,HUNGER,Study1,F,40,59,Test,User,-,,Recall,Recall1,1954,hunger,100,1244,1772,1,1,,1
5e5dbe11de3ec60d863dcfba,pk6inlnqw5,"Deep vs Shallow",1,178,2020-07-08T14:47:00-07:00,4.4795441627502,3,versionC_stim.csv,RLVersionC.csv,"Realational Version C","Relational, read only version C",SICK,HIDE,Study1,U,84,13,Test,User,-,,Recall,Recall1,4151,,0,-1,-1,0,0,,1
5e5dbe11de3ec60d863dcfba,pk6inlnqw5,"Deep vs Shallow",1,179,2020-07-08T14:47:05-07:00,4.9137868881226,3,versionC_stim.csv,RLVersionC.csv,"Realational Version C","Relational, read only version C",STING,HORNET,Study1,B,11,9,Test,User,-,,Recall,Recall1,4605,hornet,100,3649,4227,1,1,,1
5e5dbe11de3ec60d863dcfba,pk6inlnqw5,"Deep vs Shallow",1,180,2020-07-08T14:47:07-07:00,2.6522810459137,3,versionC_stim.csv,RLVersionC.csv,"Realational Version C","Relational, read only version C",BAR,GRILL,Study1,S,52,56,Test,User,-,,Recall,Recall1,2292,grill,100,1625,2160,1,1,,1
5e5dbe11de3ec60d863dcfba,pk6inlnqw5,"Deep vs Shallow",1,181,2020-07-08T14:48:06-07:00,58.388871908188,3,versionC_stim.csv,RLVersionC.csv,"Realational Version C","Relational, read only version C",,,,,,0,Instruct,,10,"You will now be presented with a new set of word pairs. Please study each pair. Remember that your memory will be tested! When finished, press Enter to move to the next pair.",Initial_Instruct,Instruct4,58046,,,-1,-1,,,,1
5e5dbe11de3ec60d863dcfba,pk6inlnqw5,"Deep vs Shallow",1,182,2020-07-08T14:48:39-07:00,33.050413131714,3,versionC_stim.csv,RLVersionC.csv,"Realational Version C","Relational, read only version C",,,,,,0,Instruct,-,15,"As you study, please think about how the two concepts are RELATED to each other. For example, if you see the pair TURTLE-CAT, think about how both are alive, they are both animals, and both can be kept as pets.",,Instruct20,32693,,,-1,-1,,,,1
5e5dbe11de3ec60d863dcfba,pk6inlnqw5,"Deep vs Shallow",1,183,2020-07-08T14:48:56-07:00,17.575123071671,3,versionC_stim.csv,RLVersionC.csv,"Realational Version C","Relational, read only version C",,,,,,0,FreeRecall,-,10,"What you should think about as you study each item pair? Type your response in the box below.",,CHECK4,17217,"how they are related ",0,2200,5053,0,0,,0.931
5e5dbe11de3ec60d863dcfba,pk6inlnqw5,"Deep vs Shallow",1,184,2020-07-08T14:48:59-07:00,2.5551788806915,3,versionC_stim.csv,RLVersionC.csv,"Realational Version C","Relational, read only version C",,,,,,0,Instruct,User,-,"Press Enter when you are readty to begin",,Instruct11,2209,,,-1,-1,,,,1
5e5dbe11de3ec60d863dcfba,pk6inlnqw5,"Deep vs Shallow",1,185,2020-07-08T14:49:16-07:00,17.330157995224,3,versionC_stim.csv,RLVersionC.csv,"Realational Version C","Relational, read only version C",POTATO,CARROT,BUFFER3,Buffer,91,93,Study,User,-,,Study/JOL,BUFFER3,16925,,,-1,-1,,,,1
5e5dbe11de3ec60d863dcfba,pk6inlnqw5,"Deep vs Shallow",1,186,2020-07-08T14:49:23-07:00,6.8531529903412,3,versionC_stim.csv,RLVersionC.csv,"Realational Version C","Relational, read only version C",ADVENTURE,CAMP,BUFFER3,Buffer,95,96,Study,User,-,,Study/JOL,BUFFER3,6494,,,-1,-1,,,,1
5e5dbe11de3ec60d863dcfba,pk6inlnqw5,"Deep vs Shallow",1,187,2020-07-08T14:49:25-07:00,2.1712419986725,3,versionC_stim.csv,RLVersionC.csv,"Realational Version C","Relational, read only version C",FISH,SHRIMP,BUFFER3,Buffer,93,92,Study,User,-,,Study/JOL,BUFFER3,1826,,,-1,-1,,,,1
5e5dbe11de3ec60d863dcfba,pk6inlnqw5,"Deep vs Shallow",1,188,2020-07-08T14:49:27-07:00,1.7037301063538,3,versionC_stim.csv,RLVersionC.csv,"Realational Version C","Relational, read only version C",STRING,NOODLE,BUFFER3,Buffer,92,94,Study,User,-,,Study/JOL,BUFFER3,1361,,,-1,-1,,,,1
5e5dbe11de3ec60d863dcfba,pk6inlnqw5,"Deep vs Shallow",1,189,2020-07-08T14:49:28-07:00,1.3370368480682,3,versionC_stim.csv,RLVersionC.csv,"Realational Version C","Relational, read only version C",FROZEN,ICE,BUFFER3,Buffer,94,95,Study,User,-,,Study/JOL,BUFFER3,984,,,-1,-1,,,,1
5e5dbe11de3ec60d863dcfba,pk6inlnqw5,"Deep vs Shallow",1,190,2020-07-08T14:49:30-07:00,1.2308201789856,3,versionC_stim.csv,RLVersionC.csv,"Realational Version C","Relational, read only version C",SHAVE,RAZOR,Study2,S,136,99,Study,User,-,,Study/JOL,"Study Phase2",894,,,-1,-1,,,,1
5e5dbe11de3ec60d863dcfba,pk6inlnqw5,"Deep vs Shallow",1,191,2020-07-08T14:49:31-07:00,1.8127598762512,3,versionC_stim.csv,RLVersionC.csv,"Realational Version C","Relational, read only version C",COFFIN,DEAD,Study2,F,128,108,Study,User,-,,Study/JOL,"Study Phase2",1450,,,-1,-1,,,,1
5e5dbe11de3ec60d863dcfba,pk6inlnqw5,"Deep vs Shallow",1,192,2020-07-08T14:49:34-07:00,2.1661670207977,3,versionC_stim.csv,RLVersionC.csv,"Realational Version C","Relational, read only version C",FIGHT,FEUD,Study2,B,113,100,Study,User,-,,Study/JOL,"Study Phase2",1826,,,-1,-1,,,,1
5e5dbe11de3ec60d863dcfba,pk6inlnqw5,"Deep vs Shallow",1,193,2020-07-08T14:49:35-07:00,1.5614330768585,3,versionC_stim.csv,RLVersionC.csv,"Realational Version C","Relational, read only version C",TRASH,LITTER,Study2,B,103,175,Study,User,-,,Study/JOL,"Study Phase2",1248,,,-1,-1,,,,1
5e5dbe11de3ec60d863dcfba,pk6inlnqw5,"Deep vs Shallow",1,194,2020-07-08T14:49:38-07:00,2.6750860214233,3,versionC_stim.csv,RLVersionC.csv,"Realational Version C","Relational, read only version C",OBTAIN,MEAT,Study2,U,161,149,Study,User,-,,Study/JOL,"Study Phase2",2354,,,-1,-1,,,,1
5e5dbe11de3ec60d863dcfba,pk6inlnqw5,"Deep vs Shallow",1,195,2020-07-08T14:49:40-07:00,1.8124008178711,3,versionC_stim.csv,RLVersionC.csv,"Realational Version C","Relational, read only version C",PAPER,DOCUMENT,Study2,B,109,128,Study,User,-,,Study/JOL,"Study Phase2",1479,,,-1,-1,,,,1
5e5dbe11de3ec60d863dcfba,pk6inlnqw5,"Deep vs Shallow",1,196,2020-07-08T14:49:41-07:00,0.96593499183655,3,versionC_stim.csv,RLVersionC.csv,"Realational Version C","Relational, read only version C",NAP,SLEEP,Study2,F,134,122,Study,User,-,,Study/JOL,"Study Phase2",612,,,-1,-1,,,,1
5e5dbe11de3ec60d863dcfba,pk6inlnqw5,"Deep vs Shallow",1,197,2020-07-08T14:49:42-07:00,1.0578641891479,3,versionC_stim.csv,RLVersionC.csv,"Realational Version C","Relational, read only version C",TRUTHFUL,HONEST,Study2,F,133,164,Study,User,-,,Study/JOL,"Study Phase2",742,,,-1,-1,,,,1
5e5dbe11de3ec60d863dcfba,pk6inlnqw5,"Deep vs Shallow",1,198,2020-07-08T14:49:43-07:00,1.316447019577,3,versionC_stim.csv,RLVersionC.csv,"Realational Version C","Relational, read only version C",DRINK,WATER,Study2,S,143,102,Study,User,-,,Study/JOL,"Study Phase2",993,,,-1,-1,,,,1
5e5dbe11de3ec60d863dcfba,pk6inlnqw5,"Deep vs Shallow",1,199,2020-07-08T14:49:44-07:00,1.0373549461365,3,versionC_stim.csv,RLVersionC.csv,"Realational Version C","Relational, read only version C",TAN,SUN,Study2,S,155,166,Study,User,-,,Study/JOL,"Study Phase2",696,,,-1,-1,,,,1
5e5dbe11de3ec60d863dcfba,pk6inlnqw5,"Deep vs Shallow",1,200,2020-07-08T14:49:45-07:00,1.0610339641571,3,versionC_stim.csv,RLVersionC.csv,"Realational Version C","Relational, read only version C",WINDSHIELD,CAR,Study2,F,117,140,Study,User,-,,Study/JOL,"Study Phase2",694,,,-1,-1,,,,1
5e5dbe11de3ec60d863dcfba,pk6inlnqw5,"Deep vs Shallow",1,201,2020-07-08T14:49:47-07:00,1.7572009563446,3,versionC_stim.csv,RLVersionC.csv,"Realational Version C","Relational, read only version C",REVENGE,EVEN,Study2,F,122,109,Study,User,-,,Study/JOL,"Study Phase2",1423,,,-1,-1,,,,1
5e5dbe11de3ec60d863dcfba,pk6inlnqw5,"Deep vs Shallow",1,202,2020-07-08T14:49:49-07:00,2.0283601284027,3,versionC_stim.csv,RLVersionC.csv,"Realational Version C","Relational, read only version C",HAVE,OWN,Study2,S,153,98,Study,User,-,,Study/JOL,"Study Phase2",1683,,,-1,-1,,,,1
5e5dbe11de3ec60d863dcfba,pk6inlnqw5,"Deep vs Shallow",1,203,2020-07-08T14:49:50-07:00,1.2362968921661,3,versionC_stim.csv,RLVersionC.csv,"Realational Version C","Relational, read only version C",SARDINE,FISH,Study2,F,130,103,Study,User,-,,Study/JOL,"Study Phase2",803,,,-1,-1,,,,1
5e5dbe11de3ec60d863dcfba,pk6inlnqw5,"Deep vs Shallow",1,204,2020-07-08T14:49:51-07:00,1.083841085434,3,versionC_stim.csv,RLVersionC.csv,"Realational Version C","Relational, read only version C",HEAD,SCALP,Study2,B,105,155,Study,User,-,,Study/JOL,"Study Phase2",745,,,-1,-1,,,,1
5e5dbe11de3ec60d863dcfba,pk6inlnqw5,"Deep vs Shallow",1,205,2020-07-08T14:49:52-07:00,0.84739184379578,3,versionC_stim.csv,RLVersionC.csv,"Realational Version C","Relational, read only version C",HATE,NAME,Study2,U,167,153,Study,User,-,,Study/JOL,"Study Phase2",514,,,-1,-1,,,,1
5e5dbe11de3ec60d863dcfba,pk6inlnqw5,"Deep vs Shallow",1,206,2020-07-08T14:49:54-07:00,2.3621921539307,3,versionC_stim.csv,RLVersionC.csv,"Realational Version C","Relational, read only version C",TOIL,LEASE,Study2,U,170,141,Study,User,-,,Study/JOL,"Study Phase2",2042,,,-1,-1,,,,1
5e5dbe11de3ec60d863dcfba,pk6inlnqw5,"Deep vs Shallow",1,207,2020-07-08T14:49:57-07:00,2.3398089408875,3,versionC_stim.csv,RLVersionC.csv,"Realational Version C","Relational, read only version C",STRAWBERRY,FRUIT,Study2,F,124,158,Study,User,-,,Study/JOL,"Study Phase2",2006,,,-1,-1,,,,1
5e5dbe11de3ec60d863dcfba,pk6inlnqw5,"Deep vs Shallow",1,208,2020-07-08T14:49:58-07:00,1.4383668899536,3,versionC_stim.csv,RLVersionC.csv,"Realational Version C","Relational, read only version C",BALLOON,POP,Study2,F,123,126,Study,User,-,,Study/JOL,"Study Phase2",1092,,,-1,-1,,,,1
5e5dbe11de3ec60d863dcfba,pk6inlnqw5,"Deep vs Shallow",1,209,2020-07-08T14:50:00-07:00,1.5636780261993,3,versionC_stim.csv,RLVersionC.csv,"Realational Version C","Relational, read only version C",ELECTION,MAZE,Study2,U,159,121,Study,User,-,,Study/JOL,"Study Phase2",1214,,,-1,-1,,,,1
5e5dbe11de3ec60d863dcfba,pk6inlnqw5,"Deep vs Shallow",1,210,2020-07-08T14:50:01-07:00,1.4293391704559,3,versionC_stim.csv,RLVersionC.csv,"Realational Version C","Relational, read only version C",THIMBLE,THREAD,Study2,F,121,136,Study,User,-,,Study/JOL,"Study Phase2",1093,,,-1,-1,,,,1
5e5dbe11de3ec60d863dcfba,pk6inlnqw5,"Deep vs Shallow",1,211,2020-07-08T14:50:02-07:00,0.83435487747192,3,versionC_stim.csv,RLVersionC.csv,"Realational Version C","Relational, read only version C",COLD,CHILL,Study2,B,114,139,Study,User,-,,Study/JOL,"Study Phase2",506,,,-1,-1,,,,1
5e5dbe11de3ec60d863dcfba,pk6inlnqw5,"Deep vs Shallow",1,212,2020-07-08T14:50:03-07:00,1.4145450592041,3,versionC_stim.csv,RLVersionC.csv,"Realational Version C","Relational, read only version C",SIGN,LOAN,Study2,U,171,111,Study,User,-,,Study/JOL,"Study Phase2",1047,,,-1,-1,,,,1
5e5dbe11de3ec60d863dcfba,pk6inlnqw5,"Deep vs Shallow",1,213,2020-07-08T14:50:05-07:00,1.7555079460144,3,versionC_stim.csv,RLVersionC.csv,"Realational Version C","Relational, read only version C",CLOTH,STRETCH,Study2,U,157,161,Study,User,-,,Study/JOL,"Study Phase2",1386,,,-1,-1,,,,1
5e5dbe11de3ec60d863dcfba,pk6inlnqw5,"Deep vs Shallow",1,214,2020-07-08T14:50:06-07:00,1.0561599731445,3,versionC_stim.csv,RLVersionC.csv,"Realational Version C","Relational, read only version C",PLANT,CACTUS,Study2,B,98,123,Study,User,-,,Study/JOL,"Study Phase2",726,,,-1,-1,,,,1
5e5dbe11de3ec60d863dcfba,pk6inlnqw5,"Deep vs Shallow",1,215,2020-07-08T14:50:07-07:00,0.9121470451355,3,versionC_stim.csv,RLVersionC.csv,"Realational Version C","Relational, read only version C",TIE,SHOELACE,Study2,B,99,119,Study,User,-,,Study/JOL,"Study Phase2",520,,,-1,-1,,,,1
5e5dbe11de3ec60d863dcfba,pk6inlnqw5,"Deep vs Shallow",1,216,2020-07-08T14:50:08-07:00,1.2932479381561,3,versionC_stim.csv,RLVersionC.csv,"Realational Version C","Relational, read only version C",WET,DRY,Study2,S,146,107,Study,User,-,,Study/JOL,"Study Phase2",908,,,-1,-1,,,,1
5e5dbe11de3ec60d863dcfba,pk6inlnqw5,"Deep vs Shallow",1,217,2020-07-08T14:50:10-07:00,1.2343950271606,3,versionC_stim.csv,RLVersionC.csv,"Realational Version C","Relational, read only version C",BANG,FUZZY,Study2,U,168,131,Study,User,-,,Study/JOL,"Study Phase2",738,,,-1,-1,,,,1
5e5dbe11de3ec60d863dcfba,pk6inlnqw5,"Deep vs Shallow",1,218,2020-07-08T14:50:12-07:00,2.8181109428406,3,versionC_stim.csv,RLVersionC.csv,"Realational Version C","Relational, read only version C",CHILDREN,MIRROR,Study2,U,174,159,Study,User,-,,Study/JOL,"Study Phase2",1440,,,-1,-1,,,,1
5e5dbe11de3ec60d863dcfba,pk6inlnqw5,"Deep vs Shallow",1,219,2020-07-08T14:50:15-07:00,3.0443570613861,3,versionC_stim.csv,RLVersionC.csv,"Realational Version C","Relational, read only version C",LONG,EXTENSION,Study2,B,96,114,Study,User,-,,Study/JOL,"Study Phase2",1676,,,-1,-1,,,,1
5e5dbe11de3ec60d863dcfba,pk6inlnqw5,"Deep vs Shallow",1,220,2020-07-08T14:50:18-07:00,2.7720460891724,3,versionC_stim.csv,RLVersionC.csv,"Realational Version C","Relational, read only version C",FAVORITE,BEST,Study2,F,125,132,Study,User,-,,Study/JOL,"Study Phase2",1403,,,-1,-1,,,,1
5e5dbe11de3ec60d863dcfba,pk6inlnqw5,"Deep vs Shallow",1,221,2020-07-08T14:50:20-07:00,1.70356798172,3,versionC_stim.csv,RLVersionC.csv,"Realational Version C","Relational, read only version C",LIE,TRUTH,Study2,S,148,118,Study,User,-,,Study/JOL,"Study Phase2",1274,,,-1,-1,,,,1
5e5dbe11de3ec60d863dcfba,pk6inlnqw5,"Deep vs Shallow",1,222,2020-07-08T14:50:23-07:00,2.6167860031128,3,versionC_stim.csv,RLVersionC.csv,"Realational Version C","Relational, read only version C",OUNCE,BOTH,Study2,U,172,154,Study,User,-,,Study/JOL,"Study Phase2",2120,,,-1,-1,,,,1
5e5dbe11de3ec60d863dcfba,pk6inlnqw5,"Deep vs Shallow",1,223,2020-07-08T14:50:26-07:00,3.4702520370483,3,versionC_stim.csv,RLVersionC.csv,"Realational Version C","Relational, read only version C",LOVE,AFFECTION,Study2,B,115,129,Study,User,-,,Study/JOL,"Study Phase2",3070,,,-1,-1,,,,1
5e5dbe11de3ec60d863dcfba,pk6inlnqw5,"Deep vs Shallow",1,224,2020-07-08T14:50:34-07:00,8.2620689868927,3,versionC_stim.csv,RLVersionC.csv,"Realational Version C","Relational, read only version C",,,,,,0,Instruct,-,3,"Remember to focus on how the two items are similiar while you study!",,CHECK5,7888,,,-1,-1,,,,1
5e5dbe11de3ec60d863dcfba,pk6inlnqw5,"Deep vs Shallow",1,225,2020-07-08T14:50:38-07:00,3.5267689228058,3,versionC_stim.csv,RLVersionC.csv,"Realational Version C","Relational, read only version C",PANTHER,CAT,Study2,F,126,115,Study,User,-,,Study/JOL,"Study Phase2",3203,,,-1,-1,,,,1
5e5dbe11de3ec60d863dcfba,pk6inlnqw5,"Deep vs Shallow",1,226,2020-07-08T14:50:41-07:00,3.034656047821,3,versionC_stim.csv,RLVersionC.csv,"Realational Version C","Relational, read only version C",AIRCRAFT,PLANE,Study2,F,129,144,Study,User,-,,Study/JOL,"Study Phase2",2674,,,-1,-1,,,,1
5e5dbe11de3ec60d863dcfba,pk6inlnqw5,"Deep vs Shallow",1,227,2020-07-08T14:50:43-07:00,1.9361000061035,3,versionC_stim.csv,RLVersionC.csv,"Realational Version C","Relational, read only version C",TICK,FLEA,Study2,S,151,150,Study,User,-,,Study/JOL,"Study Phase2",1560,,,-1,-1,,,,1
5e5dbe11de3ec60d863dcfba,pk6inlnqw5,"Deep vs Shallow",1,228,2020-07-08T14:50:44-07:00,1.3160939216614,3,versionC_stim.csv,RLVersionC.csv,"Realational Version C","Relational, read only version C",PENGUIN,BIRD,Study2,F,119,117,Study,User,-,,Study/JOL,"Study Phase2",954,,,-1,-1,,,,1
5e5dbe11de3ec60d863dcfba,pk6inlnqw5,"Deep vs Shallow",1,229,2020-07-08T14:50:47-07:00,2.9024729728699,3,versionC_stim.csv,RLVersionC.csv,"Realational Version C","Relational, read only version C",SCAR,MAIN,Study2,U,175,146,Study,User,-,,Study/JOL,"Study Phase2",2526,,,-1,-1,,,,1
5e5dbe11de3ec60d863dcfba,pk6inlnqw5,"Deep vs Shallow",1,230,2020-07-08T14:50:48-07:00,1.1493110656738,3,versionC_stim.csv,RLVersionC.csv,"Realational Version C","Relational, read only version C",RED,CHERRY,Study2,B,104,113,Study,User,-,,Study/JOL,"Study Phase2",800,,,-1,-1,,,,1
5e5dbe11de3ec60d863dcfba,pk6inlnqw5,"Deep vs Shallow",1,231,2020-07-08T14:50:50-07:00,1.8228580951691,3,versionC_stim.csv,RLVersionC.csv,"Realational Version C","Relational, read only version C",DOG,FURRY,Study2,B,102,137,Study,User,-,,Study/JOL,"Study Phase2",1460,,,-1,-1,,,,1
5e5dbe11de3ec60d863dcfba,pk6inlnqw5,"Deep vs Shallow",1,232,2020-07-08T14:50:52-07:00,1.7401638031006,3,versionC_stim.csv,RLVersionC.csv,"Realational Version C","Relational, read only version C",FLIP,TURN,Study2,F,116,157,Study,User,-,,Study/JOL,"Study Phase2",1428,,,-1,-1,,,,1
5e5dbe11de3ec60d863dcfba,pk6inlnqw5,"Deep vs Shallow",1,233,2020-07-08T14:50:54-07:00,2.0916311740875,3,versionC_stim.csv,RLVersionC.csv,"Realational Version C","Relational, read only version C",AWAY,GONE,Study2,S,142,156,Study,User,-,,Study/JOL,"Study Phase2",1745,,,-1,-1,,,,1
5e5dbe11de3ec60d863dcfba,pk6inlnqw5,"Deep vs Shallow",1,234,2020-07-08T14:50:56-07:00,1.9414768218994,3,versionC_stim.csv,RLVersionC.csv,"Realational Version C","Relational, read only version C",CARBON,ELEMENT,Study2,S,141,106,Study,User,-,,Study/JOL,"Study Phase2",1572,,,-1,-1,,,,1
5e5dbe11de3ec60d863dcfba,pk6inlnqw5,"Deep vs Shallow",1,235,2020-07-08T14:50:57-07:00,1.5482611656189,3,versionC_stim.csv,RLVersionC.csv,"Realational Version C","Relational, read only version C",EQUAL,RIGHTS,Study2,S,137,133,Study,User,-,,Study/JOL,"Study Phase2",1238,,,-1,-1,,,,1
5e5dbe11de3ec60d863dcfba,pk6inlnqw5,"Deep vs Shallow",1,236,2020-07-08T14:50:59-07:00,1.5605449676514,3,versionC_stim.csv,RLVersionC.csv,"Realational Version C","Relational, read only version C",BANKER,MONEY,Study2,F,132,120,Study,User,-,,Study/JOL,"Study Phase2",1243,,,-1,-1,,,,1
5e5dbe11de3ec60d863dcfba,pk6inlnqw5,"Deep vs Shallow",1,237,2020-07-08T14:51:00-07:00,1.3900730609894,3,versionC_stim.csv,RLVersionC.csv,"Realational Version C","Relational, read only version C",BREAKABLE,GLASS,Study2,F,127,147,Study,User,-,,Study/JOL,"Study Phase2",1061,,,-1,-1,,,,1
5e5dbe11de3ec60d863dcfba,pk6inlnqw5,"Deep vs Shallow",1,238,2020-07-08T14:51:02-07:00,1.572084903717,3,versionC_stim.csv,RLVersionC.csv,"Realational Version C","Relational, read only version C",NOISE,LOUD,Study2,S,152,101,Study,User,-,,Study/JOL,"Study Phase2",1232,,,-1,-1,,,,1
5e5dbe11de3ec60d863dcfba,pk6inlnqw5,"Deep vs Shallow",1,239,2020-07-08T14:51:03-07:00,0.91518187522888,3,versionC_stim.csv,RLVersionC.csv,"Realational Version C","Relational, read only version C",GAME,CLUE,Study2,B,97,148,Study,User,-,,Study/JOL,"Study Phase2",578,,,-1,-1,,,,1
5e5dbe11de3ec60d863dcfba,pk6inlnqw5,"Deep vs Shallow",1,240,2020-07-08T14:51:04-07:00,1.3117361068726,3,versionC_stim.csv,RLVersionC.csv,"Realational Version C","Relational, read only version C",LEAGUE,BASEBALL,Study2,F,131,145,Study,User,-,,Study/JOL,"Study Phase2",960,,,-1,-1,,,,1
5e5dbe11de3ec60d863dcfba,pk6inlnqw5,"Deep vs Shallow",1,241,2020-07-08T14:51:05-07:00,1.3939669132233,3,versionC_stim.csv,RLVersionC.csv,"Realational Version C","Relational, read only version C",VILLAIN,BAD,Study2,F,118,142,Study,User,-,,Study/JOL,"Study Phase2",1018,,,-1,-1,,,,1
5e5dbe11de3ec60d863dcfba,pk6inlnqw5,"Deep vs Shallow",1,242,2020-07-08T14:51:06-07:00,1.0261061191559,3,versionC_stim.csv,RLVersionC.csv,"Realational Version C","Relational, read only version C",BRAWL,FIGHT,Study2,F,135,97,Study,User,-,,Study/JOL,"Study Phase2",678,,,-1,-1,,,,1
5e5dbe11de3ec60d863dcfba,pk6inlnqw5,"Deep vs Shallow",1,243,2020-07-08T14:51:08-07:00,1.7090170383453,3,versionC_stim.csv,RLVersionC.csv,"Realational Version C","Relational, read only version C",END,ADJOURN,Study2,B,101,125,Study,User,-,,Study/JOL,"Study Phase2",1313,,,-1,-1,,,,1
5e5dbe11de3ec60d863dcfba,pk6inlnqw5,"Deep vs Shallow",1,244,2020-07-08T14:51:09-07:00,1.0942008495331,3,versionC_stim.csv,RLVersionC.csv,"Realational Version C","Relational, read only version C",LONELY,ALONE,Study2,S,145,168,Study,User,-,,Study/JOL,"Study Phase2",773,,,-1,-1,,,,1
5e5dbe11de3ec60d863dcfba,pk6inlnqw5,"Deep vs Shallow",1,245,2020-07-08T14:51:11-07:00,1.7464401721954,3,versionC_stim.csv,RLVersionC.csv,"Realational Version C","Relational, read only version C",SEATBELT,SAFETY,Study2,S,147,171,Study,User,-,,Study/JOL,"Study Phase2",1391,,,-1,-1,,,,1
5e5dbe11de3ec60d863dcfba,pk6inlnqw5,"Deep vs Shallow",1,246,2020-07-08T14:51:12-07:00,1.0536308288574,3,versionC_stim.csv,RLVersionC.csv,"Realational Version C","Relational, read only version C",STEAK,GIVE,Study2,U,158,138,Study,User,-,,Study/JOL,"Study Phase2",725,,,-1,-1,,,,1
5e5dbe11de3ec60d863dcfba,pk6inlnqw5,"Deep vs Shallow",1,247,2020-07-08T14:51:13-07:00,1.0492520332336,3,versionC_stim.csv,RLVersionC.csv,"Realational Version C","Relational, read only version C",ABLE,CRACKLE,Study2,U,162,130,Study,User,-,,Study/JOL,"Study Phase2",710,,,-1,-1,,,,1
5e5dbe11de3ec60d863dcfba,pk6inlnqw5,"Deep vs Shallow",1,248,2020-07-08T14:51:14-07:00,1.2122230529785,3,versionC_stim.csv,RLVersionC.csv,"Realational Version C","Relational, read only version C",CAR,DRIVER,Study2,B,106,169,Study,User,-,,Study/JOL,"Study Phase2",889,,,-1,-1,,,,1
5e5dbe11de3ec60d863dcfba,pk6inlnqw5,"Deep vs Shallow",1,249,2020-07-08T14:51:15-07:00,0.91600704193115,3,versionC_stim.csv,RLVersionC.csv,"Realational Version C","Relational, read only version C",JAR,MASON,Study2,S,138,127,Study,User,-,,Study/JOL,"Study Phase2",602,,,-1,-1,,,,1
5e5dbe11de3ec60d863dcfba,pk6inlnqw5,"Deep vs Shallow",1,250,2020-07-08T14:51:17-07:00,1.446713924408,3,versionC_stim.csv,RLVersionC.csv,"Realational Version C","Relational, read only version C",GROUND,EARTH,Study2,S,144,160,Study,User,-,,Study/JOL,"Study Phase2",1058,,,-1,-1,,,,1
5e5dbe11de3ec60d863dcfba,pk6inlnqw5,"Deep vs Shallow",1,251,2020-07-08T14:51:18-07:00,1.4635410308838,3,versionC_stim.csv,RLVersionC.csv,"Realational Version C","Relational, read only version C",DONKEY,MULE,Study2,B,108,151,Study,User,-,,Study/JOL,"Study Phase2",1070,,,-1,-1,,,,1
5e5dbe11de3ec60d863dcfba,pk6inlnqw5,"Deep vs Shallow",1,252,2020-07-08T14:51:20-07:00,1.4224629402161,3,versionC_stim.csv,RLVersionC.csv,"Realational Version C","Relational, read only version C",SMELL,INCENSE,Study2,B,110,110,Study,User,-,,Study/JOL,"Study Phase2",1079,,,-1,-1,,,,1
5e5dbe11de3ec60d863dcfba,pk6inlnqw5,"Deep vs Shallow",1,253,2020-07-08T14:51:24-07:00,4.240149974823,3,versionC_stim.csv,RLVersionC.csv,"Realational Version C","Relational, read only version C",COMMUNICATION,PHONE,Study2,S,149,163,Study,User,-,,Study/JOL,"Study Phase2",3886,,,-1,-1,,,,1
5e5dbe11de3ec60d863dcfba,pk6inlnqw5,"Deep vs Shallow",1,254,2020-07-08T14:51:25-07:00,0.71696519851685,3,versionC_stim.csv,RLVersionC.csv,"Realational Version C","Relational, read only version C",SCISSORS,SHEARS,Study2,B,112,165,Study,User,-,,Study/JOL,"Study Phase2",407,,,-1,-1,,,,1
5e5dbe11de3ec60d863dcfba,pk6inlnqw5,"Deep vs Shallow",1,255,2020-07-08T14:51:26-07:00,1.1648178100586,3,versionC_stim.csv,RLVersionC.csv,"Realational Version C","Relational, read only version C",JOKE,KEYS,Study2,U,165,170,Study,User,-,,Study/JOL,"Study Phase2",821,,,-1,-1,,,,1
5e5dbe11de3ec60d863dcfba,pk6inlnqw5,"Deep vs Shallow",1,256,2020-07-08T14:51:27-07:00,1.6415600776672,3,versionC_stim.csv,RLVersionC.csv,"Realational Version C","Relational, read only version C",CLEAR,MOAT,Study2,U,169,162,Study,User,-,,Study/JOL,"Study Phase2",1298,,,-1,-1,,,,1
5e5dbe11de3ec60d863dcfba,pk6inlnqw5,"Deep vs Shallow",1,257,2020-07-08T14:51:29-07:00,1.7154428958893,3,versionC_stim.csv,RLVersionC.csv,"Realational Version C","Relational, read only version C",CHARM,VEHICLE,Study2,U,160,105,Study,User,-,,Study/JOL,"Study Phase2",1365,,,-1,-1,,,,1
5e5dbe11de3ec60d863dcfba,pk6inlnqw5,"Deep vs Shallow",1,258,2020-07-08T14:51:30-07:00,0.98037004470825,3,versionC_stim.csv,RLVersionC.csv,"Realational Version C","Relational, read only version C",FICTION,LISTEN,Study2,U,164,104,Study,User,-,,Study/JOL,"Study Phase2",664,,,-1,-1,,,,1
5e5dbe11de3ec60d863dcfba,pk6inlnqw5,"Deep vs Shallow",1,259,2020-07-08T14:51:31-07:00,1.1625001430511,3,versionC_stim.csv,RLVersionC.csv,"Realational Version C","Relational, read only version C",CLOTHES,CAKE,Study2,U,166,134,Study,User,-,,Study/JOL,"Study Phase2",780,,,-1,-1,,,,1
5e5dbe11de3ec60d863dcfba,pk6inlnqw5,"Deep vs Shallow",1,260,2020-07-08T14:51:32-07:00,1.0108740329742,3,versionC_stim.csv,RLVersionC.csv,"Realational Version C","Relational, read only version C",EAT,DINE,Study2,B,111,167,Study,User,-,,Study/JOL,"Study Phase2",673,,,-1,-1,,,,1
5e5dbe11de3ec60d863dcfba,pk6inlnqw5,"Deep vs Shallow",1,261,2020-07-08T14:51:33-07:00,1.0672178268433,3,versionC_stim.csv,RLVersionC.csv,"Realational Version C","Relational, read only version C",TEMPER,TANTRUM,Study2,S,154,173,Study,User,-,,Study/JOL,"Study Phase2",717,,,-1,-1,,,,1
5e5dbe11de3ec60d863dcfba,pk6inlnqw5,"Deep vs Shallow",1,262,2020-07-08T14:51:34-07:00,0.98925805091858,3,versionC_stim.csv,RLVersionC.csv,"Realational Version C","Relational, read only version C",ACTRESS,STAR,Study2,F,120,172,Study,User,-,,Study/JOL,"Study Phase2",631,,,-1,-1,,,,1
5e5dbe11de3ec60d863dcfba,pk6inlnqw5,"Deep vs Shallow",1,263,2020-07-08T14:51:36-07:00,1.384938955307,3,versionC_stim.csv,RLVersionC.csv,"Realational Version C","Relational, read only version C",SHAKE,Shell,Study2,U,163,143,Study,User,-,,Study/JOL,"Study Phase2",1046,,,-1,-1,,,,1
5e5dbe11de3ec60d863dcfba,pk6inlnqw5,"Deep vs Shallow",1,264,2020-07-08T14:51:36-07:00,0.76666808128357,3,versionC_stim.csv,RLVersionC.csv,"Realational Version C","Relational, read only version C",MAROON,JUSTICE,Study2,U,156,124,Study,User,-,,Study/JOL,"Study Phase2",419,,,-1,-1,,,,1
5e5dbe11de3ec60d863dcfba,pk6inlnqw5,"Deep vs Shallow",1,265,2020-07-08T14:51:38-07:00,1.810446023941,3,versionC_stim.csv,RLVersionC.csv,"Realational Version C","Relational, read only version C",Morning,TEMPERATURE,Study2,U,173,116,Study,User,-,,Study/JOL,"Study Phase2",1483,,,-1,-1,,,,1
5e5dbe11de3ec60d863dcfba,pk6inlnqw5,"Deep vs Shallow",1,266,2020-07-08T14:51:39-07:00,0.88064503669739,3,versionC_stim.csv,RLVersionC.csv,"Realational Version C","Relational, read only version C",MYSTERY,DETECTIVE,Study2,B,100,152,Study,User,-,,Study/JOL,"Study Phase2",518,,,-1,-1,,,,1
5e5dbe11de3ec60d863dcfba,pk6inlnqw5,"Deep vs Shallow",1,267,2020-07-08T14:51:40-07:00,0.73048496246338,3,versionC_stim.csv,RLVersionC.csv,"Realational Version C","Relational, read only version C",BRACELET,WRIST,Study2,S,140,135,Study,User,-,,Study/JOL,"Study Phase2",437,,,-1,-1,,,,1
5e5dbe11de3ec60d863dcfba,pk6inlnqw5,"Deep vs Shallow",1,268,2020-07-08T14:51:41-07:00,0.86739993095398,3,versionC_stim.csv,RLVersionC.csv,"Realational Version C","Relational, read only version C",WAX,CANDLE,Study2,S,139,174,Study,User,-,,Study/JOL,"Study Phase2",498,,,-1,-1,,,,1
5e5dbe11de3ec60d863dcfba,pk6inlnqw5,"Deep vs Shallow",1,269,2020-07-08T14:51:42-07:00,0.78305006027222,3,versionC_stim.csv,RLVersionC.csv,"Realational Version C","Relational, read only version C",CUT,CHOP,Study2,B,107,112,Study,User,-,,Study/JOL,"Study Phase2",438,,,-1,-1,,,,1
5e5dbe11de3ec60d863dcfba,pk6inlnqw5,"Deep vs Shallow",1,270,2020-07-08T14:51:42-07:00,0.75811195373535,3,versionC_stim.csv,RLVersionC.csv,"Realational Version C","Relational, read only version C",REEL,ROD,Study2,S,150,176,Study,User,-,,Study/JOL,"Study Phase2",366,,,-1,-1,,,,1
5e5dbe11de3ec60d863dcfba,pk6inlnqw5,"Deep vs Shallow",1,271,2020-07-08T14:51:43-07:00,0.95325207710266,3,versionC_stim.csv,RLVersionC.csv,"Realational Version C","Relational, read only version C",YEAR,MONTH,BUFFER4,Buffer,177,178,Study,User,-,,Study/JOL,BUFFER4,618,,,-1,-1,,,,1
5e5dbe11de3ec60d863dcfba,pk6inlnqw5,"Deep vs Shallow",1,272,2020-07-08T14:51:44-07:00,1.0727000236511,3,versionC_stim.csv,RLVersionC.csv,"Realational Version C","Relational, read only version C",WEAKS,DAYS,BUFFER4,Buffer,176,179,Study,User,-,,Study/JOL,BUFFER4,686,,,-1,-1,,,,1
5e5dbe11de3ec60d863dcfba,pk6inlnqw5,"Deep vs Shallow",1,273,2020-07-08T14:51:45-07:00,1.0639519691467,3,versionC_stim.csv,RLVersionC.csv,"Realational Version C","Relational, read only version C",SPOOKY,OCTOBER,BUFFER4,Buffer,180,180,Study,User,-,,Study/JOL,BUFFER4,721,,,-1,-1,,,,1
5e5dbe11de3ec60d863dcfba,pk6inlnqw5,"Deep vs Shallow",1,274,2020-07-08T14:51:46-07:00,1.0879080295563,3,versionC_stim.csv,RLVersionC.csv,"Realational Version C","Relational, read only version C",MARCH,SPRING,BUFFER4,Buffer,179,177,Study,User,-,,Study/JOL,BUFFER4,737,,,-1,-1,,,,1
5e5dbe11de3ec60d863dcfba,pk6inlnqw5,"Deep vs Shallow",1,275,2020-07-08T14:51:48-07:00,1.3368668556213,3,versionC_stim.csv,RLVersionC.csv,"Realational Version C","Relational, read only version C",SHED,TOOL,BUFFER4,Buffer,178,181,Study,User,-,,Study/JOL,BUFFER4,1008,,,-1,-1,,,,1
5e5dbe11de3ec60d863dcfba,pk6inlnqw5,"Deep vs Shallow",1,276,2020-07-08T14:51:51-07:00,2.7361979484558,3,versionC_stim.csv,RLVersionC.csv,"Realational Version C","Relational, read only version C",,,,,,0,Instruct,User,-,"You have completed this section. Please press Enter.",Filler_Instruction,Instruct5,2378,,,-1,-1,,,,1
5e5dbe11de3ec60d863dcfba,pk6inlnqw5,"Deep vs Shallow",1,277,2020-07-08T14:52:04-07:00,13.04622220993,3,versionC_stim.csv,RLVersionC.csv,"Realational Version C","Relational, read only version C",,,,,,0,FreeRecall,-,10,"What were you supposed to focus on while you studied each pair? (Hint: Think back to the instructions). Type your answer in the space below.",,CHECK3,12676,"how they were related ",0,3446,7366,0,0,,1
5e5dbe11de3ec60d863dcfba,pk6inlnqw5,"Deep vs Shallow",1,278,2020-07-08T14:52:06-07:00,2.3948268890381,3,versionC_stim.csv,RLVersionC.csv,"Realational Version C","Relational, read only version C",,,,,,0,Instruct,User,-,"You have completed this section. Please press Enter.",Filler_Instruction,Instruct5,2068,,,-1,-1,,,,1
5e5dbe11de3ec60d863dcfba,pk6inlnqw5,"Deep vs Shallow",1,279,2020-07-08T14:54:08-07:00,121.59408688545,3,versionC_stim.csv,RLVersionC.csv,"Realational Version C","Relational, read only version C",,,,,,0,FreeRecall,120,120,"Please list the 50 US states in reverse alphabetical order (z - a). The task will automatically advance to the next screen after two minutes.",,Filler2,120003,"texas......i really don't know ",0,20856,37804,0,0,,1
5e5dbe11de3ec60d863dcfba,pk6inlnqw5,"Deep vs Shallow",1,280,2020-07-08T14:54:20-07:00,12.661521196365,3,versionC_stim.csv,RLVersionC.csv,"Realational Version C","Relational, read only version C",,,,,,0,Instruct,-,10,"You will now be presented with the first word from each of the previously studied item pairs. Please type the missing word. If you do not know the word, you may guess or press Enter to skip forward to the next pair.",,Instruct6,12276,,,-1,-1,,,,1
5e5dbe11de3ec60d863dcfba,pk6inlnqw5,"Deep vs Shallow",1,281,2020-07-08T14:54:47-07:00,27.138525009155,3,versionC_stim.csv,RLVersionC.csv,"Realational Version C","Relational, read only version C",PLANT,CACTUS,Study2,B,98,123,Test,User,-,,Recall,Recall2,26743,cactus,100,25860,26496,1,1,,0.5
5e5dbe11de3ec60d863dcfba,pk6inlnqw5,"Deep vs Shallow",1,282,2020-07-08T14:54:53-07:00,5.3325579166412,3,versionC_stim.csv,RLVersionC.csv,"Realational Version C","Relational, read only version C",PENGUIN,BIRD,Study2,F,119,117,Test,User,-,,Recall,Recall2,4947,bird,100,4537,4857,1,1,,1
5e5dbe11de3ec60d863dcfba,pk6inlnqw5,"Deep vs Shallow",1,283,2020-07-08T14:55:17-07:00,24.653951883316,3,versionC_stim.csv,RLVersionC.csv,"Realational Version C","Relational, read only version C",MYSTERY,DETECTIVE,Study2,B,100,152,Test,User,-,,Recall,Recall2,24240,detective,100,22420,24147,1,1,,1
5e5dbe11de3ec60d863dcfba,pk6inlnqw5,"Deep vs Shallow",1,284,2020-07-08T14:56:05-07:00,48.106225013733,3,versionC_stim.csv,RLVersionC.csv,"Realational Version C","Relational, read only version C",RED,CHERRY,Study2,B,104,113,Test,User,-,,Recall,Recall2,46639,cherry,100,44772,46111,1,1,,1
5e5dbe11de3ec60d863dcfba,pk6inlnqw5,"Deep vs Shallow",1,285,2020-07-08T14:56:35-07:00,29.60268497467,3,versionC_stim.csv,RLVersionC.csv,"Realational Version C","Relational, read only version C",ELECTION,MAZE,Study2,U,159,121,Test,User,-,,Recall,Recall2,29067,maze,100,28411,28972,1,1,,1
5e5dbe11de3ec60d863dcfba,pk6inlnqw5,"Deep vs Shallow",1,286,2020-07-08T14:56:51-07:00,16.013313055038,3,versionC_stim.csv,RLVersionC.csv,"Realational Version C","Relational, read only version C",CHARM,VEHICLE,Study2,U,160,105,Test,User,-,,Recall,Recall2,15596,car,20,15181,15516,0,0,,1
5e5dbe11de3ec60d863dcfba,pk6inlnqw5,"Deep vs Shallow",1,287,2020-07-08T14:57:06-07:00,15.388710021973,3,versionC_stim.csv,RLVersionC.csv,"Realational Version C","Relational, read only version C",AWAY,GONE,Study2,S,142,156,Test,User,-,,Recall,Recall2,15014,gone,100,14559,14796,1,1,,1
5e5dbe11de3ec60d863dcfba,pk6inlnqw5,"Deep vs Shallow",1,288,2020-07-08T14:57:18-07:00,11.459979057312,3,versionC_stim.csv,RLVersionC.csv,"Realational Version C","Relational, read only version C",BALLOON,POP,Study2,F,123,126,Test,User,-,,Recall,Recall2,11023,,0,-1,-1,0,0,,0.911
5e5dbe11de3ec60d863dcfba,pk6inlnqw5,"Deep vs Shallow",1,289,2020-07-08T14:57:38-07:00,19.864804983139,3,versionC_stim.csv,RLVersionC.csv,"Realational Version C","Relational, read only version C",BANG,FUZZY,Study2,U,168,131,Test,User,-,,Recall,Recall2,19423,fuzzy,100,18680,19172,1,1,,1
5e5dbe11de3ec60d863dcfba,pk6inlnqw5,"Deep vs Shallow",1,290,2020-07-08T14:57:40-07:00,2.1267120838165,3,versionC_stim.csv,RLVersionC.csv,"Realational Version C","Relational, read only version C",SARDINE,FISH,Study2,F,130,103,Test,User,-,,Recall,Recall2,1763,fish,100,1351,1618,1,1,,1
5e5dbe11de3ec60d863dcfba,pk6inlnqw5,"Deep vs Shallow",1,291,2020-07-08T14:57:57-07:00,17.013700962067,3,versionC_stim.csv,RLVersionC.csv,"Realational Version C","Relational, read only version C",END,ADJOURN,Study2,B,101,125,Test,User,-,,Recall,Recall2,16605,adjourn,100,15572,16429,1,1,,1
5e5dbe11de3ec60d863dcfba,pk6inlnqw5,"Deep vs Shallow",1,292,2020-07-08T14:58:00-07:00,3.3873698711395,3,versionC_stim.csv,RLVersionC.csv,"Realational Version C","Relational, read only version C",AIRCRAFT,PLANE,Study2,F,129,144,Test,User,-,,Recall,Recall2,3026,plane,100,2109,2968,1,1,,1
5e5dbe11de3ec60d863dcfba,pk6inlnqw5,"Deep vs Shallow",1,293,2020-07-08T14:58:02-07:00,2.0822501182556,3,versionC_stim.csv,RLVersionC.csv,"Realational Version C","Relational, read only version C",EQUAL,RIGHTS,Study2,S,137,133,Test,User,-,,Recall,Recall2,1749,rights,100,1146,1680,1,1,,1
5e5dbe11de3ec60d863dcfba,pk6inlnqw5,"Deep vs Shallow",1,294,2020-07-08T14:58:46-07:00,43.903030872345,3,versionC_stim.csv,RLVersionC.csv,"Realational Version C","Relational, read only version C",COLD,CHILL,Study2,B,114,139,Test,User,-,,Recall,Recall2,43452,,0,-1,-1,0,0,,1
5e5dbe11de3ec60d863dcfba,pk6inlnqw5,"Deep vs Shallow",1,295,2020-07-08T14:58:57-07:00,10.77000617981,3,versionC_stim.csv,RLVersionC.csv,"Realational Version C","Relational, read only version C",SEATBELT,SAFETY,Study2,S,147,171,Test,User,-,,Recall,Recall2,10266,safety,100,9190,10001,1,1,,1
5e5dbe11de3ec60d863dcfba,pk6inlnqw5,"Deep vs Shallow",1,296,2020-07-08T14:59:20-07:00,22.576347827911,3,versionC_stim.csv,RLVersionC.csv,"Realational Version C","Relational, read only version C",JAR,MASON,Study2,S,138,127,Test,User,-,,Recall,Recall2,22188,mason,100,21682,22017,1,1,,1
5e5dbe11de3ec60d863dcfba,pk6inlnqw5,"Deep vs Shallow",1,297,2020-07-08T14:59:22-07:00,2.7306020259857,3,versionC_stim.csv,RLVersionC.csv,"Realational Version C","Relational, read only version C",TRUTHFUL,HONEST,Study2,F,133,164,Test,User,-,,Recall,Recall2,2376,,0,-1,-1,0,0,,1
5e5dbe11de3ec60d863dcfba,pk6inlnqw5,"Deep vs Shallow",1,298,2020-07-08T14:59:30-07:00,7.5368709564209,3,versionC_stim.csv,RLVersionC.csv,"Realational Version C","Relational, read only version C",CLEAR,MOAT,Study2,U,169,162,Test,User,-,,Recall,Recall2,7164,moat,100,5934,7079,1,1,,1
5e5dbe11de3ec60d863dcfba,pk6inlnqw5,"Deep vs Shallow",1,299,2020-07-08T14:59:42-07:00,12.523823022842,3,versionC_stim.csv,RLVersionC.csv,"Realational Version C","Relational, read only version C",NAP,SLEEP,Study2,F,134,122,Test,User,-,,Recall,Recall2,12070,sleep,100,10888,11942,1,1,,1
5e5dbe11de3ec60d863dcfba,pk6inlnqw5,"Deep vs Shallow",1,300,2020-07-08T15:00:14-07:00,31.876060962677,3,versionC_stim.csv,RLVersionC.csv,"Realational Version C","Relational, read only version C",STEAK,GIVE,Study2,U,158,138,Test,User,-,,Recall,Recall2,31467,meat,25,30748,31381,0,0,,1
5e5dbe11de3ec60d863dcfba,pk6inlnqw5,"Deep vs Shallow",1,301,2020-07-08T15:00:24-07:00,9.3230090141296,3,versionC_stim.csv,RLVersionC.csv,"Realational Version C","Relational, read only version C",CLOTH,STRETCH,Study2,U,157,161,Test,User,-,,Recall,Recall2,8955,stretch,100,7395,8721,1,1,,1
5e5dbe11de3ec60d863dcfba,pk6inlnqw5,"Deep vs Shallow",1,302,2020-07-08T15:00:35-07:00,11.503167152405,3,versionC_stim.csv,RLVersionC.csv,"Realational Version C","Relational, read only version C",SCAR,MAIN,Study2,U,175,146,Test,User,-,,Recall,Recall2,11041,main,100,10500,10819,1,1,,1
5e5dbe11de3ec60d863dcfba,pk6inlnqw5,"Deep vs Shallow",1,303,2020-07-08T15:00:45-07:00,9.8481969833374,3,versionC_stim.csv,RLVersionC.csv,"Realational Version C","Relational, read only version C",DRINK,WATER,Study2,S,143,102,Test,User,-,,Recall,Recall2,9476,,0,-1,-1,0,0,,1
5e5dbe11de3ec60d863dcfba,pk6inlnqw5,"Deep vs Shallow",1,304,2020-07-08T15:01:01-07:00,16.187681913376,3,versionC_stim.csv,RLVersionC.csv,"Realational Version C","Relational, read only version C",LIE,TRUTH,Study2,S,148,118,Test,User,-,,Recall,Recall2,15813,,0,-1,-1,0,0,,1
5e5dbe11de3ec60d863dcfba,pk6inlnqw5,"Deep vs Shallow",1,305,2020-07-08T15:01:18-07:00,17.039350986481,3,versionC_stim.csv,RLVersionC.csv,"Realational Version C","Relational, read only version C",BREAKABLE,GLASS,Study2,F,127,147,Test,User,-,,Recall,Recall2,16681,glass,100,15595,16251,1,1,,1
5e5dbe11de3ec60d863dcfba,pk6inlnqw5,"Deep vs Shallow",1,306,2020-07-08T15:01:26-07:00,8.1186730861664,3,versionC_stim.csv,RLVersionC.csv,"Realational Version C","Relational, read only version C",LOVE,AFFECTION,Study2,B,115,129,Test,User,-,,Recall,Recall2,7778,heart,28.571428571429,7104,7719,0,0,,0.615
5e5dbe11de3ec60d863dcfba,pk6inlnqw5,"Deep vs Shallow",1,307,2020-07-08T15:01:30-07:00,3.2464959621429,3,versionC_stim.csv,RLVersionC.csv,"Realational Version C","Relational, read only version C",GROUND,EARTH,Study2,S,144,160,Test,User,-,,Recall,Recall2,2919,floor,20,2389,2864,0,0,,1
5e5dbe11de3ec60d863dcfba,pk6inlnqw5,"Deep vs Shallow",1,308,2020-07-08T15:01:32-07:00,2.0994620323181,3,versionC_stim.csv,RLVersionC.csv,"Realational Version C","Relational, read only version C",REEL,ROD,Study2,S,150,176,Test,User,-,,Recall,Recall2,1796,fish,0,1443,1666,0,0,,1
5e5dbe11de3ec60d863dcfba,pk6inlnqw5,"Deep vs Shallow",1,309,2020-07-08T15:01:34-07:00,2.135174036026,3,versionC_stim.csv,RLVersionC.csv,"Realational Version C","Relational, read only version C",CUT,CHOP,Study2,B,107,112,Test,User,-,,Recall,Recall2,1829,knife,0,1374,1751,0,0,,1
5e5dbe11de3ec60d863dcfba,pk6inlnqw5,"Deep vs Shallow",1,310,2020-07-08T15:01:36-07:00,2.1375968456268,3,versionC_stim.csv,RLVersionC.csv,"Realational Version C","Relational, read only version C",HEAD,SCALP,Study2,B,105,155,Test,User,-,,Recall,Recall2,1764,ache,22.222222222222,1277,1626,0,0,,1
5e5dbe11de3ec60d863dcfba,pk6inlnqw5,"Deep vs Shallow",1,311,2020-07-08T15:01:38-07:00,1.9408421516418,3,versionC_stim.csv,RLVersionC.csv,"Realational Version C","Relational, read only version C",LONELY,ALONE,Study2,S,145,168,Test,User,-,,Recall,Recall2,1601,,0,-1,-1,0,0,,1
5e5dbe11de3ec60d863dcfba,pk6inlnqw5,"Deep vs Shallow",1,312,2020-07-08T15:01:40-07:00,2.442941904068,3,versionC_stim.csv,RLVersionC.csv,"Realational Version C","Relational, read only version C",PANTHER,CAT,Study2,F,126,115,Test,User,-,,Recall,Recall2,2086,cat,100,1644,1986,1,1,,1
5e5dbe11de3ec60d863dcfba,pk6inlnqw5,"Deep vs Shallow",1,313,2020-07-08T15:01:43-07:00,2.2215099334717,3,versionC_stim.csv,RLVersionC.csv,"Realational Version C","Relational, read only version C",SMELL,INCENSE,Study2,B,110,110,Test,User,-,,Recall,Recall2,1866,stench,30.769230769231,1038,1615,0,0,,1
5e5dbe11de3ec60d863dcfba,pk6inlnqw5,"Deep vs Shallow",1,314,2020-07-08T15:01:44-07:00,1.7012760639191,3,versionC_stim.csv,RLVersionC.csv,"Realational Version C","Relational, read only version C",FLIP,TURN,Study2,F,116,157,Test,User,-,,Recall,Recall2,1373,coin,25,976,1207,0,0,,1
5e5dbe11de3ec60d863dcfba,pk6inlnqw5,"Deep vs Shallow",1,315,2020-07-08T15:01:46-07:00,1.4374930858612,3,versionC_stim.csv,RLVersionC.csv,"Realational Version C","Relational, read only version C",JOKE,KEYS,Study2,U,165,170,Test,User,-,,Recall,Recall2,1120,,0,-1,-1,0,0,,1
5e5dbe11de3ec60d863dcfba,pk6inlnqw5,"Deep vs Shallow",1,316,2020-07-08T15:01:48-07:00,1.960028886795,3,versionC_stim.csv,RLVersionC.csv,"Realational Version C","Relational, read only version C",ABLE,CRACKLE,Study2,U,162,130,Test,User,-,,Recall,Recall2,1646,,0,-1,-1,0,0,,1
5e5dbe11de3ec60d863dcfba,pk6inlnqw5,"Deep vs Shallow",1,317,2020-07-08T15:01:49-07:00,1.7434079647064,3,versionC_stim.csv,RLVersionC.csv,"Realational Version C","Relational, read only version C",BRAWL,FIGHT,Study2,F,135,97,Test,User,-,,Recall,Recall2,1427,fight,100,950,1304,1,1,,1
5e5dbe11de3ec60d863dcfba,pk6inlnqw5,"Deep vs Shallow",1,318,2020-07-08T15:01:52-07:00,2.7064211368561,3,versionC_stim.csv,RLVersionC.csv,"Realational Version C","Relational, read only version C",TOIL,LEASE,Study2,U,170,141,Test,User,-,,Recall,Recall2,2395,,0,-1,-1,0,0,,1
5e5dbe11de3ec60d863dcfba,pk6inlnqw5,"Deep vs Shallow",1,319,2020-07-08T15:01:55-07:00,2.5897409915924,3,versionC_stim.csv,RLVersionC.csv,"Realational Version C","Relational, read only version C",OBTAIN,MEAT,Study2,U,161,149,Test,User,-,,Recall,Recall2,2265,get,57.142857142857,1870,2127,0,0,,1
5e5dbe11de3ec60d863dcfba,pk6inlnqw5,"Deep vs Shallow",1,320,2020-07-08T15:01:59-07:00,3.9052119255066,3,versionC_stim.csv,RLVersionC.csv,"Realational Version C","Relational, read only version C",SHAKE,Shell,Study2,U,163,143,Test,User,-,,Recall,Recall2,3584,milk,22.222222222222,3017,3343,0,0,,1
5e5dbe11de3ec60d863dcfba,pk6inlnqw5,"Deep vs Shallow",1,321,2020-07-08T15:02:02-07:00,3.7116651535034,3,versionC_stim.csv,RLVersionC.csv,"Realational Version C","Relational, read only version C",BANKER,MONEY,Study2,F,132,120,Test,User,-,,Recall,Recall2,3400,mone,88.888888888889,2826,3114,0,1,,1
5e5dbe11de3ec60d863dcfba,pk6inlnqw5,"Deep vs Shallow",1,322,2020-07-08T15:02:06-07:00,3.2442948818207,3,versionC_stim.csv,RLVersionC.csv,"Realational Version C","Relational, read only version C",SCISSORS,SHEARS,Study2,B,112,165,Test,User,-,,Recall,Recall2,1678,cut,0,1272,1502,0,0,,1
5e5dbe11de3ec60d863dcfba,pk6inlnqw5,"Deep vs Shallow",1,323,2020-07-08T15:02:08-07:00,2.4084720611572,3,versionC_stim.csv,RLVersionC.csv,"Realational Version C","Relational, read only version C",FAVORITE,BEST,Study2,F,125,132,Test,User,-,,Recall,Recall2,1919,colour,0,1266,1837,0,0,,1
5e5dbe11de3ec60d863dcfba,pk6inlnqw5,"Deep vs Shallow",1,324,2020-07-08T15:02:40-07:00,32.417130947113,3,versionC_stim.csv,RLVersionC.csv,"Realational Version C","Relational, read only version C",CAR,DRIVER,Study2,B,106,169,Test,User,-,,Recall,Recall2,32066,windshielf,25,31112,31952,0,0,,1
5e5dbe11de3ec60d863dcfba,pk6inlnqw5,"Deep vs Shallow",1,325,2020-07-08T15:02:42-07:00,2.0915310382843,3,versionC_stim.csv,RLVersionC.csv,"Realational Version C","Relational, read only version C",DONKEY,MULE,Study2,B,108,151,Test,User,-,,Recall,Recall2,1758,,0,-1,-1,0,0,,1
5e5dbe11de3ec60d863dcfba,pk6inlnqw5,"Deep vs Shallow",1,326,2020-07-08T15:02:45-07:00,2.9390950202942,3,versionC_stim.csv,RLVersionC.csv,"Realational Version C","Relational, read only version C",MAROON,JUSTICE,Study2,U,156,124,Test,User,-,,Recall,Recall2,2636,,0,-1,-1,0,0,,1
5e5dbe11de3ec60d863dcfba,pk6inlnqw5,"Deep vs Shallow",1,327,2020-07-08T15:02:48-07:00,2.1343379020691,3,versionC_stim.csv,RLVersionC.csv,"Realational Version C","Relational, read only version C",THIMBLE,THREAD,Study2,F,121,136,Test,User,-,,Recall,Recall2,1798,tack,40,1214,1666,0,0,,1
5e5dbe11de3ec60d863dcfba,pk6inlnqw5,"Deep vs Shallow",1,328,2020-07-08T15:02:51-07:00,3.5139861106873,3,versionC_stim.csv,RLVersionC.csv,"Realational Version C","Relational, read only version C",WAX,CANDLE,Study2,S,139,174,Test,User,-,,Recall,Recall2,3182,candl,90.909090909091,1840,3025,0,1,,1
5e5dbe11de3ec60d863dcfba,pk6inlnqw5,"Deep vs Shallow",1,329,2020-07-08T15:02:55-07:00,3.5485880374908,3,versionC_stim.csv,RLVersionC.csv,"Realational Version C","Relational, read only version C",SIGN,LOAN,Study2,U,171,111,Test,User,-,,Recall,Recall2,3222,post,25,2921,3168,0,0,,1
5e5dbe11de3ec60d863dcfba,pk6inlnqw5,"Deep vs Shallow",1,330,2020-07-08T15:02:57-07:00,1.9611020088196,3,versionC_stim.csv,RLVersionC.csv,"Realational Version C","Relational, read only version C",WINDSHIELD,CAR,Study2,F,117,140,Test,User,-,,Recall,Recall2,1619,car,100,1215,1541,1,1,,1
5e5dbe11de3ec60d863dcfba,pk6inlnqw5,"Deep vs Shallow",1,331,2020-07-08T15:02:59-07:00,2.9196720123291,3,versionC_stim.csv,RLVersionC.csv,"Realational Version C","Relational, read only version C",SHAVE,RAZOR,Study2,S,136,99,Test,User,-,,Recall,Recall2,2583,beard,40,1943,2481,0,0,,1
5e5dbe11de3ec60d863dcfba,pk6inlnqw5,"Deep vs Shallow",1,332,2020-07-08T15:03:02-07:00,2.5495958328247,3,versionC_stim.csv,RLVersionC.csv,"Realational Version C","Relational, read only version C",COMMUNICATION,PHONE,Study2,S,149,163,Test,User,-,,Recall,Recall2,2224,talk,0,1285,2041,0,0,,1
5e5dbe11de3ec60d863dcfba,pk6inlnqw5,"Deep vs Shallow",1,333,2020-07-08T15:03:04-07:00,2.2256500720978,3,versionC_stim.csv,RLVersionC.csv,"Realational Version C","Relational, read only version C",DOG,FURRY,Study2,B,102,137,Test,User,-,,Recall,Recall2,1890,cat,0,1396,1788,0,0,,1
5e5dbe11de3ec60d863dcfba,pk6inlnqw5,"Deep vs Shallow",1,334,2020-07-08T15:03:07-07:00,2.616888999939,3,versionC_stim.csv,RLVersionC.csv,"Realational Version C","Relational, read only version C",BRACELET,WRIST,Study2,S,140,135,Test,User,-,,Recall,Recall2,2236,wrsit,80,1612,2122,0,1,,1
5e5dbe11de3ec60d863dcfba,pk6inlnqw5,"Deep vs Shallow",1,335,2020-07-08T15:03:09-07:00,2.2553238868713,3,versionC_stim.csv,RLVersionC.csv,"Realational Version C","Relational, read only version C",STRAWBERRY,FRUIT,Study2,F,124,158,Test,User,-,,Recall,Recall2,1937,fruit,100,1359,1766,1,1,,1
5e5dbe11de3ec60d863dcfba,pk6inlnqw5,"Deep vs Shallow",1,336,2020-07-08T15:03:11-07:00,1.8339591026306,3,versionC_stim.csv,RLVersionC.csv,"Realational Version C","Relational, read only version C",TICK,FLEA,Study2,S,151,150,Test,User,-,,Recall,Recall2,1496,flea,100,1134,1402,1,1,,1
5e5dbe11de3ec60d863dcfba,pk6inlnqw5,"Deep vs Shallow",1,337,2020-07-08T15:03:13-07:00,1.8092079162598,3,versionC_stim.csv,RLVersionC.csv,"Realational Version C","Relational, read only version C",HATE,NAME,Study2,U,167,153,Test,User,-,,Recall,Recall2,1492,love,25,1085,1430,0,0,,1
5e5dbe11de3ec60d863dcfba,pk6inlnqw5,"Deep vs Shallow",1,338,2020-07-08T15:03:14-07:00,1.6616110801697,3,versionC_stim.csv,RLVersionC.csv,"Realational Version C","Relational, read only version C",EAT,DINE,Study2,B,111,167,Test,User,-,,Recall,Recall2,1354,,0,-1,-1,0,0,,1
5e5dbe11de3ec60d863dcfba,pk6inlnqw5,"Deep vs Shallow",1,339,2020-07-08T15:03:17-07:00,2.3865809440613,3,versionC_stim.csv,RLVersionC.csv,"Realational Version C","Relational, read only version C",LEAGUE,BASEBALL,Study2,F,131,145,Test,User,-,,Recall,Recall2,2068,baseball,100,1120,1907,1,1,,1
5e5dbe11de3ec60d863dcfba,pk6inlnqw5,"Deep vs Shallow",1,340,2020-07-08T15:03:19-07:00,2.3710639476776,3,versionC_stim.csv,RLVersionC.csv,"Realational Version C","Relational, read only version C",TRASH,LITTER,Study2,B,103,175,Test,User,-,,Recall,Recall2,2038,garbage,15.384615384615,1222,1999,0,0,,1
5e5dbe11de3ec60d863dcfba,pk6inlnqw5,"Deep vs Shallow",1,341,2020-07-08T15:03:22-07:00,2.7003622055054,3,versionC_stim.csv,RLVersionC.csv,"Realational Version C","Relational, read only version C",CHILDREN,MIRROR,Study2,U,174,159,Test,User,-,,Recall,Recall2,2359,parents,15.384615384615,1405,2225,0,0,,1
5e5dbe11de3ec60d863dcfba,pk6inlnqw5,"Deep vs Shallow",1,342,2020-07-08T15:03:24-07:00,1.8330209255219,3,versionC_stim.csv,RLVersionC.csv,"Realational Version C","Relational, read only version C",REVENGE,EVEN,Study2,F,122,109,Test,User,-,,Recall,Recall2,1528,even,100,1038,1388,1,1,,1
5e5dbe11de3ec60d863dcfba,pk6inlnqw5,"Deep vs Shallow",1,343,2020-07-08T15:03:26-07:00,1.8294739723206,3,versionC_stim.csv,RLVersionC.csv,"Realational Version C","Relational, read only version C",NOISE,LOUD,Study2,S,152,101,Test,User,-,,Recall,Recall2,1485,loud,100,1051,1392,1,1,,1
5e5dbe11de3ec60d863dcfba,pk6inlnqw5,"Deep vs Shallow",1,344,2020-07-08T15:03:27-07:00,1.5801808834076,3,versionC_stim.csv,RLVersionC.csv,"Realational Version C","Relational, read only version C",PAPER,DOCUMENT,Study2,B,109,128,Test,User,-,,Recall,Recall2,1230,cut,54.545454545455,912,1145,0,0,,1
5e5dbe11de3ec60d863dcfba,pk6inlnqw5,"Deep vs Shallow",1,345,2020-07-08T15:03:31-07:00,4.2027070522308,3,versionC_stim.csv,RLVersionC.csv,"Realational Version C","Relational, read only version C",FICTION,LISTEN,Study2,U,164,104,Test,User,-,,Recall,Recall2,3888,science,46.153846153846,1334,3807,0,0,,1
