Username,ID,ExperimentName,Session,Trial,Date,TimeDif,"Condition Number","Stimuli File","Order File","Condition Description","Condition Notes",Stimuli*Cue,Stimuli*Answer,Stimuli*Shuffle,"Stimuli*Stimuli Notes",Stimuli*Value,Procedure*Item,"Procedure*Trial Type","Procedure*Max Time","Procedure*Min Time",Procedure*Text,"Procedure*Procedure Notes",Procedure*Shuffle,Response*RT,Response*Response,Response*Accuracy,Response*RTfirst,Response*RTlast,Response*strictAcc,Response*lenientAcc,Response*focus,Response*Focus
w10007153_kab,f2rv34s3rj,Relational_NO_JOL,1,1,2020-04-29T20:05:46-07:00,17.029239177704,1,versionA_stim.csv,READVersionA.csv,"Read Version A","Relational, read only version A",,,,,,0,Instruct,-,10,"In this section, you will be presented with a series of word pairs. Please study both items in the pair.",,Instruct13,16378,,,-1,-1,,,,1
w10007153_kab,f2rv34s3rj,Relational_NO_JOL,1,2,2020-04-29T20:06:03-07:00,16.713028907776,1,versionA_stim.csv,READVersionA.csv,"Read Version A","Relational, read only version A",,,,,,0,Instruct,-,15,"As you study, please think about how the two concepts are RELATED to each other. For example, if you see the pair TURTLE-CAT, think about how both are alive, they are both animals, and both can be kept as pets.",,Instruct19,15862,,,-1,-1,,,,1
w10007153_kab,f2rv34s3rj,Relational_NO_JOL,1,3,2020-04-29T20:06:21-07:00,18.502445936203,1,versionA_stim.csv,READVersionA.csv,"Read Version A","Relational, read only version A",,,,,,0,FreeRecall,-,10,"What you should think about as you study each item pair? Type your response in the box below.",,CHECK1,17791,"How they are related to each other.",0,8388,16051,0,0,,1
w10007153_kab,f2rv34s3rj,Relational_NO_JOL,1,4,2020-04-29T20:06:26-07:00,4.2628929615021,1,versionA_stim.csv,READVersionA.csv,"Read Version A","Relational, read only version A",,,,,,0,Instruct,User,-,"You will now begin the experiment. Press ENTER when you are ready to begin.",,Instruct000,3565,,,-1,-1,,,,1
w10007153_kab,f2rv34s3rj,Relational_NO_JOL,1,5,2020-04-29T20:06:29-07:00,3.8506879806519,1,versionA_stim.csv,READVersionA.csv,"Read Version A","Relational, read only version A",BASEBALL,CATCHER,BUFFER1,Buffer,2,2,Study,User,-,,Study/JOL,BUFFER,3230,,,-1,-1,,,,1
w10007153_kab,f2rv34s3rj,Relational_NO_JOL,1,6,2020-04-29T20:06:32-07:00,2.7411561012268,1,versionA_stim.csv,READVersionA.csv,"Read Version A","Relational, read only version A",PEANUT,BUTTER,BUFFER1,Buffer,3,4,Study,User,-,,Study/JOL,BUFFER,1926,,,-1,-1,,,,1
w10007153_kab,f2rv34s3rj,Relational_NO_JOL,1,7,2020-04-29T20:06:37-07:00,4.689845085144,1,versionA_stim.csv,READVersionA.csv,"Read Version A","Relational, read only version A",SCARE,HIDE,BUFFER1,Buffer,4,5,Study,User,-,,Study/JOL,BUFFER,4067,,,-1,-1,,,,1
w10007153_kab,f2rv34s3rj,Relational_NO_JOL,1,8,2020-04-29T20:06:42-07:00,5.3816609382629,1,versionA_stim.csv,READVersionA.csv,"Read Version A","Relational, read only version A",TREES,GREEN,BUFFER1,Buffer,1,6,Study,User,-,,Study/JOL,BUFFER,4701,,,-1,-1,,,,1
w10007153_kab,f2rv34s3rj,Relational_NO_JOL,1,9,2020-04-29T20:06:46-07:00,3.3395309448242,1,versionA_stim.csv,READVersionA.csv,"Read Version A","Relational, read only version A",SPACE,JAM,BUFFER1,Buffer,5,3,Study,User,-,,Study/JOL,BUFFER,2696,,,-1,-1,,,,1
w10007153_kab,f2rv34s3rj,Relational_NO_JOL,1,10,2020-04-29T20:06:48-07:00,2.6990430355072,1,versionA_stim.csv,READVersionA.csv,"Read Version A","Relational, read only version A",MACHINE,POSITION,Study1,U,76,43,Study,User,-,,Study/JOL,"Study Phase",1363,,,-1,-1,,,,1
w10007153_kab,f2rv34s3rj,Relational_NO_JOL,1,11,2020-04-29T20:07:08-07:00,20.112634897232,1,versionA_stim.csv,READVersionA.csv,"Read Version A","Relational, read only version A",HERD,COW,Study1,F,22,65,Study,User,-,,Study/JOL,"Study Phase",1627,,,-1,-1,,,,1
w10007153_kab,f2rv34s3rj,Relational_NO_JOL,1,12,2020-04-29T20:07:10-07:00,1.8559181690216,1,versionA_stim.csv,READVersionA.csv,"Read Version A","Relational, read only version A",CASH,WOULD,Study1,U,83,61,Study,User,-,,Study/JOL,"Study Phase",1170,,,-1,-1,,,,1
w10007153_kab,f2rv34s3rj,Relational_NO_JOL,1,13,2020-04-29T20:07:14-07:00,3.3634889125824,1,versionA_stim.csv,READVersionA.csv,"Read Version A","Relational, read only version A",PUSHER,CLUTTER,Study1,U,66,82,Study,User,-,,Study/JOL,"Study Phase",2670,,,-1,-1,,,,1
w10007153_kab,f2rv34s3rj,Relational_NO_JOL,1,14,2020-04-29T20:07:18-07:00,3.9975960254669,1,versionA_stim.csv,READVersionA.csv,"Read Version A","Relational, read only version A",DRINK,SIP,Study1,B,27,37,Study,User,-,,Study/JOL,"Study Phase",3281,,,-1,-1,,,,1
w10007153_kab,f2rv34s3rj,Relational_NO_JOL,1,15,2020-04-29T20:07:22-07:00,4.73992395401,1,versionA_stim.csv,READVersionA.csv,"Read Version A","Relational, read only version A",SUGAR,RIDDLE,Study1,U,81,48,Study,User,-,,Study/JOL,"Study Phase",4119,,,-1,-1,,,,1
w10007153_kab,f2rv34s3rj,Relational_NO_JOL,1,16,2020-04-29T20:07:25-07:00,2.2582919597626,1,versionA_stim.csv,READVersionA.csv,"Read Version A","Relational, read only version A",WAY,OUT,Study1,F,16,14,Study,User,-,,Study/JOL,"Study Phase",1604,,,-1,-1,,,,1
w10007153_kab,f2rv34s3rj,Relational_NO_JOL,1,17,2020-04-29T20:07:27-07:00,2.4155840873718,1,versionA_stim.csv,READVersionA.csv,"Read Version A","Relational, read only version A",HONEY,BEE,Study1,S,63,30,Study,User,-,,Study/JOL,"Study Phase",1793,,,-1,-1,,,,1
w10007153_kab,f2rv34s3rj,Relational_NO_JOL,1,18,2020-04-29T20:07:29-07:00,2.4461801052094,1,versionA_stim.csv,READVersionA.csv,"Read Version A","Relational, read only version A",FULL,ENOUGH,Study1,B,26,46,Study,User,-,,Study/JOL,"Study Phase",1825,,,-1,-1,,,,1
w10007153_kab,f2rv34s3rj,Relational_NO_JOL,1,19,2020-04-29T20:07:32-07:00,2.1366958618164,1,versionA_stim.csv,READVersionA.csv,"Read Version A","Relational, read only version A",HOT,CHILI,Study1,B,37,18,Study,User,-,,Study/JOL,"Study Phase",1450,,,-1,-1,,,,1
w10007153_kab,f2rv34s3rj,Relational_NO_JOL,1,20,2020-04-29T20:07:39-07:00,7.3394811153412,1,versionA_stim.csv,READVersionA.csv,"Read Version A","Relational, read only version A",STRONG,ACCIDENT,Study1,U,80,21,Study,User,-,,Study/JOL,"Study Phase",6715,,,-1,-1,,,,1
w10007153_kab,f2rv34s3rj,Relational_NO_JOL,1,21,2020-04-29T20:07:42-07:00,2.8666009902954,1,versionA_stim.csv,READVersionA.csv,"Read Version A","Relational, read only version A",ART,LION,Study1,U,79,55,Study,User,-,,Study/JOL,"Study Phase",2252,,,-1,-1,,,,1
w10007153_kab,f2rv34s3rj,Relational_NO_JOL,1,22,2020-04-29T20:07:45-07:00,2.9821228981018,1,versionA_stim.csv,READVersionA.csv,"Read Version A","Relational, read only version A",REVOLUTION,WAR,Study1,F,20,13,Study,User,-,,Study/JOL,"Study Phase",2308,,,-1,-1,,,,1
w10007153_kab,f2rv34s3rj,Relational_NO_JOL,1,23,2020-04-29T20:07:47-07:00,2.3623359203339,1,versionA_stim.csv,READVersionA.csv,"Read Version A","Relational, read only version A",DEATH,BUSINESS,Study1,U,72,72,Study,User,-,,Study/JOL,"Study Phase",1734,,,-1,-1,,,,1
w10007153_kab,f2rv34s3rj,Relational_NO_JOL,1,24,2020-04-29T20:07:49-07:00,1.6912372112274,1,versionA_stim.csv,READVersionA.csv,"Read Version A","Relational, read only version A",HIDE,SICK,Study1,U,84,69,Study,User,-,,Study/JOL,"Study Phase",1111,,,-1,-1,,,,1
w10007153_kab,f2rv34s3rj,Relational_NO_JOL,1,25,2020-04-29T20:07:50-07:00,1.5871908664703,1,versionA_stim.csv,READVersionA.csv,"Read Version A","Relational, read only version A",PAST,FUTURE,Study1,S,61,60,Study,User,-,,Study/JOL,"Study Phase",880,,,-1,-1,,,,1
w10007153_kab,f2rv34s3rj,Relational_NO_JOL,1,26,2020-04-29T20:07:52-07:00,1.3838860988617,1,versionA_stim.csv,READVersionA.csv,"Read Version A","Relational, read only version A",HUNGER,FAMINE,Study1,B,40,20,Study,User,-,,Study/JOL,"Study Phase",805,,,-1,-1,,,,1
w10007153_kab,f2rv34s3rj,Relational_NO_JOL,1,27,2020-04-29T20:07:54-07:00,1.894052028656,1,versionA_stim.csv,READVersionA.csv,"Read Version A","Relational, read only version A",DIGESTION,STOMACH,Study1,F,7,56,Study,User,-,,Study/JOL,"Study Phase",1283,,,-1,-1,,,,1
w10007153_kab,f2rv34s3rj,Relational_NO_JOL,1,28,2020-04-29T20:07:55-07:00,1.4897890090942,1,versionA_stim.csv,READVersionA.csv,"Read Version A","Relational, read only version A",TAKE,SEIZE,Study1,B,29,70,Study,User,-,,Study/JOL,"Study Phase",854,,,-1,-1,,,,1
w10007153_kab,f2rv34s3rj,Relational_NO_JOL,1,29,2020-04-29T20:07:56-07:00,1.2138760089874,1,versionA_stim.csv,READVersionA.csv,"Read Version A","Relational, read only version A",SHOE,FOOT,Study1,S,60,29,Study,User,-,,Study/JOL,"Study Phase",600,,,-1,-1,,,,1
w10007153_kab,f2rv34s3rj,Relational_NO_JOL,1,30,2020-04-29T20:07:58-07:00,1.5352938175201,1,versionA_stim.csv,READVersionA.csv,"Read Version A","Relational, read only version A",ALLOW,TUCK,Study1,U,78,50,Study,User,-,,Study/JOL,"Study Phase",540,,,-1,-1,,,,1
w10007153_kab,f2rv34s3rj,Relational_NO_JOL,1,31,2020-04-29T20:08:01-07:00,3.3544120788574,1,versionA_stim.csv,READVersionA.csv,"Read Version A","Relational, read only version A",BUG,WASP,Study1,B,32,71,Study,User,-,,Study/JOL,"Study Phase",2730,,,-1,-1,,,,1
w10007153_kab,f2rv34s3rj,Relational_NO_JOL,1,32,2020-04-29T20:08:04-07:00,2.2281639575958,1,versionA_stim.csv,READVersionA.csv,"Read Version A","Relational, read only version A",HEIGHT,GROWTH,Study1,B,30,16,Study,User,-,,Study/JOL,"Study Phase",1571,,,-1,-1,,,,1
w10007153_kab,f2rv34s3rj,Relational_NO_JOL,1,33,2020-04-29T20:08:05-07:00,1.3714909553528,1,versionA_stim.csv,READVersionA.csv,"Read Version A","Relational, read only version A",LAW,ATTORNEY,Study1,B,34,38,Study,User,-,,Study/JOL,"Study Phase",720,,,-1,-1,,,,1
w10007153_kab,f2rv34s3rj,Relational_NO_JOL,1,34,2020-04-29T20:08:07-07:00,1.6223599910736,1,versionA_stim.csv,READVersionA.csv,"Read Version A","Relational, read only version A",BRIDGE,WATER,Study1,F,18,27,Study,User,-,,Study/JOL,"Study Phase",1008,,,-1,-1,,,,1
w10007153_kab,f2rv34s3rj,Relational_NO_JOL,1,35,2020-04-29T20:08:09-07:00,1.9779450893402,1,versionA_stim.csv,READVersionA.csv,"Read Version A","Relational, read only version A",ROOT,PLANT,Study1,F,13,7,Study,User,-,,Study/JOL,"Study Phase",1260,,,-1,-1,,,,1
w10007153_kab,f2rv34s3rj,Relational_NO_JOL,1,36,2020-04-29T20:08:10-07:00,1.6759979724884,1,versionA_stim.csv,READVersionA.csv,"Read Version A","Relational, read only version A",DELINQUENT,BAD,Study1,F,6,63,Study,User,-,,Study/JOL,"Study Phase",999,,,-1,-1,,,,1
w10007153_kab,f2rv34s3rj,Relational_NO_JOL,1,37,2020-04-29T20:08:13-07:00,2.3074460029602,1,versionA_stim.csv,READVersionA.csv,"Read Version A","Relational, read only version A",BABY,CHILD,Study1,S,64,12,Study,User,-,,Study/JOL,"Study Phase",1052,,,-1,-1,,,,1
w10007153_kab,f2rv34s3rj,Relational_NO_JOL,1,38,2020-04-29T20:08:14-07:00,1.5824229717255,1,versionA_stim.csv,READVersionA.csv,"Read Version A","Relational, read only version A",ARCHITECTURE,DESIGN,Study1,S,51,78,Study,User,-,,Study/JOL,"Study Phase",937,,,-1,-1,,,,1
w10007153_kab,f2rv34s3rj,Relational_NO_JOL,1,39,2020-04-29T20:08:16-07:00,1.9217700958252,1,versionA_stim.csv,READVersionA.csv,"Read Version A","Relational, read only version A",DISCUSSION,TALK,Study1,F,21,85,Study,User,-,,Study/JOL,"Study Phase",1277,,,-1,-1,,,,1
w10007153_kab,f2rv34s3rj,Relational_NO_JOL,1,40,2020-04-29T20:08:18-07:00,1.7829239368439,1,versionA_stim.csv,READVersionA.csv,"Read Version A","Relational, read only version A",DUE,ASSIGNMENT,Study1,S,46,36,Study,User,-,,Study/JOL,"Study Phase",1148,,,-1,-1,,,,1
w10007153_kab,f2rv34s3rj,Relational_NO_JOL,1,41,2020-04-29T20:08:19-07:00,1.4332411289215,1,versionA_stim.csv,READVersionA.csv,"Read Version A","Relational, read only version A",KEY,LATCH,Study1,B,36,39,Study,User,-,,Study/JOL,"Study Phase",828,,,-1,-1,,,,1
w10007153_kab,f2rv34s3rj,Relational_NO_JOL,1,42,2020-04-29T20:08:21-07:00,1.7095279693604,1,versionA_stim.csv,READVersionA.csv,"Read Version A","Relational, read only version A",BALL,RACKET,Study1,B,38,51,Study,User,-,,Study/JOL,"Study Phase",1074,,,-1,-1,,,,1
w10007153_kab,f2rv34s3rj,Relational_NO_JOL,1,43,2020-04-29T20:08:23-07:00,1.7528538703918,1,versionA_stim.csv,READVersionA.csv,"Read Version A","Relational, read only version A",MATH,DIVISION,Study1,B,33,73,Study,User,-,,Study/JOL,"Study Phase",1089,,,-1,-1,,,,1
w10007153_kab,f2rv34s3rj,Relational_NO_JOL,1,44,2020-04-29T20:08:28-07:00,5.21564412117,1,versionA_stim.csv,READVersionA.csv,"Read Version A","Relational, read only version A",,,,,,0,Instruct,-,3,"Remember to focus on how the two items are similiar while you study!",,CHECK2,4624,,,-1,-1,,,,1
w10007153_kab,f2rv34s3rj,Relational_NO_JOL,1,45,2020-04-29T20:08:30-07:00,2.3723118305206,1,versionA_stim.csv,READVersionA.csv,"Read Version A","Relational, read only version A",SLEEP,DROWSY,Study1,B,41,52,Study,User,-,,Study/JOL,"Study Phase",1721,,,-1,-1,,,,1
w10007153_kab,f2rv34s3rj,Relational_NO_JOL,1,46,2020-04-29T20:08:33-07:00,2.2689549922943,1,versionA_stim.csv,READVersionA.csv,"Read Version A","Relational, read only version A",CREDIT,CARD,Study1,F,23,32,Study,User,-,,Study/JOL,"Study Phase",1620,,,-1,-1,,,,1
w10007153_kab,f2rv34s3rj,Relational_NO_JOL,1,47,2020-04-29T20:08:39-07:00,6.757392168045,1,versionA_stim.csv,READVersionA.csv,"Read Version A","Relational, read only version A",DISCOVER,FLOOR,Study1,U,71,34,Study,User,-,,Study/JOL,"Study Phase",5724,,,-1,-1,,,,1
w10007153_kab,f2rv34s3rj,Relational_NO_JOL,1,48,2020-04-29T20:08:45-07:00,6.152382850647,1,versionA_stim.csv,READVersionA.csv,"Read Version A","Relational, read only version A",TUNA,FISH,Study1,F,25,42,Study,User,-,,Study/JOL,"Study Phase",3861,,,-1,-1,,,,1
w10007153_kab,f2rv34s3rj,Relational_NO_JOL,1,49,2020-04-29T20:08:50-07:00,5.0093832015991,1,versionA_stim.csv,READVersionA.csv,"Read Version A","Relational, read only version A",HAPPY,CAR,Study1,U,77,68,Study,User,-,,Study/JOL,"Study Phase",4359,,,-1,-1,,,,1
w10007153_kab,f2rv34s3rj,Relational_NO_JOL,1,50,2020-04-29T20:08:53-07:00,2.2849857807159,1,versionA_stim.csv,READVersionA.csv,"Read Version A","Relational, read only version A",TRIAL,JURY,Study1,S,50,54,Study,User,-,,Study/JOL,"Study Phase",1667,,,-1,-1,,,,1
w10007153_kab,f2rv34s3rj,Relational_NO_JOL,1,51,2020-04-29T20:08:56-07:00,3.1561100482941,1,versionA_stim.csv,READVersionA.csv,"Read Version A","Relational, read only version A",CIRCLE,ROUND,Study1,S,65,62,Study,User,-,,Study/JOL,"Study Phase",2511,,,-1,-1,,,,1
w10007153_kab,f2rv34s3rj,Relational_NO_JOL,1,52,2020-04-29T20:08:58-07:00,2.4259669780731,1,versionA_stim.csv,READVersionA.csv,"Read Version A","Relational, read only version A",CLOTHES,ATTIRE,Study1,B,43,76,Study,User,-,,Study/JOL,"Study Phase",1768,,,-1,-1,,,,1
w10007153_kab,f2rv34s3rj,Relational_NO_JOL,1,53,2020-04-29T20:09:01-07:00,2.6750710010529,1,versionA_stim.csv,READVersionA.csv,"Read Version A","Relational, read only version A",BITTER,COLD,Study1,F,12,58,Study,User,-,,Study/JOL,"Study Phase",1968,,,-1,-1,,,,1
w10007153_kab,f2rv34s3rj,Relational_NO_JOL,1,54,2020-04-29T20:09:03-07:00,1.6853749752045,1,versionA_stim.csv,READVersionA.csv,"Read Version A","Relational, read only version A",LETTUCE,SALAD,Study1,S,59,64,Study,User,-,,Study/JOL,"Study Phase",1052,,,-1,-1,,,,1
w10007153_kab,f2rv34s3rj,Relational_NO_JOL,1,55,2020-04-29T20:09:05-07:00,1.85595703125,1,versionA_stim.csv,READVersionA.csv,"Read Version A","Relational, read only version A",PLANE,PILOT,Study1,B,44,17,Study,User,-,,Study/JOL,"Study Phase",1231,,,-1,-1,,,,1
w10007153_kab,f2rv34s3rj,Relational_NO_JOL,1,56,2020-04-29T20:09:07-07:00,2.198783159256,1,versionA_stim.csv,READVersionA.csv,"Read Version A","Relational, read only version A",PARK,HUNGRY,Study1,U,68,25,Study,User,-,,Study/JOL,"Study Phase",1590,,,-1,-1,,,,1
w10007153_kab,f2rv34s3rj,Relational_NO_JOL,1,57,2020-04-29T20:09:09-07:00,2.549870967865,1,versionA_stim.csv,READVersionA.csv,"Read Version A","Relational, read only version A",DIETARY,SACKING,Study1,U,67,35,Study,User,-,,Study/JOL,"Study Phase",1774,,,-1,-1,,,,1
w10007153_kab,f2rv34s3rj,Relational_NO_JOL,1,58,2020-04-29T20:09:13-07:00,3.3188219070435,1,versionA_stim.csv,READVersionA.csv,"Read Version A","Relational, read only version A",ORCHID,FLOWER,Study1,F,24,24,Study,User,-,,Study/JOL,"Study Phase",2728,,,-1,-1,,,,1
w10007153_kab,f2rv34s3rj,Relational_NO_JOL,1,59,2020-04-29T20:09:14-07:00,1.7680721282959,1,versionA_stim.csv,READVersionA.csv,"Read Version A","Relational, read only version A",GREAT,FANTASTIC,Study1,B,35,81,Study,User,-,,Study/JOL,"Study Phase",1100,,,-1,-1,,,,1
w10007153_kab,f2rv34s3rj,Relational_NO_JOL,1,60,2020-04-29T20:09:17-07:00,2.1881039142609,1,versionA_stim.csv,READVersionA.csv,"Read Version A","Relational, read only version A",NUMBER,AMOUNT,Study1,S,47,83,Study,User,-,,Study/JOL,"Study Phase",1502,,,-1,-1,,,,1
w10007153_kab,f2rv34s3rj,Relational_NO_JOL,1,61,2020-04-29T20:09:19-07:00,2.2573809623718,1,versionA_stim.csv,READVersionA.csv,"Read Version A","Relational, read only version A",LIFT,WOMAN,Study1,U,69,8,Study,User,-,,Study/JOL,"Study Phase",1622,,,-1,-1,,,,1
w10007153_kab,f2rv34s3rj,Relational_NO_JOL,1,62,2020-04-29T20:09:21-07:00,1.7055749893188,1,versionA_stim.csv,READVersionA.csv,"Read Version A","Relational, read only version A",ARTERY,BRONZE,Study1,U,74,75,Study,User,-,,Study/JOL,"Study Phase",1121,,,-1,-1,,,,1
w10007153_kab,f2rv34s3rj,Relational_NO_JOL,1,63,2020-04-29T20:09:23-07:00,2.4544770717621,1,versionA_stim.csv,READVersionA.csv,"Read Version A","Relational, read only version A",SMELL,STENCH,Study1,B,42,57,Study,User,-,,Study/JOL,"Study Phase",1699,,,-1,-1,,,,1
w10007153_kab,f2rv34s3rj,Relational_NO_JOL,1,64,2020-04-29T20:09:26-07:00,2.5816850662231,1,versionA_stim.csv,READVersionA.csv,"Read Version A","Relational, read only version A",VALLEY,ADD,Study1,U,82,28,Study,User,-,,Study/JOL,"Study Phase",1935,,,-1,-1,,,,1
w10007153_kab,f2rv34s3rj,Relational_NO_JOL,1,65,2020-04-29T20:09:29-07:00,2.9698839187622,1,versionA_stim.csv,READVersionA.csv,"Read Version A","Relational, read only version A",FIRE,BLAZE,Study1,B,45,49,Study,User,-,,Study/JOL,"Study Phase",2363,,,-1,-1,,,,1
w10007153_kab,f2rv34s3rj,Relational_NO_JOL,1,66,2020-04-29T20:09:31-07:00,2.8585360050201,1,versionA_stim.csv,READVersionA.csv,"Read Version A","Relational, read only version A",KIDNEY,LIVER,Study1,S,53,40,Study,User,-,,Study/JOL,"Study Phase",2169,,,-1,-1,,,,1
w10007153_kab,f2rv34s3rj,Relational_NO_JOL,1,67,2020-04-29T20:09:33-07:00,1.9075930118561,1,versionA_stim.csv,READVersionA.csv,"Read Version A","Relational, read only version A",SOON,BELT,Study1,U,70,79,Study,User,-,,Study/JOL,"Study Phase",1282,,,-1,-1,,,,1
w10007153_kab,f2rv34s3rj,Relational_NO_JOL,1,68,2020-04-29T20:09:35-07:00,1.4366579055786,1,versionA_stim.csv,READVersionA.csv,"Read Version A","Relational, read only version A",PAW,DOG,Study1,F,15,53,Study,User,-,,Study/JOL,"Study Phase",869,,,-1,-1,,,,1
w10007153_kab,f2rv34s3rj,Relational_NO_JOL,1,69,2020-04-29T20:09:36-07:00,1.6443021297455,1,versionA_stim.csv,READVersionA.csv,"Read Version A","Relational, read only version A",MEANING,DEFINITION,Study1,S,62,22,Study,User,-,,Study/JOL,"Study Phase",1060,,,-1,-1,,,,1
w10007153_kab,f2rv34s3rj,Relational_NO_JOL,1,70,2020-04-29T20:09:38-07:00,1.4262700080872,1,versionA_stim.csv,READVersionA.csv,"Read Version A","Relational, read only version A",BLOW,WIND,Study1,S,55,11,Study,User,-,,Study/JOL,"Study Phase",780,,,-1,-1,,,,1
w10007153_kab,f2rv34s3rj,Relational_NO_JOL,1,71,2020-04-29T20:09:39-07:00,1.410698890686,1,versionA_stim.csv,READVersionA.csv,"Read Version A","Relational, read only version A",DARK,CAVE,Study1,B,28,41,Study,User,-,,Study/JOL,"Study Phase",772,,,-1,-1,,,,1
w10007153_kab,f2rv34s3rj,Relational_NO_JOL,1,72,2020-04-29T20:09:41-07:00,1.6807570457458,1,versionA_stim.csv,READVersionA.csv,"Read Version A","Relational, read only version A",SWAN,BIRD,Study1,F,14,86,Study,User,-,,Study/JOL,"Study Phase",806,,,-1,-1,,,,1
w10007153_kab,f2rv34s3rj,Relational_NO_JOL,1,73,2020-04-29T20:09:42-07:00,1.4751029014587,1,versionA_stim.csv,READVersionA.csv,"Read Version A","Relational, read only version A",POP,SODA,Study1,S,56,59,Study,User,-,,Study/JOL,"Study Phase",782,,,-1,-1,,,,1
w10007153_kab,f2rv34s3rj,Relational_NO_JOL,1,74,2020-04-29T20:09:44-07:00,1.3932161331177,1,versionA_stim.csv,READVersionA.csv,"Read Version A","Relational, read only version A",HORNET,STING,Study1,F,11,45,Study,User,-,,Study/JOL,"Study Phase",738,,,-1,-1,,,,1
w10007153_kab,f2rv34s3rj,Relational_NO_JOL,1,75,2020-04-29T20:09:45-07:00,1.306783914566,1,versionA_stim.csv,READVersionA.csv,"Read Version A","Relational, read only version A",LOCATION,SITE,Study1,S,48,77,Study,User,-,,Study/JOL,"Study Phase",719,,,-1,-1,,,,1
w10007153_kab,f2rv34s3rj,Relational_NO_JOL,1,76,2020-04-29T20:09:47-07:00,1.4251940250397,1,versionA_stim.csv,READVersionA.csv,"Read Version A","Relational, read only version A",KING,VASE,Study1,U,85,44,Study,User,-,,Study/JOL,"Study Phase",867,,,-1,-1,,,,1
w10007153_kab,f2rv34s3rj,Relational_NO_JOL,1,77,2020-04-29T20:09:48-07:00,1.4213590621948,1,versionA_stim.csv,READVersionA.csv,"Read Version A","Relational, read only version A",GRILL,BAR,Study1,S,52,47,Study,User,-,,Study/JOL,"Study Phase",723,,,-1,-1,,,,1
w10007153_kab,f2rv34s3rj,Relational_NO_JOL,1,78,2020-04-29T20:09:49-07:00,1.4263808727264,1,versionA_stim.csv,READVersionA.csv,"Read Version A","Relational, read only version A",DUMP,WASTE,Study1,S,49,26,Study,User,-,,Study/JOL,"Study Phase",801,,,-1,-1,,,,1
w10007153_kab,f2rv34s3rj,Relational_NO_JOL,1,79,2020-04-29T20:09:51-07:00,1.5706391334534,1,versionA_stim.csv,READVersionA.csv,"Read Version A","Relational, read only version A",GEOLOGY,ROCK,Study1,F,19,84,Study,User,-,,Study/JOL,"Study Phase",917,,,-1,-1,,,,1
w10007153_kab,f2rv34s3rj,Relational_NO_JOL,1,80,2020-04-29T20:09:52-07:00,1.5190100669861,1,versionA_stim.csv,READVersionA.csv,"Read Version A","Relational, read only version A",EDITOR,NEWS,Study1,F,10,9,Study,User,-,,Study/JOL,"Study Phase",927,,,-1,-1,,,,1
w10007153_kab,f2rv34s3rj,Relational_NO_JOL,1,81,2020-04-29T20:09:54-07:00,1.1841268539429,1,versionA_stim.csv,READVersionA.csv,"Read Version A","Relational, read only version A",CHISEL,HAMMER,Study1,F,9,23,Study,User,-,,Study/JOL,"Study Phase",593,,,-1,-1,,,,1
w10007153_kab,f2rv34s3rj,Relational_NO_JOL,1,82,2020-04-29T20:09:55-07:00,1.2267551422119,1,versionA_stim.csv,READVersionA.csv,"Read Version A","Relational, read only version A",FIX,HAND,Study1,U,75,19,Study,User,-,,Study/JOL,"Study Phase",541,,,-1,-1,,,,1
w10007153_kab,f2rv34s3rj,Relational_NO_JOL,1,83,2020-04-29T20:09:56-07:00,1.5977668762207,1,versionA_stim.csv,READVersionA.csv,"Read Version A","Relational, read only version A",SENTENCE,WORD,Study1,B,31,67,Study,User,-,,Study/JOL,"Study Phase",906,,,-1,-1,,,,1
w10007153_kab,f2rv34s3rj,Relational_NO_JOL,1,84,2020-04-29T20:09:58-07:00,1.4113171100616,1,versionA_stim.csv,READVersionA.csv,"Read Version A","Relational, read only version A",BEGIN,END,Study1,S,54,66,Study,User,-,,Study/JOL,"Study Phase",809,,,-1,-1,,,,1
w10007153_kab,f2rv34s3rj,Relational_NO_JOL,1,85,2020-04-29T20:09:59-07:00,1.5090689659119,1,versionA_stim.csv,READVersionA.csv,"Read Version A","Relational, read only version A",DEBATE,SIGHT,Study1,U,73,10,Study,User,-,,Study/JOL,"Study Phase",895,,,-1,-1,,,,1
w10007153_kab,f2rv34s3rj,Relational_NO_JOL,1,86,2020-04-29T20:10:02-07:00,2.3210828304291,1,versionA_stim.csv,READVersionA.csv,"Read Version A","Relational, read only version A",WAGE,MONEY,Study1,F,8,74,Study,User,-,,Study/JOL,"Study Phase",1661,,,-1,-1,,,,1
w10007153_kab,f2rv34s3rj,Relational_NO_JOL,1,87,2020-04-29T20:10:04-07:00,2.0337541103363,1,versionA_stim.csv,READVersionA.csv,"Read Version A","Relational, read only version A",BATHROOM,TOILET,Study1,S,58,31,Study,User,-,,Study/JOL,"Study Phase",1286,,,-1,-1,,,,1
w10007153_kab,f2rv34s3rj,Relational_NO_JOL,1,88,2020-04-29T20:10:05-07:00,1.6458220481873,1,versionA_stim.csv,READVersionA.csv,"Read Version A","Relational, read only version A",WORK,CHORE,Study1,B,39,15,Study,User,-,,Study/JOL,"Study Phase",1001,,,-1,-1,,,,1
w10007153_kab,f2rv34s3rj,Relational_NO_JOL,1,89,2020-04-29T20:10:07-07:00,1.6512749195099,1,versionA_stim.csv,READVersionA.csv,"Read Version A","Relational, read only version A",WINE,CHEESE,Study1,S,57,33,Study,User,-,,Study/JOL,"Study Phase",930,,,-1,-1,,,,1
w10007153_kab,f2rv34s3rj,Relational_NO_JOL,1,90,2020-04-29T20:10:09-07:00,1.9082410335541,1,versionA_stim.csv,READVersionA.csv,"Read Version A","Relational, read only version A",HYGIENE,CLEAN,Study1,F,17,80,Study,User,-,,Study/JOL,"Study Phase",1131,,,-1,-1,,,,1
w10007153_kab,f2rv34s3rj,Relational_NO_JOL,1,91,2020-04-29T20:10:11-07:00,1.6079170703888,1,versionA_stim.csv,READVersionA.csv,"Read Version A","Relational, read only version A",SHERRIF,POLICE,BUFFER2,Buffer,87,89,Study,User,-,,Study/JOL,BUFFER2,954,,,-1,-1,,,,1
w10007153_kab,f2rv34s3rj,Relational_NO_JOL,1,92,2020-04-29T20:10:12-07:00,1.277706861496,1,versionA_stim.csv,READVersionA.csv,"Read Version A","Relational, read only version A",GEESE,GOOSE,BUFFER2,Buffer,86,90,Study,User,-,,Study/JOL,BUFFER2,647,,,-1,-1,,,,1
w10007153_kab,f2rv34s3rj,Relational_NO_JOL,1,93,2020-04-29T20:10:13-07:00,1.5367419719696,1,versionA_stim.csv,READVersionA.csv,"Read Version A","Relational, read only version A",MALT,CHOCOLATE,BUFFER2,Buffer,88,91,Study,User,-,,Study/JOL,BUFFER2,941,,,-1,-1,,,,1
w10007153_kab,f2rv34s3rj,Relational_NO_JOL,1,94,2020-04-29T20:10:15-07:00,1.5301840305328,1,versionA_stim.csv,READVersionA.csv,"Read Version A","Relational, read only version A",MOON,SPACE,BUFFER2,Buffer,89,88,Study,User,-,,Study/JOL,BUFFER2,743,,,-1,-1,,,,1
w10007153_kab,f2rv34s3rj,Relational_NO_JOL,1,95,2020-04-29T20:10:17-07:00,1.7675681114197,1,versionA_stim.csv,READVersionA.csv,"Read Version A","Relational, read only version A",THING,STUFF,BUFFER2,Buffer,90,87,Study,User,-,,Study/JOL,BUFFER2,1162,,,-1,-1,,,,1
w10007153_kab,f2rv34s3rj,Relational_NO_JOL,1,96,2020-04-29T20:10:20-07:00,3.6074650287628,1,versionA_stim.csv,READVersionA.csv,"Read Version A","Relational, read only version A",,,,,,0,Instruct,User,-,"You have completed this section. Please press Enter.",Filler_Instruction,Instruct2,2988,,,-1,-1,,,,1
w10007153_kab,f2rv34s3rj,Relational_NO_JOL,1,97,2020-04-29T20:10:23-07:00,3.030702829361,1,versionA_stim.csv,READVersionA.csv,"Read Version A","Relational, read only version A",,,,,,0,Instruct,User,-,"You have completed this section. Please press Enter.",Filler_Instruction,Instruct5,2418,,,-1,-1,,,,1
w10007153_kab,f2rv34s3rj,Relational_NO_JOL,1,98,2020-04-29T20:10:42-07:00,18.5732421875,1,versionA_stim.csv,READVersionA.csv,"Read Version A","Relational, read only version A",,,,,,0,FreeRecall,-,10,"What were you supposed to focus on while you studied each pair? (Hint: Think back to the instructions). Type your answer in the space below.",,CHECK3,17932,"How the two words are related to each other",0,7118,16472,0,0,,1
w10007153_kab,f2rv34s3rj,Relational_NO_JOL,1,99,2020-04-29T20:12:43-07:00,120.7711789608,1,versionA_stim.csv,READVersionA.csv,"Read Version A","Relational, read only version A",,,,,,0,FreeRecall,120,120,"Please list the 50 US states in alphabetical order. The task will automatically advance to the next screen after two minutes.",,Filler1,120005,"alabama alaska arizona arkansas california colorado connecticut deleware florida georgia hawaii idaho illinois indiana iowa kansas kentucky louisiana maine maryland massacusettes",0,32621,118363,0,0,,1
w10007153_kab,f2rv34s3rj,Relational_NO_JOL,1,100,2020-04-29T20:12:56-07:00,13.529183864594,1,versionA_stim.csv,READVersionA.csv,"Read Version A","Relational, read only version A",,,,,,0,Instruct,-,10,"You will now be presented with the first word from each of the previously studied item pairs. Please type the missing word. If you do not know the word, you may guess or press Enter to skip forward to the next pair.",,Instruct3,12662,,,-1,-1,,,,1
w10007153_kab,f2rv34s3rj,Relational_NO_JOL,1,101,2020-04-29T20:13:05-07:00,9.1017060279846,1,versionA_stim.csv,READVersionA.csv,"Read Version A","Relational, read only version A",SMELL,STENCH,Study1,B,42,57,Test,User,-,,Recall,Recall1,8317,stench,100,2130,7197,1,1,,1
w10007153_kab,f2rv34s3rj,Relational_NO_JOL,1,102,2020-04-29T20:13:12-07:00,6.5634801387787,1,versionA_stim.csv,READVersionA.csv,"Read Version A","Relational, read only version A",POP,SODA,Study1,S,56,59,Test,User,-,,Recall,Recall1,5842,crackle,18.181818181818,2292,4561,0,0,,1
w10007153_kab,f2rv34s3rj,Relational_NO_JOL,1,103,2020-04-29T20:13:17-07:00,5.6348979473114,1,versionA_stim.csv,READVersionA.csv,"Read Version A","Relational, read only version A",WORK,CHORE,Study1,B,39,15,Test,User,-,,Recall,Recall1,5005,study,0,2948,3776,0,0,,1
w10007153_kab,f2rv34s3rj,Relational_NO_JOL,1,104,2020-04-29T20:13:30-07:00,12.757904052734,1,versionA_stim.csv,READVersionA.csv,"Read Version A","Relational, read only version A",NUMBER,AMOUNT,Study1,S,47,83,Test,User,-,,Recall,Recall1,12076,count,72.727272727273,3146,10580,0,0,,1
w10007153_kab,f2rv34s3rj,Relational_NO_JOL,1,105,2020-04-29T20:13:38-07:00,7.6471929550171,1,versionA_stim.csv,READVersionA.csv,"Read Version A","Relational, read only version A",DARK,CAVE,Study1,B,28,41,Test,User,-,,Recall,Recall1,6912,Light,0,5088,5757,0,0,,1
w10007153_kab,f2rv34s3rj,Relational_NO_JOL,1,106,2020-04-29T20:13:45-07:00,6.9829950332642,1,versionA_stim.csv,READVersionA.csv,"Read Version A","Relational, read only version A",CASH,WOULD,Study1,U,83,61,Test,User,-,,Recall,Recall1,6336,earn,0,4576,5223,0,0,,1
w10007153_kab,f2rv34s3rj,Relational_NO_JOL,1,107,2020-04-29T20:13:50-07:00,4.9038729667664,1,versionA_stim.csv,READVersionA.csv,"Read Version A","Relational, read only version A",ORCHID,FLOWER,Study1,F,24,24,Test,User,-,,Recall,Recall1,4118,tree,20,2553,3133,0,0,,1
w10007153_kab,f2rv34s3rj,Relational_NO_JOL,1,108,2020-04-29T20:14:03-07:00,13.652231931686,1,versionA_stim.csv,READVersionA.csv,"Read Version A","Relational, read only version A",BABY,CHILD,Study1,S,64,12,Test,User,-,,Recall,Recall1,12929,infant,18.181818181818,10002,11758,0,0,,1
w10007153_kab,f2rv34s3rj,Relational_NO_JOL,1,109,2020-04-29T20:14:10-07:00,6.7234370708466,1,versionA_stim.csv,READVersionA.csv,"Read Version A","Relational, read only version A",CIRCLE,ROUND,Study1,S,65,62,Test,User,-,,Recall,Recall1,5935,round,100,3825,4509,1,1,,1
w10007153_kab,f2rv34s3rj,Relational_NO_JOL,1,110,2020-04-29T20:14:16-07:00,6.1372358798981,1,versionA_stim.csv,READVersionA.csv,"Read Version A","Relational, read only version A",WINE,CHEESE,Study1,S,57,33,Test,User,-,,Recall,Recall1,5277,cheese,100,1175,2078,1,1,,1
w10007153_kab,f2rv34s3rj,Relational_NO_JOL,1,111,2020-04-29T20:14:26-07:00,9.8453640937805,1,versionA_stim.csv,READVersionA.csv,"Read Version A","Relational, read only version A",ART,LION,Study1,U,79,55,Test,User,-,,Recall,Recall1,9115,draw,0,4325,6818,0,0,,1
w10007153_kab,f2rv34s3rj,Relational_NO_JOL,1,112,2020-04-29T20:14:39-07:00,13.022295951843,1,versionA_stim.csv,READVersionA.csv,"Read Version A","Relational, read only version A",DRINK,SIP,Study1,B,27,37,Test,User,-,,Recall,Recall1,12078,"quench ",0,5287,10801,0,0,,1
w10007153_kab,f2rv34s3rj,Relational_NO_JOL,1,113,2020-04-29T20:14:44-07:00,5.0878169536591,1,versionA_stim.csv,READVersionA.csv,"Read Version A","Relational, read only version A",MATH,DIVISION,Study1,B,33,73,Test,User,-,,Recall,Recall1,4232,study,15.384615384615,1836,2716,0,0,,1
w10007153_kab,f2rv34s3rj,Relational_NO_JOL,1,114,2020-04-29T20:14:50-07:00,5.736485004425,1,versionA_stim.csv,READVersionA.csv,"Read Version A","Relational, read only version A",PARK,HUNGRY,Study1,U,68,25,Test,User,-,,Recall,Recall1,5004,play,20,2127,3755,0,0,,1
w10007153_kab,f2rv34s3rj,Relational_NO_JOL,1,115,2020-04-29T20:14:58-07:00,8.2682151794434,1,versionA_stim.csv,READVersionA.csv,"Read Version A","Relational, read only version A",BITTER,COLD,Study1,F,12,58,Test,User,-,,Recall,Recall1,7507,sour,25,5534,6216,0,0,,1
w10007153_kab,f2rv34s3rj,Relational_NO_JOL,1,116,2020-04-29T20:15:07-07:00,8.3702018260956,1,versionA_stim.csv,READVersionA.csv,"Read Version A","Relational, read only version A",BALL,RACKET,Study1,B,38,51,Test,User,-,,Recall,Recall1,7693,idk,22.222222222222,6189,6499,0,0,,1
w10007153_kab,f2rv34s3rj,Relational_NO_JOL,1,117,2020-04-29T20:15:12-07:00,5.4055199623108,1,versionA_stim.csv,READVersionA.csv,"Read Version A","Relational, read only version A",CREDIT,CARD,Study1,F,23,32,Test,User,-,,Recall,Recall1,4729,debt,25,3084,3577,0,0,,1
w10007153_kab,f2rv34s3rj,Relational_NO_JOL,1,118,2020-04-29T20:15:19-07:00,7.417191028595,1,versionA_stim.csv,READVersionA.csv,"Read Version A","Relational, read only version A",KING,VASE,Study1,U,85,44,Test,User,-,,Recall,Recall1,6780,crown,0,3947,5590,0,0,,1
w10007153_kab,f2rv34s3rj,Relational_NO_JOL,1,119,2020-04-29T20:15:26-07:00,6.5250370502472,1,versionA_stim.csv,READVersionA.csv,"Read Version A","Relational, read only version A",HYGIENE,CLEAN,Study1,F,17,80,Test,User,-,,Recall,Recall1,5809,dirty,0,3446,4459,0,0,,1
w10007153_kab,f2rv34s3rj,Relational_NO_JOL,1,120,2020-04-29T20:15:31-07:00,4.7563750743866,1,versionA_stim.csv,READVersionA.csv,"Read Version A","Relational, read only version A",FIRE,BLAZE,Study1,B,45,49,Test,User,-,,Recall,Recall1,4105,burn,22.222222222222,2264,2786,0,0,,1
w10007153_kab,f2rv34s3rj,Relational_NO_JOL,1,121,2020-04-29T20:15:38-07:00,7.6362860202789,1,versionA_stim.csv,READVersionA.csv,"Read Version A","Relational, read only version A",HIDE,SICK,Study1,U,84,69,Test,User,-,,Recall,Recall1,6980,seek,50,4319,5314,0,0,,1
w10007153_kab,f2rv34s3rj,Relational_NO_JOL,1,122,2020-04-29T20:15:44-07:00,5.3267250061035,1,versionA_stim.csv,READVersionA.csv,"Read Version A","Relational, read only version A",DISCUSSION,TALK,Study1,F,21,85,Test,User,-,,Recall,Recall1,4719,talking,72.727272727273,2105,3583,0,0,,1
w10007153_kab,f2rv34s3rj,Relational_NO_JOL,1,123,2020-04-29T20:15:48-07:00,4.2961750030518,1,versionA_stim.csv,READVersionA.csv,"Read Version A","Relational, read only version A",LETTUCE,SALAD,Study1,S,59,64,Test,User,-,,Recall,Recall1,3624,salad,100,1811,2592,1,1,,1
w10007153_kab,f2rv34s3rj,Relational_NO_JOL,1,124,2020-04-29T20:15:53-07:00,4.5409719944,1,versionA_stim.csv,READVersionA.csv,"Read Version A","Relational, read only version A",VALLEY,ADD,Study1,U,82,28,Test,User,-,,Recall,Recall1,3768,add,100,2422,2802,1,1,,1
w10007153_kab,f2rv34s3rj,Relational_NO_JOL,1,125,2020-04-29T20:15:59-07:00,6.8285508155823,1,versionA_stim.csv,READVersionA.csv,"Read Version A","Relational, read only version A",CHISEL,HAMMER,Study1,F,9,23,Test,User,-,,Recall,Recall1,6095,woven,18.181818181818,3709,4684,0,0,,1
w10007153_kab,f2rv34s3rj,Relational_NO_JOL,1,126,2020-04-29T20:16:05-07:00,5.8442680835724,1,versionA_stim.csv,READVersionA.csv,"Read Version A","Relational, read only version A",CLOTHES,ATTIRE,Study1,B,43,76,Test,User,-,,Recall,Recall1,5076,wear,20,2933,3756,0,0,,1
w10007153_kab,f2rv34s3rj,Relational_NO_JOL,1,127,2020-04-29T20:16:15-07:00,9.9314479827881,1,versionA_stim.csv,READVersionA.csv,"Read Version A","Relational, read only version A",HAPPY,CAR,Study1,U,77,68,Test,User,-,,Recall,Recall1,9217,sad,33.333333333333,2627,6685,0,0,,1
w10007153_kab,f2rv34s3rj,Relational_NO_JOL,1,128,2020-04-29T20:16:20-07:00,5.1325750350952,1,versionA_stim.csv,READVersionA.csv,"Read Version A","Relational, read only version A",SENTENCE,WORD,Study1,B,31,67,Test,User,-,,Recall,Recall1,4514,line,0,2783,3442,0,0,,1
w10007153_kab,f2rv34s3rj,Relational_NO_JOL,1,129,2020-04-29T20:16:29-07:00,8.9925339221954,1,versionA_stim.csv,READVersionA.csv,"Read Version A","Relational, read only version A",GREAT,FANTASTIC,Study1,B,35,81,Test,User,-,,Recall,Recall1,8327,nice,46.153846153846,4527,5233,0,0,,1
w10007153_kab,f2rv34s3rj,Relational_NO_JOL,1,130,2020-04-29T20:16:34-07:00,4.5532071590424,1,versionA_stim.csv,READVersionA.csv,"Read Version A","Relational, read only version A",BEGIN,END,Study1,S,54,66,Test,User,-,,Recall,Recall1,3661,start,0,1770,2600,0,0,,1
w10007153_kab,f2rv34s3rj,Relational_NO_JOL,1,131,2020-04-29T20:16:39-07:00,5.5312349796295,1,versionA_stim.csv,READVersionA.csv,"Read Version A","Relational, read only version A",BUG,WASP,Study1,B,32,71,Test,User,-,,Recall,Recall1,4844,critter,0,2568,3788,0,0,,1
w10007153_kab,f2rv34s3rj,Relational_NO_JOL,1,132,2020-04-29T20:16:49-07:00,9.6806039810181,1,versionA_stim.csv,READVersionA.csv,"Read Version A","Relational, read only version A",PUSHER,CLUTTER,Study1,U,66,82,Test,User,-,,Recall,Recall1,8451,puller,46.153846153846,6383,7364,0,0,,0.833
w10007153_kab,f2rv34s3rj,Relational_NO_JOL,1,133,2020-04-29T20:16:55-07:00,5.9164550304413,1,versionA_stim.csv,READVersionA.csv,"Read Version A","Relational, read only version A",EDITOR,NEWS,Study1,F,10,9,Test,User,-,,Recall,Recall1,5031,creator,18.181818181818,2403,3901,0,0,,1
w10007153_kab,f2rv34s3rj,Relational_NO_JOL,1,134,2020-04-29T20:17:01-07:00,5.6327888965607,1,versionA_stim.csv,READVersionA.csv,"Read Version A","Relational, read only version A",SUGAR,RIDDLE,Study1,U,81,48,Test,User,-,,Recall,Recall1,4968,sweet,18.181818181818,1740,2669,0,0,,1
w10007153_kab,f2rv34s3rj,Relational_NO_JOL,1,135,2020-04-29T20:17:11-07:00,10.397815942764,1,versionA_stim.csv,READVersionA.csv,"Read Version A","Relational, read only version A",ROOT,PLANT,Study1,F,13,7,Test,User,-,,Recall,Recall1,9727,soil,22.222222222222,7431,8504,0,0,,1
w10007153_kab,f2rv34s3rj,Relational_NO_JOL,1,136,2020-04-29T20:17:26-07:00,15.074098110199,1,versionA_stim.csv,READVersionA.csv,"Read Version A","Relational, read only version A",FIX,HAND,Study1,U,75,19,Test,User,-,,Recall,Recall1,14358,idk,28.571428571429,12102,13930,0,0,,1
w10007153_kab,f2rv34s3rj,Relational_NO_JOL,1,137,2020-04-29T20:17:29-07:00,2.9197700023651,1,versionA_stim.csv,READVersionA.csv,"Read Version A","Relational, read only version A",DISCOVER,FLOOR,Study1,U,71,34,Test,User,-,,Recall,Recall1,2300,find,22.222222222222,1369,1981,0,0,,1
w10007153_kab,f2rv34s3rj,Relational_NO_JOL,1,138,2020-04-29T20:17:37-07:00,8.1869549751282,1,versionA_stim.csv,READVersionA.csv,"Read Version A","Relational, read only version A",DIGESTION,STOMACH,Study1,F,7,56,Test,User,-,,Recall,Recall1,7481,eat,20,5383,7107,0,0,,1
w10007153_kab,f2rv34s3rj,Relational_NO_JOL,1,139,2020-04-29T20:17:43-07:00,5.3886430263519,1,versionA_stim.csv,READVersionA.csv,"Read Version A","Relational, read only version A",STRONG,ACCIDENT,Study1,U,80,21,Test,User,-,,Recall,Recall1,4682,large,30.769230769231,3594,4308,0,0,,1
w10007153_kab,f2rv34s3rj,Relational_NO_JOL,1,140,2020-04-29T20:17:47-07:00,4.0365579128265,1,versionA_stim.csv,READVersionA.csv,"Read Version A","Relational, read only version A",HORNET,STING,Study1,F,11,45,Test,User,-,,Recall,Recall1,3344,wasp,22.222222222222,2000,2598,0,0,,1
w10007153_kab,f2rv34s3rj,Relational_NO_JOL,1,141,2020-04-29T20:17:51-07:00,4.5346791744232,1,versionA_stim.csv,READVersionA.csv,"Read Version A","Relational, read only version A",WAY,OUT,Study1,F,16,14,Test,User,-,,Recall,Recall1,3830,where,0,2513,3277,0,0,,1
w10007153_kab,f2rv34s3rj,Relational_NO_JOL,1,142,2020-04-29T20:17:57-07:00,5.9313809871674,1,versionA_stim.csv,READVersionA.csv,"Read Version A","Relational, read only version A",DIETARY,SACKING,Study1,U,67,35,Test,User,-,,Recall,Recall1,5210,fiber,16.666666666667,4149,4913,0,0,,1
w10007153_kab,f2rv34s3rj,Relational_NO_JOL,1,143,2020-04-29T20:18:00-07:00,3.2987718582153,1,versionA_stim.csv,READVersionA.csv,"Read Version A","Relational, read only version A",DUE,ASSIGNMENT,Study1,S,46,36,Test,User,-,,Recall,Recall1,2669,date,28.571428571429,1558,2123,0,0,,1
w10007153_kab,f2rv34s3rj,Relational_NO_JOL,1,144,2020-04-29T20:18:04-07:00,4.1630511283875,1,versionA_stim.csv,READVersionA.csv,"Read Version A","Relational, read only version A",FULL,ENOUGH,Study1,B,26,46,Test,User,-,,Recall,Recall1,3537,stomach,30.769230769231,1665,2870,0,0,,1
w10007153_kab,f2rv34s3rj,Relational_NO_JOL,1,145,2020-04-29T20:18:13-07:00,8.2133250236511,1,versionA_stim.csv,READVersionA.csv,"Read Version A","Relational, read only version A",DELINQUENT,BAD,Study1,F,6,63,Test,User,-,,Recall,Recall1,7500,delusional,15.384615384615,4485,6481,0,0,,1
w10007153_kab,f2rv34s3rj,Relational_NO_JOL,1,146,2020-04-29T20:18:16-07:00,3.7683489322662,1,versionA_stim.csv,READVersionA.csv,"Read Version A","Relational, read only version A",HOT,CHILI,Study1,B,37,18,Test,User,-,,Recall,Recall1,2979,heat,22.222222222222,1977,2540,0,0,,1
w10007153_kab,f2rv34s3rj,Relational_NO_JOL,1,147,2020-04-29T20:18:23-07:00,6.6430990695953,1,versionA_stim.csv,READVersionA.csv,"Read Version A","Relational, read only version A",DUMP,WASTE,Study1,S,49,26,Test,User,-,,Recall,Recall1,5982,dip,0,4842,5540,0,0,,1
w10007153_kab,f2rv34s3rj,Relational_NO_JOL,1,148,2020-04-29T20:18:28-07:00,4.4051489830017,1,versionA_stim.csv,READVersionA.csv,"Read Version A","Relational, read only version A",HERD,COW,Study1,F,22,65,Test,User,-,,Recall,Recall1,3752,crowd,75,2120,3112,0,1,,1
w10007153_kab,f2rv34s3rj,Relational_NO_JOL,1,149,2020-04-29T20:18:32-07:00,4.6173670291901,1,versionA_stim.csv,READVersionA.csv,"Read Version A","Relational, read only version A",DEBATE,SIGHT,Study1,U,73,10,Test,User,-,,Recall,Recall1,3928,argue,20,2533,3364,0,0,,1
w10007153_kab,f2rv34s3rj,Relational_NO_JOL,1,150,2020-04-29T20:18:37-07:00,4.4001967906952,1,versionA_stim.csv,READVersionA.csv,"Read Version A","Relational, read only version A",LOCATION,SITE,Study1,S,48,77,Test,User,-,,Recall,Recall1,3744,find,25,2828,3398,0,0,,1
w10007153_kab,f2rv34s3rj,Relational_NO_JOL,1,151,2020-04-29T20:18:40-07:00,3.7610940933228,1,versionA_stim.csv,READVersionA.csv,"Read Version A","Relational, read only version A",PAW,DOG,Study1,F,15,53,Test,User,-,,Recall,Recall1,2780,print,0,1747,2381,0,0,,1
w10007153_kab,f2rv34s3rj,Relational_NO_JOL,1,152,2020-04-29T20:18:48-07:00,7.4165959358215,1,versionA_stim.csv,READVersionA.csv,"Read Version A","Relational, read only version A",SWAN,BIRD,Study1,F,14,86,Test,User,-,,Recall,Recall1,6668,swam,0,5135,6031,0,0,,1
w10007153_kab,f2rv34s3rj,Relational_NO_JOL,1,153,2020-04-29T20:18:51-07:00,3.4356820583344,1,versionA_stim.csv,READVersionA.csv,"Read Version A","Relational, read only version A",SOON,BELT,Study1,U,70,79,Test,User,-,,Recall,Recall1,2792,later,44.444444444444,1802,2521,0,0,,1
w10007153_kab,f2rv34s3rj,Relational_NO_JOL,1,154,2020-04-29T20:18:56-07:00,5.1210660934448,1,versionA_stim.csv,READVersionA.csv,"Read Version A","Relational, read only version A",BLOW,WIND,Study1,S,55,11,Test,User,-,,Recall,Recall1,4437,hole,0,3284,3874,0,0,,1
w10007153_kab,f2rv34s3rj,Relational_NO_JOL,1,155,2020-04-29T20:19:00-07:00,3.4072480201721,1,versionA_stim.csv,READVersionA.csv,"Read Version A","Relational, read only version A",GEOLOGY,ROCK,Study1,F,19,84,Test,User,-,,Recall,Recall1,2755,rock,100,1630,2171,1,1,,1
w10007153_kab,f2rv34s3rj,Relational_NO_JOL,1,156,2020-04-29T20:19:10-07:00,10.287575960159,1,versionA_stim.csv,READVersionA.csv,"Read Version A","Relational, read only version A",MEANING,DEFINITION,Study1,S,62,22,Test,User,-,,Recall,Recall1,9593,median,37.5,7521,8923,0,0,,1
w10007153_kab,f2rv34s3rj,Relational_NO_JOL,1,157,2020-04-29T20:19:14-07:00,3.9311640262604,1,versionA_stim.csv,READVersionA.csv,"Read Version A","Relational, read only version A",WAGE,MONEY,Study1,F,8,74,Test,User,-,,Recall,Recall1,3156,money,100,2001,2714,1,1,,1
w10007153_kab,f2rv34s3rj,Relational_NO_JOL,1,158,2020-04-29T20:19:21-07:00,6.6047677993774,1,versionA_stim.csv,READVersionA.csv,"Read Version A","Relational, read only version A",MACHINE,POSITION,Study1,U,76,43,Test,User,-,,Recall,Recall1,5961,work,16.666666666667,2645,5459,0,0,,1
w10007153_kab,f2rv34s3rj,Relational_NO_JOL,1,159,2020-04-29T20:19:25-07:00,4.0087940692902,1,versionA_stim.csv,READVersionA.csv,"Read Version A","Relational, read only version A",HEIGHT,GROWTH,Study1,B,30,16,Test,User,-,,Recall,Recall1,3116,length,50,1622,2443,0,0,,1
w10007153_kab,f2rv34s3rj,Relational_NO_JOL,1,160,2020-04-29T20:19:28-07:00,3.060133934021,1,versionA_stim.csv,READVersionA.csv,"Read Version A","Relational, read only version A",GRILL,BAR,Study1,S,52,47,Test,User,-,,Recall,Recall1,2358,bar,100,1628,1996,1,1,,1
w10007153_kab,f2rv34s3rj,Relational_NO_JOL,1,161,2020-04-29T20:19:32-07:00,4.5366611480713,1,versionA_stim.csv,READVersionA.csv,"Read Version A","Relational, read only version A",PLANE,PILOT,Study1,B,44,17,Test,User,-,,Recall,Recall1,3853,fly,25,2875,3399,0,0,,1
w10007153_kab,f2rv34s3rj,Relational_NO_JOL,1,162,2020-04-29T20:19:35-07:00,3.2593190670013,1,versionA_stim.csv,READVersionA.csv,"Read Version A","Relational, read only version A",HONEY,BEE,Study1,S,63,30,Test,User,-,,Recall,Recall1,2534,bee,100,1573,1866,1,1,,1
w10007153_kab,f2rv34s3rj,Relational_NO_JOL,1,163,2020-04-29T20:19:40-07:00,4.6264297962189,1,versionA_stim.csv,READVersionA.csv,"Read Version A","Relational, read only version A",TAKE,SEIZE,Study1,B,29,70,Test,User,-,,Recall,Recall1,3393,took,0,1944,2808,0,0,,1
w10007153_kab,f2rv34s3rj,Relational_NO_JOL,1,164,2020-04-29T20:19:45-07:00,4.8734731674194,1,versionA_stim.csv,READVersionA.csv,"Read Version A","Relational, read only version A",SLEEP,DROWSY,Study1,B,41,52,Test,User,-,,Recall,Recall1,4174,bed,22.222222222222,3052,3653,0,0,,1
w10007153_kab,f2rv34s3rj,Relational_NO_JOL,1,165,2020-04-29T20:19:48-07:00,3.3205900192261,1,versionA_stim.csv,READVersionA.csv,"Read Version A","Relational, read only version A",REVOLUTION,WAR,Study1,F,20,13,Test,User,-,,Recall,Recall1,2643,war,100,1795,2327,1,1,,1
w10007153_kab,f2rv34s3rj,Relational_NO_JOL,1,166,2020-04-29T20:19:53-07:00,4.9881808757782,1,versionA_stim.csv,READVersionA.csv,"Read Version A","Relational, read only version A",KEY,LATCH,Study1,B,36,39,Test,User,-,,Recall,Recall1,4301,lock,44.444444444444,3171,3695,0,0,,1
w10007153_kab,f2rv34s3rj,Relational_NO_JOL,1,167,2020-04-29T20:20:00-07:00,7.1979129314423,1,versionA_stim.csv,READVersionA.csv,"Read Version A","Relational, read only version A",DEATH,BUSINESS,Study1,U,72,72,Test,User,-,,Recall,Recall1,6448,famine,42.857142857143,4801,5793,0,0,,1
w10007153_kab,f2rv34s3rj,Relational_NO_JOL,1,168,2020-04-29T20:20:05-07:00,5.0274331569672,1,versionA_stim.csv,READVersionA.csv,"Read Version A","Relational, read only version A",PAST,FUTURE,Study1,S,61,60,Test,User,-,,Recall,Recall1,3821,present,30.769230769231,1798,3281,0,0,,1
w10007153_kab,f2rv34s3rj,Relational_NO_JOL,1,169,2020-04-29T20:20:10-07:00,4.1571838855743,1,versionA_stim.csv,READVersionA.csv,"Read Version A","Relational, read only version A",BATHROOM,TOILET,Study1,S,58,31,Test,User,-,,Recall,Recall1,3434,toilet,100,2213,3173,1,1,,1
w10007153_kab,f2rv34s3rj,Relational_NO_JOL,1,170,2020-04-29T20:20:15-07:00,5.1680541038513,1,versionA_stim.csv,READVersionA.csv,"Read Version A","Relational, read only version A",TRIAL,JURY,Study1,S,50,54,Test,User,-,,Recall,Recall1,4434,order,22.222222222222,2404,3242,0,0,,1
w10007153_kab,f2rv34s3rj,Relational_NO_JOL,1,171,2020-04-29T20:20:20-07:00,4.976814031601,1,versionA_stim.csv,READVersionA.csv,"Read Version A","Relational, read only version A",ARCHITECTURE,DESIGN,Study1,S,51,78,Test,User,-,,Recall,Recall1,4210,building,28.571428571429,1857,3984,0,0,,1
w10007153_kab,f2rv34s3rj,Relational_NO_JOL,1,172,2020-04-29T20:20:26-07:00,6.449453830719,1,versionA_stim.csv,READVersionA.csv,"Read Version A","Relational, read only version A",BRIDGE,WATER,Study1,F,18,27,Test,User,-,,Recall,Recall1,5752,accross,33.333333333333,3960,5157,0,0,,1
w10007153_kab,f2rv34s3rj,Relational_NO_JOL,1,173,2020-04-29T20:20:32-07:00,5.9383630752563,1,versionA_stim.csv,READVersionA.csv,"Read Version A","Relational, read only version A",ALLOW,TUCK,Study1,U,78,50,Test,User,-,,Recall,Recall1,5226,follow,0,3299,4872,0,0,,1
w10007153_kab,f2rv34s3rj,Relational_NO_JOL,1,174,2020-04-29T20:20:38-07:00,6.0381720066071,1,versionA_stim.csv,READVersionA.csv,"Read Version A","Relational, read only version A",LAW,ATTORNEY,Study1,B,34,38,Test,User,-,,Recall,Recall1,5357,order,46.153846153846,1518,5042,0,0,,1
w10007153_kab,f2rv34s3rj,Relational_NO_JOL,1,175,2020-04-29T20:20:42-07:00,3.4209609031677,1,versionA_stim.csv,READVersionA.csv,"Read Version A","Relational, read only version A",TUNA,FISH,Study1,F,25,42,Test,User,-,,Recall,Recall1,2701,fish,100,1513,2020,1,1,,1
w10007153_kab,f2rv34s3rj,Relational_NO_JOL,1,176,2020-04-29T20:20:47-07:00,4.9614100456238,1,versionA_stim.csv,READVersionA.csv,"Read Version A","Relational, read only version A",ARTERY,BRONZE,Study1,U,74,75,Test,User,-,,Recall,Recall1,4344,shoot,18.181818181818,2838,3809,0,0,,1
w10007153_kab,f2rv34s3rj,Relational_NO_JOL,1,177,2020-04-29T20:20:51-07:00,4.8343980312347,1,versionA_stim.csv,READVersionA.csv,"Read Version A","Relational, read only version A",HUNGER,FAMINE,Study1,B,40,20,Test,User,-,,Recall,Recall1,4133,famine,100,2254,3542,1,1,,1
w10007153_kab,f2rv34s3rj,Relational_NO_JOL,1,178,2020-04-29T20:20:58-07:00,6.6665830612183,1,versionA_stim.csv,READVersionA.csv,"Read Version A","Relational, read only version A",LIFT,WOMAN,Study1,U,69,8,Test,User,-,,Recall,Recall1,6015,heavy,20,4663,5471,0,0,,1
w10007153_kab,f2rv34s3rj,Relational_NO_JOL,1,179,2020-04-29T20:21:01-07:00,3.3946938514709,1,versionA_stim.csv,READVersionA.csv,"Read Version A","Relational, read only version A",SHOE,FOOT,Study1,S,60,29,Test,User,-,,Recall,Recall1,2667,lace,0,1820,2418,0,0,,1
w10007153_kab,f2rv34s3rj,Relational_NO_JOL,1,180,2020-04-29T20:21:06-07:00,4.1230471134186,1,versionA_stim.csv,READVersionA.csv,"Read Version A","Relational, read only version A",KIDNEY,LIVER,Study1,S,53,40,Test,User,-,,Recall,Recall1,2930,stone,20,1313,2194,0,0,,1
w10007153_kab,f2rv34s3rj,Relational_NO_JOL,1,181,2020-04-29T20:21:18-07:00,12.277472019196,1,versionA_stim.csv,READVersionA.csv,"Read Version A","Relational, read only version A",,,,,,0,Instruct,-,10,"You will now be presented with a new set of word pairs. Please study each pair. Remember that your memory will be tested! When finished, press Enter to move to the next pair.",Initial_Instruct,Instruct4,11415,,,-1,-1,,,,1
w10007153_kab,f2rv34s3rj,Relational_NO_JOL,1,182,2020-04-29T20:21:37-07:00,18.756587028503,1,versionA_stim.csv,READVersionA.csv,"Read Version A","Relational, read only version A",,,,,,0,Instruct,-,15,"As you study, please think about how the two concepts are RELATED to each other. For example, if you see the pair TURTLE-CAT, think about how both are alive, they are both animals, and both can be kept as pets.",,Instruct20,18052,,,-1,-1,,,,1
w10007153_kab,f2rv34s3rj,Relational_NO_JOL,1,183,2020-04-29T20:21:50-07:00,13.0930519104,1,versionA_stim.csv,READVersionA.csv,"Read Version A","Relational, read only version A",,,,,,0,FreeRecall,-,10,"What you should think about as you study each item pair? Type your response in the box below.",,CHECK4,12208,"how they are related",0,3413,9854,0,0,,1
w10007153_kab,f2rv34s3rj,Relational_NO_JOL,1,184,2020-04-29T20:21:52-07:00,2.8189079761505,1,versionA_stim.csv,READVersionA.csv,"Read Version A","Relational, read only version A",,,,,,0,Instruct,User,-,"Press Enter when you are readty to begin",,Instruct11,1920,,,-1,-1,,,,1
w10007153_kab,f2rv34s3rj,Relational_NO_JOL,1,185,2020-04-29T20:21:55-07:00,2.841187953949,1,versionA_stim.csv,READVersionA.csv,"Read Version A","Relational, read only version A",ICE,FROZEN,BUFFER3,Buffer,94,94,Study,User,-,,Study/JOL,BUFFER3,2158,,,-1,-1,,,,1
w10007153_kab,f2rv34s3rj,Relational_NO_JOL,1,186,2020-04-29T20:21:58-07:00,2.4818542003632,1,versionA_stim.csv,READVersionA.csv,"Read Version A","Relational, read only version A",NOODLE,STRING,BUFFER3,Buffer,92,92,Study,User,-,,Study/JOL,BUFFER3,1828,,,-1,-1,,,,1
w10007153_kab,f2rv34s3rj,Relational_NO_JOL,1,187,2020-04-29T20:22:01-07:00,3.6525719165802,1,versionA_stim.csv,READVersionA.csv,"Read Version A","Relational, read only version A",CARROT,POTATO,BUFFER3,Buffer,91,96,Study,User,-,,Study/JOL,BUFFER3,3025,,,-1,-1,,,,1
w10007153_kab,f2rv34s3rj,Relational_NO_JOL,1,188,2020-04-29T20:22:04-07:00,2.0480000972748,1,versionA_stim.csv,READVersionA.csv,"Read Version A","Relational, read only version A",CAMP,ADVENTURE,BUFFER3,Buffer,95,93,Study,User,-,,Study/JOL,BUFFER3,1413,,,-1,-1,,,,1
w10007153_kab,f2rv34s3rj,Relational_NO_JOL,1,189,2020-04-29T20:22:06-07:00,2.1079800128937,1,versionA_stim.csv,READVersionA.csv,"Read Version A","Relational, read only version A",SHRIMP,FISH,BUFFER3,Buffer,93,95,Study,User,-,,Study/JOL,BUFFER3,1449,,,-1,-1,,,,1
w10007153_kab,f2rv34s3rj,Relational_NO_JOL,1,190,2020-04-29T20:22:09-07:00,3.4510188102722,1,versionA_stim.csv,READVersionA.csv,"Read Version A","Relational, read only version A",GIVE,STEAK,Study2,U,158,174,Study,User,-,,Study/JOL,"Study Phase2",2661,,,-1,-1,,,,1
w10007153_kab,f2rv34s3rj,Relational_NO_JOL,1,191,2020-04-29T20:22:11-07:00,2.2374429702759,1,versionA_stim.csv,READVersionA.csv,"Read Version A","Relational, read only version A",MULE,DONKEY,Study2,F,108,162,Study,User,-,,Study/JOL,"Study Phase2",1595,,,-1,-1,,,,1
w10007153_kab,f2rv34s3rj,Relational_NO_JOL,1,192,2020-04-29T20:22:13-07:00,2.2007122039795,1,versionA_stim.csv,READVersionA.csv,"Read Version A","Relational, read only version A",LOAN,SIGN,Study2,U,171,108,Study,User,-,,Study/JOL,"Study Phase2",1484,,,-1,-1,,,,1
w10007153_kab,f2rv34s3rj,Relational_NO_JOL,1,193,2020-04-29T20:22:15-07:00,1.7325468063354,1,versionA_stim.csv,READVersionA.csv,"Read Version A","Relational, read only version A",FRUIT,STRAWBERRY,Study2,B,124,104,Study,User,-,,Study/JOL,"Study Phase2",1087,,,-1,-1,,,,1
w10007153_kab,f2rv34s3rj,Relational_NO_JOL,1,194,2020-04-29T20:22:19-07:00,3.3664782047272,1,versionA_stim.csv,READVersionA.csv,"Read Version A","Relational, read only version A",FEUD,FIGHT,Study2,F,113,159,Study,User,-,,Study/JOL,"Study Phase2",2527,,,-1,-1,,,,1
w10007153_kab,f2rv34s3rj,Relational_NO_JOL,1,195,2020-04-29T20:22:21-07:00,2.89532995224,1,versionA_stim.csv,READVersionA.csv,"Read Version A","Relational, read only version A",TRUTH,LIE,Study2,S,148,144,Study,User,-,,Study/JOL,"Study Phase2",1997,,,-1,-1,,,,1
w10007153_kab,f2rv34s3rj,Relational_NO_JOL,1,196,2020-04-29T20:22:23-07:00,1.7498970031738,1,versionA_stim.csv,READVersionA.csv,"Read Version A","Relational, read only version A",DRIVER,CAR,Study2,F,106,152,Study,User,-,,Study/JOL,"Study Phase2",1108,,,-1,-1,,,,1
w10007153_kab,f2rv34s3rj,Relational_NO_JOL,1,197,2020-04-29T20:22:25-07:00,2.0332930088043,1,versionA_stim.csv,READVersionA.csv,"Read Version A","Relational, read only version A",DOCUMENT,PAPER,Study2,F,109,98,Study,User,-,,Study/JOL,"Study Phase2",1364,,,-1,-1,,,,1
w10007153_kab,f2rv34s3rj,Relational_NO_JOL,1,198,2020-04-29T20:22:28-07:00,2.2326629161835,1,versionA_stim.csv,READVersionA.csv,"Read Version A","Relational, read only version A",ELEMENT,CARBON,Study2,S,141,148,Study,User,-,,Study/JOL,"Study Phase2",1584,,,-1,-1,,,,1
w10007153_kab,f2rv34s3rj,Relational_NO_JOL,1,199,2020-04-29T20:22:31-07:00,3.1327140331268,1,versionA_stim.csv,READVersionA.csv,"Read Version A","Relational, read only version A",PLANE,AIRCRAFT,Study2,B,129,153,Study,User,-,,Study/JOL,"Study Phase2",2451,,,-1,-1,,,,1
w10007153_kab,f2rv34s3rj,Relational_NO_JOL,1,200,2020-04-29T20:22:35-07:00,4.0562980175018,1,versionA_stim.csv,READVersionA.csv,"Read Version A","Relational, read only version A",SHEARS,SCISSORS,Study2,F,112,160,Study,User,-,,Study/JOL,"Study Phase2",3363,,,-1,-1,,,,1
w10007153_kab,f2rv34s3rj,Relational_NO_JOL,1,201,2020-04-29T20:22:38-07:00,3.360738992691,1,versionA_stim.csv,READVersionA.csv,"Read Version A","Relational, read only version A",TEMPERATURE,Morning,Study2,U,173,115,Study,User,-,,Study/JOL,"Study Phase2",2641,,,-1,-1,,,,1
w10007153_kab,f2rv34s3rj,Relational_NO_JOL,1,202,2020-04-29T20:22:41-07:00,3.046669960022,1,versionA_stim.csv,READVersionA.csv,"Read Version A","Relational, read only version A",NAME,HATE,Study2,U,167,121,Study,User,-,,Study/JOL,"Study Phase2",2350,,,-1,-1,,,,1
w10007153_kab,f2rv34s3rj,Relational_NO_JOL,1,203,2020-04-29T20:22:46-07:00,5.3715629577637,1,versionA_stim.csv,READVersionA.csv,"Read Version A","Relational, read only version A",STRETCH,CLOTH,Study2,U,157,133,Study,User,-,,Study/JOL,"Study Phase2",4588,,,-1,-1,,,,1
w10007153_kab,f2rv34s3rj,Relational_NO_JOL,1,204,2020-04-29T20:22:49-07:00,2.0830371379852,1,versionA_stim.csv,READVersionA.csv,"Read Version A","Relational, read only version A",WRIST,BRACELET,Study2,S,140,175,Study,User,-,,Study/JOL,"Study Phase2",1414,,,-1,-1,,,,1
w10007153_kab,f2rv34s3rj,Relational_NO_JOL,1,205,2020-04-29T20:22:50-07:00,1.8469738960266,1,versionA_stim.csv,READVersionA.csv,"Read Version A","Relational, read only version A",BIRD,PENGUIN,Study2,B,119,118,Study,User,-,,Study/JOL,"Study Phase2",1179,,,-1,-1,,,,1
w10007153_kab,f2rv34s3rj,Relational_NO_JOL,1,206,2020-04-29T20:22:52-07:00,1.8714621067047,1,versionA_stim.csv,READVersionA.csv,"Read Version A","Relational, read only version A",LEASE,TOIL,Study2,U,170,100,Study,User,-,,Study/JOL,"Study Phase2",1237,,,-1,-1,,,,1
w10007153_kab,f2rv34s3rj,Relational_NO_JOL,1,207,2020-04-29T20:22:54-07:00,1.9746239185333,1,versionA_stim.csv,READVersionA.csv,"Read Version A","Relational, read only version A",PHONE,COMMUNICATION,Study2,S,149,129,Study,User,-,,Study/JOL,"Study Phase2",1290,,,-1,-1,,,,1
w10007153_kab,f2rv34s3rj,Relational_NO_JOL,1,208,2020-04-29T20:22:57-07:00,2.7002019882202,1,versionA_stim.csv,READVersionA.csv,"Read Version A","Relational, read only version A",DEAD,COFFIN,Study2,B,128,128,Study,User,-,,Study/JOL,"Study Phase2",2063,,,-1,-1,,,,1
w10007153_kab,f2rv34s3rj,Relational_NO_JOL,1,209,2020-04-29T20:23:00-07:00,2.6607630252838,1,versionA_stim.csv,READVersionA.csv,"Read Version A","Relational, read only version A",Shell,SHAKE,Study2,U,163,161,Study,User,-,,Study/JOL,"Study Phase2",1964,,,-1,-1,,,,1
w10007153_kab,f2rv34s3rj,Relational_NO_JOL,1,210,2020-04-29T20:23:03-07:00,3.0789830684662,1,versionA_stim.csv,READVersionA.csv,"Read Version A","Relational, read only version A",GONE,AWAY,Study2,S,142,150,Study,User,-,,Study/JOL,"Study Phase2",1909,,,-1,-1,,,,1
w10007153_kab,f2rv34s3rj,Relational_NO_JOL,1,211,2020-04-29T20:23:05-07:00,2.1359939575195,1,versionA_stim.csv,READVersionA.csv,"Read Version A","Relational, read only version A",SCALP,HEAD,Study2,F,105,102,Study,User,-,,Study/JOL,"Study Phase2",1186,,,-1,-1,,,,1
w10007153_kab,f2rv34s3rj,Relational_NO_JOL,1,212,2020-04-29T20:23:07-07:00,2.5853569507599,1,versionA_stim.csv,READVersionA.csv,"Read Version A","Relational, read only version A",JUSTICE,MAROON,Study2,U,156,134,Study,User,-,,Study/JOL,"Study Phase2",1911,,,-1,-1,,,,1
w10007153_kab,f2rv34s3rj,Relational_NO_JOL,1,213,2020-04-29T20:23:10-07:00,2.7312409877777,1,versionA_stim.csv,READVersionA.csv,"Read Version A","Relational, read only version A",MAZE,ELECTION,Study2,U,159,119,Study,User,-,,Study/JOL,"Study Phase2",1847,,,-1,-1,,,,1
w10007153_kab,f2rv34s3rj,Relational_NO_JOL,1,214,2020-04-29T20:23:12-07:00,2.0390779972076,1,versionA_stim.csv,READVersionA.csv,"Read Version A","Relational, read only version A",MIRROR,CHILDREN,Study2,U,174,99,Study,User,-,,Study/JOL,"Study Phase2",1360,,,-1,-1,,,,1
w10007153_kab,f2rv34s3rj,Relational_NO_JOL,1,215,2020-04-29T20:23:14-07:00,2.2348320484161,1,versionA_stim.csv,READVersionA.csv,"Read Version A","Relational, read only version A",STAR,ACTRESS,Study2,B,120,106,Study,User,-,,Study/JOL,"Study Phase2",1579,,,-1,-1,,,,1
w10007153_kab,f2rv34s3rj,Relational_NO_JOL,1,216,2020-04-29T20:23:18-07:00,4.005989074707,1,versionA_stim.csv,READVersionA.csv,"Read Version A","Relational, read only version A",INCENSE,SMELL,Study2,F,110,107,Study,User,-,,Study/JOL,"Study Phase2",3335,,,-1,-1,,,,1
w10007153_kab,f2rv34s3rj,Relational_NO_JOL,1,217,2020-04-29T20:23:21-07:00,2.4273428916931,1,versionA_stim.csv,READVersionA.csv,"Read Version A","Relational, read only version A",LOUD,NOISE,Study2,S,152,114,Study,User,-,,Study/JOL,"Study Phase2",1759,,,-1,-1,,,,1
w10007153_kab,f2rv34s3rj,Relational_NO_JOL,1,218,2020-04-29T20:23:27-07:00,6.5866420269012,1,versionA_stim.csv,READVersionA.csv,"Read Version A","Relational, read only version A",KEYS,JOKE,Study2,U,165,112,Study,User,-,,Study/JOL,"Study Phase2",5971,,,-1,-1,,,,1
w10007153_kab,f2rv34s3rj,Relational_NO_JOL,1,219,2020-04-29T20:23:30-07:00,2.4057788848877,1,versionA_stim.csv,READVersionA.csv,"Read Version A","Relational, read only version A",FISH,SARDINE,Study2,B,130,131,Study,User,-,,Study/JOL,"Study Phase2",1612,,,-1,-1,,,,1
w10007153_kab,f2rv34s3rj,Relational_NO_JOL,1,220,2020-04-29T20:23:34-07:00,4.3323540687561,1,versionA_stim.csv,READVersionA.csv,"Read Version A","Relational, read only version A",ADJOURN,END,Study2,F,101,101,Study,User,-,,Study/JOL,"Study Phase2",3537,,,-1,-1,,,,1
w10007153_kab,f2rv34s3rj,Relational_NO_JOL,1,221,2020-04-29T20:23:39-07:00,4.7061879634857,1,versionA_stim.csv,READVersionA.csv,"Read Version A","Relational, read only version A",DETECTIVE,MYSTERY,Study2,F,100,145,Study,User,-,,Study/JOL,"Study Phase2",4078,,,-1,-1,,,,1
w10007153_kab,f2rv34s3rj,Relational_NO_JOL,1,222,2020-04-29T20:23:41-07:00,2.3226721286774,1,versionA_stim.csv,READVersionA.csv,"Read Version A","Relational, read only version A",CACTUS,PLANT,Study2,F,98,166,Study,User,-,,Study/JOL,"Study Phase2",1627,,,-1,-1,,,,1
w10007153_kab,f2rv34s3rj,Relational_NO_JOL,1,223,2020-04-29T20:23:44-07:00,2.83411693573,1,versionA_stim.csv,READVersionA.csv,"Read Version A","Relational, read only version A",DINE,EAT,Study2,F,111,138,Study,User,-,,Study/JOL,"Study Phase2",2165,,,-1,-1,,,,1
w10007153_kab,f2rv34s3rj,Relational_NO_JOL,1,224,2020-04-29T20:23:48-07:00,4.3343760967255,1,versionA_stim.csv,READVersionA.csv,"Read Version A","Relational, read only version A",,,,,,0,Instruct,-,3,"Remember to focus on how the two items are similiar while you study!",,CHECK5,3577,,,-1,-1,,,,1
w10007153_kab,f2rv34s3rj,Relational_NO_JOL,1,225,2020-04-29T20:23:52-07:00,3.1540179252625,1,versionA_stim.csv,READVersionA.csv,"Read Version A","Relational, read only version A",ROD,REEL,Study2,S,150,125,Study,User,-,,Study/JOL,"Study Phase2",2478,,,-1,-1,,,,1
w10007153_kab,f2rv34s3rj,Relational_NO_JOL,1,226,2020-04-29T20:23:54-07:00,2.683287858963,1,versionA_stim.csv,READVersionA.csv,"Read Version A","Relational, read only version A",DRY,WET,Study2,S,146,170,Study,User,-,,Study/JOL,"Study Phase2",1873,,,-1,-1,,,,1
w10007153_kab,f2rv34s3rj,Relational_NO_JOL,1,227,2020-04-29T20:23:57-07:00,2.6984620094299,1,versionA_stim.csv,READVersionA.csv,"Read Version A","Relational, read only version A",CAT,PANTHER,Study2,B,126,157,Study,User,-,,Study/JOL,"Study Phase2",2077,,,-1,-1,,,,1
w10007153_kab,f2rv34s3rj,Relational_NO_JOL,1,228,2020-04-29T20:23:59-07:00,2.4651520252228,1,versionA_stim.csv,READVersionA.csv,"Read Version A","Relational, read only version A",TANTRUM,TEMPER,Study2,S,154,103,Study,User,-,,Study/JOL,"Study Phase2",1765,,,-1,-1,,,,1
w10007153_kab,f2rv34s3rj,Relational_NO_JOL,1,229,2020-04-29T20:24:02-07:00,2.7272889614105,1,versionA_stim.csv,READVersionA.csv,"Read Version A","Relational, read only version A",CHILL,COLD,Study2,F,114,176,Study,User,-,,Study/JOL,"Study Phase2",2110,,,-1,-1,,,,1
w10007153_kab,f2rv34s3rj,Relational_NO_JOL,1,230,2020-04-29T20:24:08-07:00,5.6060872077942,1,versionA_stim.csv,READVersionA.csv,"Read Version A","Relational, read only version A",TURN,FLIP,Study2,B,116,167,Study,User,-,,Study/JOL,"Study Phase2",5007,,,-1,-1,,,,1
w10007153_kab,f2rv34s3rj,Relational_NO_JOL,1,231,2020-04-29T20:24:11-07:00,2.9585208892822,1,versionA_stim.csv,READVersionA.csv,"Read Version A","Relational, read only version A",LITTER,TRASH,Study2,F,103,169,Study,User,-,,Study/JOL,"Study Phase2",2310,,,-1,-1,,,,1
w10007153_kab,f2rv34s3rj,Relational_NO_JOL,1,232,2020-04-29T20:24:15-07:00,4.5408771038055,1,versionA_stim.csv,READVersionA.csv,"Read Version A","Relational, read only version A",MOAT,CLEAR,Study2,U,169,116,Study,User,-,,Study/JOL,"Study Phase2",3844,,,-1,-1,,,,1
w10007153_kab,f2rv34s3rj,Relational_NO_JOL,1,233,2020-04-29T20:24:19-07:00,3.8474798202515,1,versionA_stim.csv,READVersionA.csv,"Read Version A","Relational, read only version A",OWN,HAVE,Study2,S,153,155,Study,User,-,,Study/JOL,"Study Phase2",3158,,,-1,-1,,,,1
w10007153_kab,f2rv34s3rj,Relational_NO_JOL,1,234,2020-04-29T20:24:24-07:00,4.5508801937103,1,versionA_stim.csv,READVersionA.csv,"Read Version A","Relational, read only version A",POP,BALLOON,Study2,B,123,158,Study,User,-,,Study/JOL,"Study Phase2",3860,,,-1,-1,,,,1
w10007153_kab,f2rv34s3rj,Relational_NO_JOL,1,235,2020-04-29T20:24:25-07:00,1.8616027832031,1,versionA_stim.csv,READVersionA.csv,"Read Version A","Relational, read only version A",RAZOR,SHAVE,Study2,S,136,130,Study,User,-,,Study/JOL,"Study Phase2",1231,,,-1,-1,,,,1
w10007153_kab,f2rv34s3rj,Relational_NO_JOL,1,236,2020-04-29T20:24:27-07:00,1.6969861984253,1,versionA_stim.csv,READVersionA.csv,"Read Version A","Relational, read only version A",SAFETY,SEATBELT,Study2,S,147,136,Study,User,-,,Study/JOL,"Study Phase2",1021,,,-1,-1,,,,1
w10007153_kab,f2rv34s3rj,Relational_NO_JOL,1,237,2020-04-29T20:24:29-07:00,1.3898599147797,1,versionA_stim.csv,READVersionA.csv,"Read Version A","Relational, read only version A",RIGHTS,EQUAL,Study2,S,137,135,Study,User,-,,Study/JOL,"Study Phase2",802,,,-1,-1,,,,1
w10007153_kab,f2rv34s3rj,Relational_NO_JOL,1,238,2020-04-29T20:24:31-07:00,2.5629370212555,1,versionA_stim.csv,READVersionA.csv,"Read Version A","Relational, read only version A",EARTH,GROUND,Study2,S,144,168,Study,User,-,,Study/JOL,"Study Phase2",1933,,,-1,-1,,,,1
w10007153_kab,f2rv34s3rj,Relational_NO_JOL,1,239,2020-04-29T20:24:33-07:00,2.2869930267334,1,versionA_stim.csv,READVersionA.csv,"Read Version A","Relational, read only version A",HONEST,TRUTHFUL,Study2,B,133,154,Study,User,-,,Study/JOL,"Study Phase2",1644,,,-1,-1,,,,1
w10007153_kab,f2rv34s3rj,Relational_NO_JOL,1,240,2020-04-29T20:24:35-07:00,1.9928619861603,1,versionA_stim.csv,READVersionA.csv,"Read Version A","Relational, read only version A",FURRY,DOG,Study2,F,102,111,Study,User,-,,Study/JOL,"Study Phase2",1338,,,-1,-1,,,,1
w10007153_kab,f2rv34s3rj,Relational_NO_JOL,1,241,2020-04-29T20:24:37-07:00,1.765722990036,1,versionA_stim.csv,READVersionA.csv,"Read Version A","Relational, read only version A",BEST,FAVORITE,Study2,B,125,113,Study,User,-,,Study/JOL,"Study Phase2",1076,,,-1,-1,,,,1
w10007153_kab,f2rv34s3rj,Relational_NO_JOL,1,242,2020-04-29T20:24:39-07:00,1.7009558677673,1,versionA_stim.csv,READVersionA.csv,"Read Version A","Relational, read only version A",CHOP,CUT,Study2,F,107,141,Study,User,-,,Study/JOL,"Study Phase2",1085,,,-1,-1,,,,1
w10007153_kab,f2rv34s3rj,Relational_NO_JOL,1,243,2020-04-29T20:24:41-07:00,2.4477920532227,1,versionA_stim.csv,READVersionA.csv,"Read Version A","Relational, read only version A",ALONE,LONELY,Study2,S,145,105,Study,User,-,,Study/JOL,"Study Phase2",1785,,,-1,-1,,,,1
w10007153_kab,f2rv34s3rj,Relational_NO_JOL,1,244,2020-04-29T20:24:43-07:00,2.0967571735382,1,versionA_stim.csv,READVersionA.csv,"Read Version A","Relational, read only version A",MASON,JAR,Study2,S,138,147,Study,User,-,,Study/JOL,"Study Phase2",1423,,,-1,-1,,,,1
w10007153_kab,f2rv34s3rj,Relational_NO_JOL,1,245,2020-04-29T20:24:45-07:00,2.0388388633728,1,versionA_stim.csv,READVersionA.csv,"Read Version A","Relational, read only version A",CLUE,GAME,Study2,F,97,127,Study,User,-,,Study/JOL,"Study Phase2",1450,,,-1,-1,,,,1
w10007153_kab,f2rv34s3rj,Relational_NO_JOL,1,246,2020-04-29T20:24:49-07:00,3.6654200553894,1,versionA_stim.csv,READVersionA.csv,"Read Version A","Relational, read only version A",VEHICLE,CHARM,Study2,U,160,173,Study,User,-,,Study/JOL,"Study Phase2",1676,,,-1,-1,,,,1
w10007153_kab,f2rv34s3rj,Relational_NO_JOL,1,247,2020-04-29T20:24:51-07:00,1.9668869972229,1,versionA_stim.csv,READVersionA.csv,"Read Version A","Relational, read only version A",CANDLE,WAX,Study2,S,139,142,Study,User,-,,Study/JOL,"Study Phase2",1291,,,-1,-1,,,,1
w10007153_kab,f2rv34s3rj,Relational_NO_JOL,1,248,2020-04-29T20:24:58-07:00,7.1326820850372,1,versionA_stim.csv,READVersionA.csv,"Read Version A","Relational, read only version A",BOTH,OUNCE,Study2,U,172,123,Study,User,-,,Study/JOL,"Study Phase2",6490,,,-1,-1,,,,1
w10007153_kab,f2rv34s3rj,Relational_NO_JOL,1,249,2020-04-29T20:25:02-07:00,3.7661678791046,1,versionA_stim.csv,READVersionA.csv,"Read Version A","Relational, read only version A",BAD,VILLAIN,Study2,B,118,126,Study,User,-,,Study/JOL,"Study Phase2",3065,,,-1,-1,,,,1
w10007153_kab,f2rv34s3rj,Relational_NO_JOL,1,250,2020-04-29T20:25:08-07:00,6.51433801651,1,versionA_stim.csv,READVersionA.csv,"Read Version A","Relational, read only version A",MONEY,BANKER,Study2,B,132,140,Study,User,-,,Study/JOL,"Study Phase2",5722,,,-1,-1,,,,1
w10007153_kab,f2rv34s3rj,Relational_NO_JOL,1,251,2020-04-29T20:25:11-07:00,2.9145619869232,1,versionA_stim.csv,READVersionA.csv,"Read Version A","Relational, read only version A",SLEEP,NAP,Study2,B,134,110,Study,User,-,,Study/JOL,"Study Phase2",2294,,,-1,-1,,,,1
w10007153_kab,f2rv34s3rj,Relational_NO_JOL,1,252,2020-04-29T20:25:12-07:00,0.66447591781616,1,versionA_stim.csv,READVersionA.csv,"Read Version A","Relational, read only version A",BASEBALL,LEAGUE,Study2,B,131,132,Study,User,-,,Study/JOL,"Study Phase2",15,,,-1,-1,,,,1
w10007153_kab,f2rv34s3rj,Relational_NO_JOL,1,253,2020-04-29T20:25:13-07:00,0.87769412994385,1,versionA_stim.csv,READVersionA.csv,"Read Version A","Relational, read only version A",SHOELACE,TIE,Study2,F,99,97,Study,User,-,,Study/JOL,"Study Phase2",14,,,-1,-1,,,,1
w10007153_kab,f2rv34s3rj,Relational_NO_JOL,1,254,2020-04-29T20:25:15-07:00,2.1245560646057,1,versionA_stim.csv,READVersionA.csv,"Read Version A","Relational, read only version A",CHERRY,RED,Study2,F,104,143,Study,User,-,,Study/JOL,"Study Phase2",1490,,,-1,-1,,,,1
w10007153_kab,f2rv34s3rj,Relational_NO_JOL,1,255,2020-04-29T20:25:18-07:00,2.7164449691772,1,versionA_stim.csv,READVersionA.csv,"Read Version A","Relational, read only version A",CAR,WINDSHIELD,Study2,B,117,165,Study,User,-,,Study/JOL,"Study Phase2",1988,,,-1,-1,,,,1
w10007153_kab,f2rv34s3rj,Relational_NO_JOL,1,256,2020-04-29T20:25:20-07:00,1.9457340240479,1,versionA_stim.csv,READVersionA.csv,"Read Version A","Relational, read only version A",EVEN,REVENGE,Study2,B,122,139,Study,User,-,,Study/JOL,"Study Phase2",1300,,,-1,-1,,,,1
w10007153_kab,f2rv34s3rj,Relational_NO_JOL,1,257,2020-04-29T20:25:22-07:00,1.9139938354492,1,versionA_stim.csv,READVersionA.csv,"Read Version A","Relational, read only version A",CRACKLE,ABLE,Study2,U,162,172,Study,User,-,,Study/JOL,"Study Phase2",1324,,,-1,-1,,,,1
w10007153_kab,f2rv34s3rj,Relational_NO_JOL,1,258,2020-04-29T20:25:23-07:00,1.7624151706696,1,versionA_stim.csv,READVersionA.csv,"Read Version A","Relational, read only version A",FLEA,TICK,Study2,S,151,164,Study,User,-,,Study/JOL,"Study Phase2",1026,,,-1,-1,,,,1
w10007153_kab,f2rv34s3rj,Relational_NO_JOL,1,259,2020-04-29T20:25:26-07:00,2.8242969512939,1,versionA_stim.csv,READVersionA.csv,"Read Version A","Relational, read only version A",FIGHT,BRAWL,Study2,B,135,163,Study,User,-,,Study/JOL,"Study Phase2",2172,,,-1,-1,,,,1
w10007153_kab,f2rv34s3rj,Relational_NO_JOL,1,260,2020-04-29T20:25:28-07:00,1.5030858516693,1,versionA_stim.csv,READVersionA.csv,"Read Version A","Relational, read only version A",MEAT,OBTAIN,Study2,U,161,120,Study,User,-,,Study/JOL,"Study Phase2",864,,,-1,-1,,,,1
w10007153_kab,f2rv34s3rj,Relational_NO_JOL,1,261,2020-04-29T20:25:31-07:00,3.0305590629578,1,versionA_stim.csv,READVersionA.csv,"Read Version A","Relational, read only version A",MAIN,SCAR,Study2,U,175,146,Study,User,-,,Study/JOL,"Study Phase2",2329,,,-1,-1,,,,1
w10007153_kab,f2rv34s3rj,Relational_NO_JOL,1,262,2020-04-29T20:25:33-07:00,2.177973985672,1,versionA_stim.csv,READVersionA.csv,"Read Version A","Relational, read only version A",EXTENSION,LONG,Study2,F,96,124,Study,User,-,,Study/JOL,"Study Phase2",1547,,,-1,-1,,,,1
w10007153_kab,f2rv34s3rj,Relational_NO_JOL,1,263,2020-04-29T20:25:35-07:00,1.6331429481506,1,versionA_stim.csv,READVersionA.csv,"Read Version A","Relational, read only version A",AFFECTION,LOVE,Study2,F,115,149,Study,User,-,,Study/JOL,"Study Phase2",1000,,,-1,-1,,,,1
w10007153_kab,f2rv34s3rj,Relational_NO_JOL,1,264,2020-04-29T20:25:37-07:00,2.4576601982117,1,versionA_stim.csv,READVersionA.csv,"Read Version A","Relational, read only version A",SUN,TAN,Study2,S,155,156,Study,User,-,,Study/JOL,"Study Phase2",1749,,,-1,-1,,,,1
w10007153_kab,f2rv34s3rj,Relational_NO_JOL,1,265,2020-04-29T20:25:39-07:00,1.4561138153076,1,versionA_stim.csv,READVersionA.csv,"Read Version A","Relational, read only version A",WATER,DRINK,Study2,S,143,171,Study,User,-,,Study/JOL,"Study Phase2",767,,,-1,-1,,,,1
w10007153_kab,f2rv34s3rj,Relational_NO_JOL,1,266,2020-04-29T20:25:40-07:00,1.5742499828339,1,versionA_stim.csv,READVersionA.csv,"Read Version A","Relational, read only version A",THREAD,THIMBLE,Study2,B,121,109,Study,User,-,,Study/JOL,"Study Phase2",952,,,-1,-1,,,,1
w10007153_kab,f2rv34s3rj,Relational_NO_JOL,1,267,2020-04-29T20:25:43-07:00,2.4525270462036,1,versionA_stim.csv,READVersionA.csv,"Read Version A","Relational, read only version A",LISTEN,FICTION,Study2,U,164,122,Study,User,-,,Study/JOL,"Study Phase2",1761,,,-1,-1,,,,1
w10007153_kab,f2rv34s3rj,Relational_NO_JOL,1,268,2020-04-29T20:25:44-07:00,1.7223470211029,1,versionA_stim.csv,READVersionA.csv,"Read Version A","Relational, read only version A",CAKE,CLOTHES,Study2,U,166,137,Study,User,-,,Study/JOL,"Study Phase2",983,,,-1,-1,,,,1
w10007153_kab,f2rv34s3rj,Relational_NO_JOL,1,269,2020-04-29T20:25:53-07:00,8.4566359519958,1,versionA_stim.csv,READVersionA.csv,"Read Version A","Relational, read only version A",GLASS,BREAKABLE,Study2,B,127,117,Study,User,-,,Study/JOL,"Study Phase2",7773,,,-1,-1,,,,1
w10007153_kab,f2rv34s3rj,Relational_NO_JOL,1,270,2020-04-29T20:26:15-07:00,21.846021175385,1,versionA_stim.csv,READVersionA.csv,"Read Version A","Relational, read only version A",FUZZY,BANG,Study2,U,168,151,Study,User,-,,Study/JOL,"Study Phase2",21167,,,-1,-1,,,,1
w10007153_kab,f2rv34s3rj,Relational_NO_JOL,1,271,2020-04-29T20:26:20-07:00,5.3468918800354,1,versionA_stim.csv,READVersionA.csv,"Read Version A","Relational, read only version A",TOOL,SHED,BUFFER4,Buffer,178,181,Study,User,-,,Study/JOL,BUFFER4,4462,,,-1,-1,,,,1
w10007153_kab,f2rv34s3rj,Relational_NO_JOL,1,272,2020-04-29T20:26:22-07:00,1.6025319099426,1,versionA_stim.csv,READVersionA.csv,"Read Version A","Relational, read only version A",MONTH,YEAR,BUFFER4,Buffer,177,180,Study,User,-,,Study/JOL,BUFFER4,920,,,-1,-1,,,,1
w10007153_kab,f2rv34s3rj,Relational_NO_JOL,1,273,2020-04-29T20:26:23-07:00,1.6961450576782,1,versionA_stim.csv,READVersionA.csv,"Read Version A","Relational, read only version A",OCTOBER,SPOOKY,BUFFER4,Buffer,180,179,Study,User,-,,Study/JOL,BUFFER4,1093,,,-1,-1,,,,1
w10007153_kab,f2rv34s3rj,Relational_NO_JOL,1,274,2020-04-29T20:26:25-07:00,1.9462029933929,1,versionA_stim.csv,READVersionA.csv,"Read Version A","Relational, read only version A",SPRING,MARCH,BUFFER4,Buffer,179,178,Study,User,-,,Study/JOL,BUFFER4,1336,,,-1,-1,,,,1
w10007153_kab,f2rv34s3rj,Relational_NO_JOL,1,275,2020-04-29T20:26:27-07:00,1.9677209854126,1,versionA_stim.csv,READVersionA.csv,"Read Version A","Relational, read only version A",DAYS,WEAKS,BUFFER4,Buffer,176,177,Study,User,-,,Study/JOL,BUFFER4,1207,,,-1,-1,,,,1
w10007153_kab,f2rv34s3rj,Relational_NO_JOL,1,276,2020-04-29T20:26:31-07:00,3.9594430923462,1,versionA_stim.csv,READVersionA.csv,"Read Version A","Relational, read only version A",,,,,,0,Instruct,User,-,"You have completed this section. Please press Enter.",Filler_Instruction,Instruct5,3359,,,-1,-1,,,,1
w10007153_kab,f2rv34s3rj,Relational_NO_JOL,1,277,2020-04-29T20:26:44-07:00,12.568851947784,1,versionA_stim.csv,READVersionA.csv,"Read Version A","Relational, read only version A",,,,,,0,FreeRecall,-,10,"What were you supposed to focus on while you studied each pair? (Hint: Think back to the instructions). Type your answer in the space below.",,CHECK3,11860,"How they are similar ",0,3857,7378,0,0,,1
w10007153_kab,f2rv34s3rj,Relational_NO_JOL,1,278,2020-04-29T20:26:46-07:00,2.8046340942383,1,versionA_stim.csv,READVersionA.csv,"Read Version A","Relational, read only version A",,,,,,0,Instruct,User,-,"You have completed this section. Please press Enter.",Filler_Instruction,Instruct5,2096,,,-1,-1,,,,1
w10007153_kab,f2rv34s3rj,Relational_NO_JOL,1,279,2020-04-29T20:28:47-07:00,120.82623887062,1,versionA_stim.csv,READVersionA.csv,"Read Version A","Relational, read only version A",,,,,,0,FreeRecall,120,120,"Please list the 50 US states in reverse alphabetical order (z - a). The task will automatically advance to the next screen after two minutes.",,Filler2,120013,"wyoming wiscoisin west virginia washingtom virigina vermount utah texas tennessee south dakota south carolina rhode island pennsylvania oregon pklahoma ohio north dakota north carolina new york new mexico new jersy",0,7533,119057,0,0,,1
w10007153_kab,f2rv34s3rj,Relational_NO_JOL,1,280,2020-04-29T20:29:01-07:00,13.451826095581,1,versionA_stim.csv,READVersionA.csv,"Read Version A","Relational, read only version A",,,,,,0,Instruct,-,10,"You will now be presented with the first word from each of the previously studied item pairs. Please type the missing word. If you do not know the word, you may guess or press Enter to skip forward to the next pair.",,Instruct6,12647,,,-1,-1,,,,1
w10007153_kab,f2rv34s3rj,Relational_NO_JOL,1,281,2020-04-29T20:29:06-07:00,5.7680358886719,1,versionA_stim.csv,READVersionA.csv,"Read Version A","Relational, read only version A",LOUD,NOISE,Study2,S,152,114,Test,User,-,,Recall,Recall2,5055,noise,100,2511,4320,1,1,,1
w10007153_kab,f2rv34s3rj,Relational_NO_JOL,1,282,2020-04-29T20:29:14-07:00,7.679291009903,1,versionA_stim.csv,READVersionA.csv,"Read Version A","Relational, read only version A",DRY,WET,Study2,S,146,170,Test,User,-,,Recall,Recall2,7012,stiff,25,5266,6551,0,0,,1
w10007153_kab,f2rv34s3rj,Relational_NO_JOL,1,283,2020-04-29T20:29:19-07:00,4.8287160396576,1,versionA_stim.csv,READVersionA.csv,"Read Version A","Relational, read only version A",MULE,DONKEY,Study2,F,108,162,Test,User,-,,Recall,Recall2,3655,donkey,100,1854,2866,1,1,,1
w10007153_kab,f2rv34s3rj,Relational_NO_JOL,1,284,2020-04-29T20:29:24-07:00,5.4093101024628,1,versionA_stim.csv,READVersionA.csv,"Read Version A","Relational, read only version A",GIVE,STEAK,Study2,U,158,174,Test,User,-,,Recall,Recall2,4617,take,66.666666666667,3165,4024,0,0,,1
w10007153_kab,f2rv34s3rj,Relational_NO_JOL,1,285,2020-04-29T20:29:28-07:00,3.6594798564911,1,versionA_stim.csv,READVersionA.csv,"Read Version A","Relational, read only version A",INCENSE,SMELL,Study2,F,110,107,Test,User,-,,Recall,Recall2,2916,smell,100,1663,2283,1,1,,1
w10007153_kab,f2rv34s3rj,Relational_NO_JOL,1,286,2020-04-29T20:31:16-07:00,108.11690497398,1,versionA_stim.csv,READVersionA.csv,"Read Version A","Relational, read only version A",SHEARS,SCISSORS,Study2,F,112,160,Test,User,-,,Recall,Recall2,17483,fight,15.384615384615,14829,16050,0,0,,1
w10007153_kab,f2rv34s3rj,Relational_NO_JOL,1,287,2020-04-29T20:31:26-07:00,10.201108217239,1,versionA_stim.csv,READVersionA.csv,"Read Version A","Relational, read only version A",SAFETY,SEATBELT,Study2,S,147,136,Test,User,-,,Recall,Recall2,9444,,0,-1,-1,0,0,,1
w10007153_kab,f2rv34s3rj,Relational_NO_JOL,1,288,2020-04-29T20:31:30-07:00,3.5883359909058,1,versionA_stim.csv,READVersionA.csv,"Read Version A","Relational, read only version A",SCALP,HEAD,Study2,F,105,102,Test,User,-,,Recall,Recall2,2824,head,100,1411,2233,1,1,,1
w10007153_kab,f2rv34s3rj,Relational_NO_JOL,1,289,2020-04-29T20:31:34-07:00,4.5028758049011,1,versionA_stim.csv,READVersionA.csv,"Read Version A","Relational, read only version A",RAZOR,SHAVE,Study2,S,136,130,Test,User,-,,Recall,Recall2,3778,blade,40,1539,3087,0,0,,1
w10007153_kab,f2rv34s3rj,Relational_NO_JOL,1,290,2020-04-29T20:31:40-07:00,5.6725521087646,1,versionA_stim.csv,READVersionA.csv,"Read Version A","Relational, read only version A",WATER,DRINK,Study2,S,143,171,Test,User,-,,Recall,Recall2,4719,drink,100,3062,4281,1,1,,1
w10007153_kab,f2rv34s3rj,Relational_NO_JOL,1,291,2020-04-29T20:31:51-07:00,10.616965055466,1,versionA_stim.csv,READVersionA.csv,"Read Version A","Relational, read only version A",MOAT,CLEAR,Study2,U,169,116,Test,User,-,,Recall,Recall2,9941,clear,100,7697,9143,1,1,,1
w10007153_kab,f2rv34s3rj,Relational_NO_JOL,1,292,2020-04-29T20:32:00-07:00,8.8644828796387,1,versionA_stim.csv,READVersionA.csv,"Read Version A","Relational, read only version A",PHONE,COMMUNICATION,Study2,S,149,129,Test,User,-,,Recall,Recall2,8125,communication,100,3418,7708,1,1,,1
w10007153_kab,f2rv34s3rj,Relational_NO_JOL,1,293,2020-04-29T20:32:06-07:00,6.2649309635162,1,versionA_stim.csv,READVersionA.csv,"Read Version A","Relational, read only version A",TURN,FLIP,Study2,B,116,167,Test,User,-,,Recall,Recall2,5555,around,0,3318,5085,0,0,,1
w10007153_kab,f2rv34s3rj,Relational_NO_JOL,1,294,2020-04-29T20:32:10-07:00,3.6563141345978,1,versionA_stim.csv,READVersionA.csv,"Read Version A","Relational, read only version A",STRETCH,CLOTH,Study2,U,157,133,Test,User,-,,Recall,Recall2,2992,,0,-1,-1,0,0,,1
w10007153_kab,f2rv34s3rj,Relational_NO_JOL,1,295,2020-04-29T20:32:12-07:00,2.9409139156342,1,versionA_stim.csv,READVersionA.csv,"Read Version A","Relational, read only version A",NAME,HATE,Study2,U,167,121,Test,User,-,,Recall,Recall2,2323,,0,-1,-1,0,0,,1
w10007153_kab,f2rv34s3rj,Relational_NO_JOL,1,296,2020-04-29T20:32:20-07:00,7.3368771076202,1,versionA_stim.csv,READVersionA.csv,"Read Version A","Relational, read only version A",PLANE,AIRCRAFT,Study2,B,129,153,Test,User,-,,Recall,Recall2,6662,took,16.666666666667,2867,6001,0,0,,1
w10007153_kab,f2rv34s3rj,Relational_NO_JOL,1,297,2020-04-29T20:32:25-07:00,4.9931750297546,1,versionA_stim.csv,READVersionA.csv,"Read Version A","Relational, read only version A",ELEMENT,CARBON,Study2,S,141,148,Test,User,-,,Recall,Recall2,4289,carbon,100,1767,3801,1,1,,1
w10007153_kab,f2rv34s3rj,Relational_NO_JOL,1,298,2020-04-29T20:32:33-07:00,8.1349430084229,1,versionA_stim.csv,READVersionA.csv,"Read Version A","Relational, read only version A",DEAD,COFFIN,Study2,B,128,128,Test,User,-,,Recall,Recall2,7450,,0,-1,-1,0,0,,1
w10007153_kab,f2rv34s3rj,Relational_NO_JOL,1,299,2020-04-29T20:32:39-07:00,6.0654129981995,1,versionA_stim.csv,READVersionA.csv,"Read Version A","Relational, read only version A",FRUIT,STRAWBERRY,Study2,B,124,104,Test,User,-,,Recall,Recall2,5346,strawberry,100,1651,4689,1,1,,1
w10007153_kab,f2rv34s3rj,Relational_NO_JOL,1,300,2020-04-29T20:32:44-07:00,4.6810038089752,1,versionA_stim.csv,READVersionA.csv,"Read Version A","Relational, read only version A",DINE,EAT,Study2,F,111,138,Test,User,-,,Recall,Recall2,3890,eat,100,2621,3324,1,1,,1
w10007153_kab,f2rv34s3rj,Relational_NO_JOL,1,301,2020-04-29T20:32:53-07:00,9.718868970871,1,versionA_stim.csv,READVersionA.csv,"Read Version A","Relational, read only version A",Shell,SHAKE,Study2,U,163,161,Test,User,-,,Recall,Recall2,8977,ocean,20,6795,8320,0,0,,1
w10007153_kab,f2rv34s3rj,Relational_NO_JOL,1,302,2020-04-29T20:33:03-07:00,9.4627361297607,1,versionA_stim.csv,READVersionA.csv,"Read Version A","Relational, read only version A",MEAT,OBTAIN,Study2,U,161,120,Test,User,-,,Recall,Recall2,8715,hunt,20,3785,8061,0,0,,1
w10007153_kab,f2rv34s3rj,Relational_NO_JOL,1,303,2020-04-29T20:33:11-07:00,7.8467879295349,1,versionA_stim.csv,READVersionA.csv,"Read Version A","Relational, read only version A",MAIN,SCAR,Study2,U,175,146,Test,User,-,,Recall,Recall2,7093,course,40,4698,6401,0,0,,1
w10007153_kab,f2rv34s3rj,Relational_NO_JOL,1,304,2020-04-29T20:33:17-07:00,6.0476019382477,1,versionA_stim.csv,READVersionA.csv,"Read Version A","Relational, read only version A",WRIST,BRACELET,Study2,S,140,175,Test,User,-,,Recall,Recall2,5265,,0,-1,-1,0,0,,1
w10007153_kab,f2rv34s3rj,Relational_NO_JOL,1,305,2020-04-29T20:33:19-07:00,2.2039630413055,1,versionA_stim.csv,READVersionA.csv,"Read Version A","Relational, read only version A",BAD,VILLAIN,Study2,B,118,126,Test,User,-,,Recall,Recall2,1477,,0,-1,-1,0,0,,1
w10007153_kab,f2rv34s3rj,Relational_NO_JOL,1,306,2020-04-29T20:33:22-07:00,2.7866289615631,1,versionA_stim.csv,READVersionA.csv,"Read Version A","Relational, read only version A",RIGHTS,EQUAL,Study2,S,137,135,Test,User,-,,Recall,Recall2,2025,,0,-1,-1,0,0,,1
w10007153_kab,f2rv34s3rj,Relational_NO_JOL,1,307,2020-04-29T20:33:27-07:00,5.5199921131134,1,versionA_stim.csv,READVersionA.csv,"Read Version A","Relational, read only version A",JUSTICE,MAROON,Study2,U,156,134,Test,User,-,,Recall,Recall2,4602,,0,-1,-1,0,0,,1
w10007153_kab,f2rv34s3rj,Relational_NO_JOL,1,308,2020-04-29T20:33:46-07:00,18.824552059174,1,versionA_stim.csv,READVersionA.csv,"Read Version A","Relational, read only version A",LOAN,SIGN,Study2,U,171,108,Test,User,-,,Recall,Recall2,18065,bread,0,4236,17343,0,0,,1
w10007153_kab,f2rv34s3rj,Relational_NO_JOL,1,309,2020-04-29T20:34:01-07:00,14.482244968414,1,versionA_stim.csv,READVersionA.csv,"Read Version A","Relational, read only version A",GLASS,BREAKABLE,Study2,B,127,117,Test,User,-,,Recall,Recall2,13700,,0,-1,-1,0,0,,1
w10007153_kab,f2rv34s3rj,Relational_NO_JOL,1,310,2020-04-29T20:34:04-07:00,3.0545780658722,1,versionA_stim.csv,READVersionA.csv,"Read Version A","Relational, read only version A",EARTH,GROUND,Study2,S,144,168,Test,User,-,,Recall,Recall2,2357,,0,-1,-1,0,0,,1
w10007153_kab,f2rv34s3rj,Relational_NO_JOL,1,311,2020-04-29T20:34:14-07:00,10.287488937378,1,versionA_stim.csv,READVersionA.csv,"Read Version A","Relational, read only version A",POP,BALLOON,Study2,B,123,158,Test,User,-,,Recall,Recall2,8661,crackle,28.571428571429,5609,7960,0,0,,1
w10007153_kab,f2rv34s3rj,Relational_NO_JOL,1,312,2020-04-29T20:34:23-07:00,9.0733058452606,1,versionA_stim.csv,READVersionA.csv,"Read Version A","Relational, read only version A",CHERRY,RED,Study2,F,104,143,Test,User,-,,Recall,Recall2,8261,red,100,7478,7883,1,1,,1
w10007153_kab,f2rv34s3rj,Relational_NO_JOL,1,313,2020-04-29T20:34:33-07:00,9.5157520771027,1,versionA_stim.csv,READVersionA.csv,"Read Version A","Relational, read only version A",FLEA,TICK,Study2,S,151,164,Test,User,-,,Recall,Recall2,8665,tick,100,6777,8166,1,1,,1
w10007153_kab,f2rv34s3rj,Relational_NO_JOL,1,314,2020-04-29T20:34:45-07:00,12.046596050262,1,versionA_stim.csv,READVersionA.csv,"Read Version A","Relational, read only version A",FURRY,DOG,Study2,F,102,111,Test,User,-,,Recall,Recall2,11291,dog,100,9768,10734,1,1,,1
w10007153_kab,f2rv34s3rj,Relational_NO_JOL,1,315,2020-04-29T20:34:51-07:00,6.6832590103149,1,versionA_stim.csv,READVersionA.csv,"Read Version A","Relational, read only version A",CAR,WINDSHIELD,Study2,B,117,165,Test,User,-,,Recall,Recall2,5998,ride,42.857142857143,4516,5517,0,0,,1
w10007153_kab,f2rv34s3rj,Relational_NO_JOL,1,316,2020-04-29T20:34:57-07:00,5.5324430465698,1,versionA_stim.csv,READVersionA.csv,"Read Version A","Relational, read only version A",MASON,JAR,Study2,S,138,147,Test,User,-,,Recall,Recall2,4857,jar,100,3808,4427,1,1,,1
w10007153_kab,f2rv34s3rj,Relational_NO_JOL,1,317,2020-04-29T20:35:04-07:00,7.6558508872986,1,versionA_stim.csv,READVersionA.csv,"Read Version A","Relational, read only version A",EVEN,REVENGE,Study2,B,122,139,Test,User,-,,Recall,Recall2,7014,steven,61.538461538462,4392,6572,0,0,,1
w10007153_kab,f2rv34s3rj,Relational_NO_JOL,1,318,2020-04-29T20:35:10-07:00,5.2077469825745,1,versionA_stim.csv,READVersionA.csv,"Read Version A","Relational, read only version A",ALONE,LONELY,Study2,S,145,105,Test,User,-,,Recall,Recall2,4540,,0,-1,-1,0,0,,1
w10007153_kab,f2rv34s3rj,Relational_NO_JOL,1,319,2020-04-29T20:35:27-07:00,17.765776157379,1,versionA_stim.csv,READVersionA.csv,"Read Version A","Relational, read only version A",HONEST,TRUTHFUL,Study2,B,133,154,Test,User,-,,Recall,Recall2,16987,,0,-1,-1,0,0,,1
w10007153_kab,f2rv34s3rj,Relational_NO_JOL,1,320,2020-04-29T20:35:32-07:00,4.8359968662262,1,versionA_stim.csv,READVersionA.csv,"Read Version A","Relational, read only version A",GONE,AWAY,Study2,S,142,150,Test,User,-,,Recall,Recall2,4122,,0,-1,-1,0,0,,1
w10007153_kab,f2rv34s3rj,Relational_NO_JOL,1,321,2020-04-29T20:35:34-07:00,1.9015951156616,1,versionA_stim.csv,READVersionA.csv,"Read Version A","Relational, read only version A",TRUTH,LIE,Study2,S,148,144,Test,User,-,,Recall,Recall2,1238,,0,-1,-1,0,0,,1
w10007153_kab,f2rv34s3rj,Relational_NO_JOL,1,322,2020-04-29T20:35:36-07:00,1.4928770065308,1,versionA_stim.csv,READVersionA.csv,"Read Version A","Relational, read only version A",CHILL,COLD,Study2,F,114,176,Test,User,-,,Recall,Recall2,784,,0,-1,-1,0,0,,1
w10007153_kab,f2rv34s3rj,Relational_NO_JOL,1,323,2020-04-29T20:35:40-07:00,4.2937958240509,1,versionA_stim.csv,READVersionA.csv,"Read Version A","Relational, read only version A",MIRROR,CHILDREN,Study2,U,174,99,Test,User,-,,Recall,Recall2,3555,self,16.666666666667,2124,3154,0,0,,1
w10007153_kab,f2rv34s3rj,Relational_NO_JOL,1,324,2020-04-29T20:35:53-07:00,13.518171072006,1,versionA_stim.csv,READVersionA.csv,"Read Version A","Relational, read only version A",DOCUMENT,PAPER,Study2,F,109,98,Test,User,-,,Recall,Recall2,12741,,0,-1,-1,0,0,,1
w10007153_kab,f2rv34s3rj,Relational_NO_JOL,1,325,2020-04-29T20:35:57-07:00,3.7389810085297,1,versionA_stim.csv,READVersionA.csv,"Read Version A","Relational, read only version A",ADJOURN,END,Study2,F,101,101,Test,User,-,,Recall,Recall2,3023,end,100,2206,2529,1,1,,1
w10007153_kab,f2rv34s3rj,Relational_NO_JOL,1,326,2020-04-29T20:36:00-07:00,2.7594449520111,1,versionA_stim.csv,READVersionA.csv,"Read Version A","Relational, read only version A",DETECTIVE,MYSTERY,Study2,F,100,145,Test,User,-,,Recall,Recall2,1957,,0,-1,-1,0,0,,1
w10007153_kab,f2rv34s3rj,Relational_NO_JOL,1,327,2020-04-29T20:36:04-07:00,3.6015660762787,1,versionA_stim.csv,READVersionA.csv,"Read Version A","Relational, read only version A",CLUE,GAME,Study2,F,97,127,Test,User,-,,Recall,Recall2,2897,game,100,1397,2109,1,1,,1
w10007153_kab,f2rv34s3rj,Relational_NO_JOL,1,328,2020-04-29T20:36:07-07:00,3.4606559276581,1,versionA_stim.csv,READVersionA.csv,"Read Version A","Relational, read only version A",AFFECTION,LOVE,Study2,F,115,149,Test,User,-,,Recall,Recall2,2805,love,100,1779,2425,1,1,,1
w10007153_kab,f2rv34s3rj,Relational_NO_JOL,1,329,2020-04-29T20:36:11-07:00,4.3620190620422,1,versionA_stim.csv,READVersionA.csv,"Read Version A","Relational, read only version A",DRIVER,CAR,Study2,F,106,152,Test,User,-,,Recall,Recall2,3740,license,20,1826,3000,0,0,,1
w10007153_kab,f2rv34s3rj,Relational_NO_JOL,1,330,2020-04-29T20:36:14-07:00,2.5164759159088,1,versionA_stim.csv,READVersionA.csv,"Read Version A","Relational, read only version A",EXTENSION,LONG,Study2,F,96,124,Test,User,-,,Recall,Recall2,1786,,0,-1,-1,0,0,,1
w10007153_kab,f2rv34s3rj,Relational_NO_JOL,1,331,2020-04-29T20:36:30-07:00,16.590371131897,1,versionA_stim.csv,READVersionA.csv,"Read Version A","Relational, read only version A",FISH,SARDINE,Study2,B,130,131,Test,User,-,,Recall,Recall2,15870,sardin,92.307692307692,2735,15082,0,1,,1
w10007153_kab,f2rv34s3rj,Relational_NO_JOL,1,332,2020-04-29T20:36:33-07:00,2.5629489421844,1,versionA_stim.csv,READVersionA.csv,"Read Version A","Relational, read only version A",CAT,PANTHER,Study2,B,126,157,Test,User,-,,Recall,Recall2,1655,,0,-1,-1,0,0,,1
w10007153_kab,f2rv34s3rj,Relational_NO_JOL,1,333,2020-04-29T20:36:35-07:00,1.9325609207153,1,versionA_stim.csv,READVersionA.csv,"Read Version A","Relational, read only version A",MONEY,BANKER,Study2,B,132,140,Test,User,-,,Recall,Recall2,1266,,0,-1,-1,0,0,,1
w10007153_kab,f2rv34s3rj,Relational_NO_JOL,1,334,2020-04-29T20:36:37-07:00,2.2626760005951,1,versionA_stim.csv,READVersionA.csv,"Read Version A","Relational, read only version A",SUN,TAN,Study2,S,155,156,Test,User,-,,Recall,Recall2,1570,,0,-1,-1,0,0,,1
w10007153_kab,f2rv34s3rj,Relational_NO_JOL,1,335,2020-04-29T20:36:42-07:00,4.5316109657288,1,versionA_stim.csv,READVersionA.csv,"Read Version A","Relational, read only version A",LISTEN,FICTION,Study2,U,164,122,Test,User,-,,Recall,Recall2,3780,closely,28.571428571429,1856,3064,0,0,,1
w10007153_kab,f2rv34s3rj,Relational_NO_JOL,1,336,2020-04-29T20:36:46-07:00,4.5360500812531,1,versionA_stim.csv,READVersionA.csv,"Read Version A","Relational, read only version A",FEUD,FIGHT,Study2,F,113,159,Test,User,-,,Recall,Recall2,3722,fight,100,2649,3236,1,1,,1
w10007153_kab,f2rv34s3rj,Relational_NO_JOL,1,337,2020-04-29T20:36:59-07:00,13.122148036957,1,versionA_stim.csv,READVersionA.csv,"Read Version A","Relational, read only version A",FUZZY,BANG,Study2,U,168,151,Test,User,-,,Recall,Recall2,12457,bomb,25,2391,11913,0,0,,1
w10007153_kab,f2rv34s3rj,Relational_NO_JOL,1,338,2020-04-29T20:37:02-07:00,2.2429480552673,1,versionA_stim.csv,READVersionA.csv,"Read Version A","Relational, read only version A",BEST,FAVORITE,Study2,B,125,113,Test,User,-,,Recall,Recall2,1488,,0,-1,-1,0,0,,1
w10007153_kab,f2rv34s3rj,Relational_NO_JOL,1,339,2020-04-29T20:37:03-07:00,1.6997618675232,1,versionA_stim.csv,READVersionA.csv,"Read Version A","Relational, read only version A",KEYS,JOKE,Study2,U,165,112,Test,User,-,,Recall,Recall2,1022,,0,-1,-1,0,0,,1
w10007153_kab,f2rv34s3rj,Relational_NO_JOL,1,340,2020-04-29T20:37:05-07:00,1.3629441261292,1,versionA_stim.csv,READVersionA.csv,"Read Version A","Relational, read only version A",CANDLE,WAX,Study2,S,139,142,Test,User,-,,Recall,Recall2,710,,0,-1,-1,0,0,,1
w10007153_kab,f2rv34s3rj,Relational_NO_JOL,1,341,2020-04-29T20:37:06-07:00,0.96351099014282,1,versionA_stim.csv,READVersionA.csv,"Read Version A","Relational, read only version A",CAKE,CLOTHES,Study2,U,166,137,Test,User,-,,Recall,Recall2,363,,0,-1,-1,0,0,,1
w10007153_kab,f2rv34s3rj,Relational_NO_JOL,1,342,2020-04-29T20:37:07-07:00,1.2491579055786,1,versionA_stim.csv,READVersionA.csv,"Read Version A","Relational, read only version A",CHOP,CUT,Study2,F,107,141,Test,User,-,,Recall,Recall2,432,,0,-1,-1,0,0,,1
w10007153_kab,f2rv34s3rj,Relational_NO_JOL,1,343,2020-04-29T20:37:08-07:00,1.1402189731598,1,versionA_stim.csv,READVersionA.csv,"Read Version A","Relational, read only version A",FIGHT,BRAWL,Study2,B,135,163,Test,User,-,,Recall,Recall2,458,,0,-1,-1,0,0,,1
w10007153_kab,f2rv34s3rj,Relational_NO_JOL,1,344,2020-04-29T20:37:09-07:00,1.082848072052,1,versionA_stim.csv,READVersionA.csv,"Read Version A","Relational, read only version A",BOTH,OUNCE,Study2,U,172,123,Test,User,-,,Recall,Recall2,347,,0,-1,-1,0,0,,1
w10007153_kab,f2rv34s3rj,Relational_NO_JOL,1,345,2020-04-29T20:39:24-07:00,135.27565312386,1,versionA_stim.csv,READVersionA.csv,"Read Version A","Relational, read only version A",CACTUS,PLANT,Study2,F,98,166,Test,User,-,,Recall,Recall2,134523,plant,100,131915,133643,1,1,,1
w10007153_kab,f2rv34s3rj,Relational_NO_JOL,1,346,2020-04-29T20:39:36-07:00,11.341519832611,1,versionA_stim.csv,READVersionA.csv,"Read Version A","Relational, read only version A",STAR,ACTRESS,Study2,B,120,106,Test,User,-,,Recall,Recall2,10491,,0,-1,-1,0,0,,1
w10007153_kab,f2rv34s3rj,Relational_NO_JOL,1,347,2020-04-29T20:39:42-07:00,5.7699530124664,1,versionA_stim.csv,READVersionA.csv,"Read Version A","Relational, read only version A",BASEBALL,LEAGUE,Study2,B,131,132,Test,User,-,,Recall,Recall2,5106,,0,-1,-1,0,0,,1
w10007153_kab,f2rv34s3rj,Relational_NO_JOL,1,348,2020-04-29T20:39:49-07:00,7.1394779682159,1,versionA_stim.csv,READVersionA.csv,"Read Version A","Relational, read only version A",THREAD,THIMBLE,Study2,B,121,109,Test,User,-,,Recall,Recall2,6470,,0,-1,-1,0,0,,1
w10007153_kab,f2rv34s3rj,Relational_NO_JOL,1,349,2020-04-29T20:39:50-07:00,1.3140711784363,1,versionA_stim.csv,READVersionA.csv,"Read Version A","Relational, read only version A",CRACKLE,ABLE,Study2,U,162,172,Test,User,-,,Recall,Recall2,661,,0,-1,-1,0,0,,1
w10007153_kab,f2rv34s3rj,Relational_NO_JOL,1,350,2020-04-29T20:39:52-07:00,1.7772798538208,1,versionA_stim.csv,READVersionA.csv,"Read Version A","Relational, read only version A",MAZE,ELECTION,Study2,U,159,119,Test,User,-,,Recall,Recall2,1115,,0,-1,-1,0,0,,1
w10007153_kab,f2rv34s3rj,Relational_NO_JOL,1,351,2020-04-29T20:39:53-07:00,0.80853700637817,1,versionA_stim.csv,READVersionA.csv,"Read Version A","Relational, read only version A",OWN,HAVE,Study2,S,153,155,Test,User,-,,Recall,Recall2,99,,0,-1,-1,0,0,,1
w10007153_kab,f2rv34s3rj,Relational_NO_JOL,1,352,2020-04-29T20:39:54-07:00,1.2857990264893,1,versionA_stim.csv,READVersionA.csv,"Read Version A","Relational, read only version A",SHOELACE,TIE,Study2,F,99,97,Test,User,-,,Recall,Recall2,65,,0,-1,-1,0,0,,1
w10007153_kab,f2rv34s3rj,Relational_NO_JOL,1,353,2020-04-29T20:39:55-07:00,0.94994211196899,1,versionA_stim.csv,READVersionA.csv,"Read Version A","Relational, read only version A",LITTER,TRASH,Study2,F,103,169,Test,User,-,,Recall,Recall2,148,,0,-1,-1,0,0,,1
w10007153_kab,f2rv34s3rj,Relational_NO_JOL,1,354,2020-04-29T20:39:56-07:00,0.99868488311768,1,versionA_stim.csv,READVersionA.csv,"Read Version A","Relational, read only version A",BIRD,PENGUIN,Study2,B,119,118,Test,User,-,,Recall,Recall2,76,,0,-1,-1,0,0,,1
w10007153_kab,f2rv34s3rj,Relational_NO_JOL,1,355,2020-04-29T20:39:57-07:00,1.060919046402,1,versionA_stim.csv,READVersionA.csv,"Read Version A","Relational, read only version A",ROD,REEL,Study2,S,150,125,Test,User,-,,Recall,Recall2,452,,0,-1,-1,0,0,,1
w10007153_kab,f2rv34s3rj,Relational_NO_JOL,1,356,2020-04-29T20:39:58-07:00,0.76565599441528,1,versionA_stim.csv,READVersionA.csv,"Read Version A","Relational, read only version A",SLEEP,NAP,Study2,B,134,110,Test,User,-,,Recall,Recall2,59,,0,-1,-1,0,0,,1
w10007153_kab,f2rv34s3rj,Relational_NO_JOL,1,357,2020-04-29T20:39:58-07:00,0.73403406143188,1,versionA_stim.csv,READVersionA.csv,"Read Version A","Relational, read only version A",LEASE,TOIL,Study2,U,170,100,Test,User,-,,Recall,Recall2,75,,0,-1,-1,0,0,,1
w10007153_kab,f2rv34s3rj,Relational_NO_JOL,1,358,2020-04-29T20:40:00-07:00,1.2822229862213,1,versionA_stim.csv,READVersionA.csv,"Read Version A","Relational, read only version A",TANTRUM,TEMPER,Study2,S,154,103,Test,User,-,,Recall,Recall2,410,,0,-1,-1,0,0,,1
w10007153_kab,f2rv34s3rj,Relational_NO_JOL,1,359,2020-04-29T20:40:00-07:00,0.80065488815308,1,versionA_stim.csv,READVersionA.csv,"Read Version A","Relational, read only version A",TEMPERATURE,Morning,Study2,U,173,115,Test,User,-,,Recall,Recall2,91,,0,-1,-1,0,0,,1
w10007153_kab,f2rv34s3rj,Relational_NO_JOL,1,360,2020-04-29T20:40:02-07:00,1.2301959991455,1,versionA_stim.csv,READVersionA.csv,"Read Version A","Relational, read only version A",VEHICLE,CHARM,Study2,U,160,173,Test,User,-,,Recall,Recall2,520,,0,-1,-1,0,0,,1
w10007153_kab,f2rv34s3rj,Relational_NO_JOL,1,361,2020-04-29T20:40:02-07:00,0.70417594909668,1,versionA_stim.csv,READVersionA.csv,"Read Version A","Relational, read only version A",,,,,,0,Instruct,User,-,"You have completed this section. Please press Enter.",,Instruct7,77,,,-1,-1,,,,1
w10007153_kab,f2rv34s3rj,Relational_NO_JOL,1,362,2020-04-29T20:40:03-07:00,0.70979809761047,1,versionA_stim.csv,READVersionA.csv,"Read Version A","Relational, read only version A",,,,,,0,Instruct,User,-,"The following screen will ask you a few questions abour your experience today. You must complete these questions to receive credit.",,Instruct8,11,,,-1,-1,,,,1
