Username,ID,ExperimentName,Session,Trial,Date,TimeDif,"Condition Number","Stimuli File","Order File","Condition Description","Condition Notes",Stimuli*Cue,Stimuli*Answer,Stimuli*Shuffle,"Stimuli*Stimuli Notes",Stimuli*Value,Procedure*Item,"Procedure*Trial Type","Procedure*Max Time","Procedure*Min Time",Procedure*Text,"Procedure*Procedure Notes",Procedure*Shuffle,Response*RT,Response*Response,Response*Accuracy,Response*RTfirst,Response*RTlast,Response*strictAcc,Response*lenientAcc,Response*focus,Response*Focus
w10041110MM,36jia9uj1l,Relational_NO_JOL,1,1,2020-05-05T14:37:28-07:00,22.320574998856,1,versionA_stim.csv,READVersionA.csv,"Read Version A","Relational, read only version A",,,,,,0,Instruct,-,10,"In this section, you will be presented with a series of word pairs. Please study both items in the pair.",,Instruct13,22037,,,-1,-1,,,,1
w10041110MM,36jia9uj1l,Relational_NO_JOL,1,2,2020-05-05T14:37:48-07:00,20.326472997665,1,versionA_stim.csv,READVersionA.csv,"Read Version A","Relational, read only version A",,,,,,0,Instruct,-,15,"As you study, please think about how the two concepts are RELATED to each other. For example, if you see the pair TURTLE-CAT, think about how both are alive, they are both animals, and both can be kept as pets.",,Instruct19,19963,,,-1,-1,,,,1
w10041110MM,36jia9uj1l,Relational_NO_JOL,1,3,2020-05-05T14:38:26-07:00,37.951545000076,1,versionA_stim.csv,READVersionA.csv,"Read Version A","Relational, read only version A",,,,,,0,FreeRecall,-,10,"What you should think about as you study each item pair? Type your response in the box below.",,CHECK1,37597,"how they are related, because that can help with remembering the pair.",0,8400,36305,0,0,,1
w10041110MM,36jia9uj1l,Relational_NO_JOL,1,4,2020-05-05T14:38:29-07:00,2.9831829071045,1,versionA_stim.csv,READVersionA.csv,"Read Version A","Relational, read only version A",,,,,,0,Instruct,User,-,"You will now begin the experiment. Press ENTER when you are ready to begin.",,Instruct000,2708,,,-1,-1,,,,1
w10041110MM,36jia9uj1l,Relational_NO_JOL,1,5,2020-05-05T14:38:41-07:00,12.082948207855,1,versionA_stim.csv,READVersionA.csv,"Read Version A","Relational, read only version A",PEANUT,BUTTER,BUFFER1,Buffer,3,3,Study,User,-,,Study/JOL,BUFFER,11729,,,-1,-1,,,,1
w10041110MM,36jia9uj1l,Relational_NO_JOL,1,6,2020-05-05T14:38:47-07:00,6.0732867717743,1,versionA_stim.csv,READVersionA.csv,"Read Version A","Relational, read only version A",TREES,GREEN,BUFFER1,Buffer,1,4,Study,User,-,,Study/JOL,BUFFER,5793,,,-1,-1,,,,1
w10041110MM,36jia9uj1l,Relational_NO_JOL,1,7,2020-05-05T14:38:59-07:00,11.721447229385,1,versionA_stim.csv,READVersionA.csv,"Read Version A","Relational, read only version A",BASEBALL,CATCHER,BUFFER1,Buffer,2,6,Study,User,-,,Study/JOL,BUFFER,11148,,,-1,-1,,,,1
w10041110MM,36jia9uj1l,Relational_NO_JOL,1,8,2020-05-05T14:39:17-07:00,18.005445957184,1,versionA_stim.csv,READVersionA.csv,"Read Version A","Relational, read only version A",SCARE,HIDE,BUFFER1,Buffer,4,2,Study,User,-,,Study/JOL,BUFFER,17667,,,-1,-1,,,,1
w10041110MM,36jia9uj1l,Relational_NO_JOL,1,9,2020-05-05T14:39:35-07:00,18.159438848495,1,versionA_stim.csv,READVersionA.csv,"Read Version A","Relational, read only version A",SPACE,JAM,BUFFER1,Buffer,5,5,Study,User,-,,Study/JOL,BUFFER,17820,,,-1,-1,,,,1
w10041110MM,36jia9uj1l,Relational_NO_JOL,1,10,2020-05-05T14:40:01-07:00,26.146871089935,1,versionA_stim.csv,READVersionA.csv,"Read Version A","Relational, read only version A",PLANE,PILOT,Study1,B,44,65,Study,User,-,,Study/JOL,"Study Phase",25797,,,-1,-1,,,,1
w10041110MM,36jia9uj1l,Relational_NO_JOL,1,11,2020-05-05T14:40:21-07:00,20.298398017883,1,versionA_stim.csv,READVersionA.csv,"Read Version A","Relational, read only version A",GEOLOGY,ROCK,Study1,F,19,61,Study,User,-,,Study/JOL,"Study Phase",19879,,,-1,-1,,,,1
w10041110MM,36jia9uj1l,Relational_NO_JOL,1,12,2020-05-05T14:41:46-07:00,84.054255962372,1,versionA_stim.csv,READVersionA.csv,"Read Version A","Relational, read only version A",SOON,BELT,Study1,U,70,52,Study,User,-,,Study/JOL,"Study Phase",83697,,,-1,-1,,,,1
w10041110MM,36jia9uj1l,Relational_NO_JOL,1,13,2020-05-05T14:41:52-07:00,6.1230709552765,1,versionA_stim.csv,READVersionA.csv,"Read Version A","Relational, read only version A",BABY,CHILD,Study1,S,64,57,Study,User,-,,Study/JOL,"Study Phase",5858,,,-1,-1,,,,1
w10041110MM,36jia9uj1l,Relational_NO_JOL,1,14,2020-05-05T14:42:01-07:00,8.9912850856781,1,versionA_stim.csv,READVersionA.csv,"Read Version A","Relational, read only version A",DUMP,WASTE,Study1,S,49,44,Study,User,-,,Study/JOL,"Study Phase",8724,,,-1,-1,,,,1
w10041110MM,36jia9uj1l,Relational_NO_JOL,1,15,2020-05-05T14:42:06-07:00,5.1462149620056,1,versionA_stim.csv,READVersionA.csv,"Read Version A","Relational, read only version A",FIRE,BLAZE,Study1,B,45,17,Study,User,-,,Study/JOL,"Study Phase",4884,,,-1,-1,,,,1
w10041110MM,36jia9uj1l,Relational_NO_JOL,1,16,2020-05-05T14:42:09-07:00,3.2384920120239,1,versionA_stim.csv,READVersionA.csv,"Read Version A","Relational, read only version A",WAY,OUT,Study1,F,16,55,Study,User,-,,Study/JOL,"Study Phase",2976,,,-1,-1,,,,1
w10041110MM,36jia9uj1l,Relational_NO_JOL,1,17,2020-05-05T14:42:14-07:00,4.5794539451599,1,versionA_stim.csv,READVersionA.csv,"Read Version A","Relational, read only version A",LOCATION,SITE,Study1,S,48,64,Study,User,-,,Study/JOL,"Study Phase",4307,,,-1,-1,,,,1
w10041110MM,36jia9uj1l,Relational_NO_JOL,1,18,2020-05-05T14:42:21-07:00,7.3179180622101,1,versionA_stim.csv,READVersionA.csv,"Read Version A","Relational, read only version A",NUMBER,AMOUNT,Study1,S,47,49,Study,User,-,,Study/JOL,"Study Phase",5929,,,-1,-1,,,,1
w10041110MM,36jia9uj1l,Relational_NO_JOL,1,19,2020-05-05T14:42:29-07:00,8.4242649078369,1,versionA_stim.csv,READVersionA.csv,"Read Version A","Relational, read only version A",HERD,COW,Study1,F,22,12,Study,User,-,,Study/JOL,"Study Phase",8153,,,-1,-1,,,,1
w10041110MM,36jia9uj1l,Relational_NO_JOL,1,20,2020-05-05T14:42:36-07:00,6.165167093277,1,versionA_stim.csv,READVersionA.csv,"Read Version A","Relational, read only version A",HIDE,SICK,Study1,U,84,43,Study,User,-,,Study/JOL,"Study Phase",5906,,,-1,-1,,,,1
w10041110MM,36jia9uj1l,Relational_NO_JOL,1,21,2020-05-05T14:42:42-07:00,6.7687880992889,1,versionA_stim.csv,READVersionA.csv,"Read Version A","Relational, read only version A",MATH,DIVISION,Study1,B,33,56,Study,User,-,,Study/JOL,"Study Phase",6496,,,-1,-1,,,,1
w10041110MM,36jia9uj1l,Relational_NO_JOL,1,22,2020-05-05T14:42:49-07:00,6.9749879837036,1,versionA_stim.csv,READVersionA.csv,"Read Version A","Relational, read only version A",KEY,LATCH,Study1,B,36,38,Study,User,-,,Study/JOL,"Study Phase",5703,,,-1,-1,,,,1
w10041110MM,36jia9uj1l,Relational_NO_JOL,1,23,2020-05-05T14:42:54-07:00,5.1803109645844,1,versionA_stim.csv,READVersionA.csv,"Read Version A","Relational, read only version A",CREDIT,CARD,Study1,F,23,81,Study,User,-,,Study/JOL,"Study Phase",4908,,,-1,-1,,,,1
w10041110MM,36jia9uj1l,Relational_NO_JOL,1,24,2020-05-05T14:42:59-07:00,4.7688779830933,1,versionA_stim.csv,READVersionA.csv,"Read Version A","Relational, read only version A",DEATH,BUSINESS,Study1,U,72,75,Study,User,-,,Study/JOL,"Study Phase",4509,,,-1,-1,,,,1
w10041110MM,36jia9uj1l,Relational_NO_JOL,1,25,2020-05-05T14:43:05-07:00,6.0631818771362,1,versionA_stim.csv,READVersionA.csv,"Read Version A","Relational, read only version A",HEIGHT,GROWTH,Study1,B,30,10,Study,User,-,,Study/JOL,"Study Phase",5804,,,-1,-1,,,,1
w10041110MM,36jia9uj1l,Relational_NO_JOL,1,26,2020-05-05T14:43:09-07:00,3.5254430770874,1,versionA_stim.csv,READVersionA.csv,"Read Version A","Relational, read only version A",TUNA,FISH,Study1,F,25,84,Study,User,-,,Study/JOL,"Study Phase",3268,,,-1,-1,,,,1
w10041110MM,36jia9uj1l,Relational_NO_JOL,1,27,2020-05-05T14:43:13-07:00,4.5832939147949,1,versionA_stim.csv,READVersionA.csv,"Read Version A","Relational, read only version A",FIX,HAND,Study1,U,75,67,Study,User,-,,Study/JOL,"Study Phase",4331,,,-1,-1,,,,1
w10041110MM,36jia9uj1l,Relational_NO_JOL,1,28,2020-05-05T14:43:20-07:00,6.5837121009827,1,versionA_stim.csv,READVersionA.csv,"Read Version A","Relational, read only version A",MEANING,DEFINITION,Study1,S,62,73,Study,User,-,,Study/JOL,"Study Phase",6313,,,-1,-1,,,,1
w10041110MM,36jia9uj1l,Relational_NO_JOL,1,29,2020-05-05T14:43:25-07:00,5.3223879337311,1,versionA_stim.csv,READVersionA.csv,"Read Version A","Relational, read only version A",CIRCLE,ROUND,Study1,S,65,48,Study,User,-,,Study/JOL,"Study Phase",4024,,,-1,-1,,,,1
w10041110MM,36jia9uj1l,Relational_NO_JOL,1,30,2020-05-05T14:43:29-07:00,3.7981600761414,1,versionA_stim.csv,READVersionA.csv,"Read Version A","Relational, read only version A",BLOW,WIND,Study1,S,55,31,Study,User,-,,Study/JOL,"Study Phase",3528,,,-1,-1,,,,1
w10041110MM,36jia9uj1l,Relational_NO_JOL,1,31,2020-05-05T14:43:34-07:00,4.6645638942719,1,versionA_stim.csv,READVersionA.csv,"Read Version A","Relational, read only version A",TRIAL,JURY,Study1,S,50,14,Study,User,-,,Study/JOL,"Study Phase",4362,,,-1,-1,,,,1
w10041110MM,36jia9uj1l,Relational_NO_JOL,1,32,2020-05-05T14:43:38-07:00,4.1311910152435,1,versionA_stim.csv,READVersionA.csv,"Read Version A","Relational, read only version A",LIFT,WOMAN,Study1,U,69,18,Study,User,-,,Study/JOL,"Study Phase",3880,,,-1,-1,,,,1
w10041110MM,36jia9uj1l,Relational_NO_JOL,1,33,2020-05-05T14:43:45-07:00,7.2187790870667,1,versionA_stim.csv,READVersionA.csv,"Read Version A","Relational, read only version A",BALL,RACKET,Study1,B,38,60,Study,User,-,,Study/JOL,"Study Phase",6958,,,-1,-1,,,,1
w10041110MM,36jia9uj1l,Relational_NO_JOL,1,34,2020-05-05T14:43:49-07:00,3.6992139816284,1,versionA_stim.csv,READVersionA.csv,"Read Version A","Relational, read only version A",HAPPY,CAR,Study1,U,77,47,Study,User,-,,Study/JOL,"Study Phase",3430,,,-1,-1,,,,1
w10041110MM,36jia9uj1l,Relational_NO_JOL,1,35,2020-05-05T14:43:58-07:00,8.7203149795532,1,versionA_stim.csv,READVersionA.csv,"Read Version A","Relational, read only version A",DELINQUENT,BAD,Study1,F,6,62,Study,User,-,,Study/JOL,"Study Phase",8444,,,-1,-1,,,,1
w10041110MM,36jia9uj1l,Relational_NO_JOL,1,36,2020-05-05T14:44:06-07:00,8.2770159244537,1,versionA_stim.csv,READVersionA.csv,"Read Version A","Relational, read only version A",SLEEP,DROWSY,Study1,B,41,66,Study,User,-,,Study/JOL,"Study Phase",7997,,,-1,-1,,,,1
w10041110MM,36jia9uj1l,Relational_NO_JOL,1,37,2020-05-05T14:44:12-07:00,5.7268559932709,1,versionA_stim.csv,READVersionA.csv,"Read Version A","Relational, read only version A",BRIDGE,WATER,Study1,F,18,41,Study,User,-,,Study/JOL,"Study Phase",5451,,,-1,-1,,,,1
w10041110MM,36jia9uj1l,Relational_NO_JOL,1,38,2020-05-05T14:44:20-07:00,8.808552980423,1,versionA_stim.csv,READVersionA.csv,"Read Version A","Relational, read only version A",ARCHITECTURE,DESIGN,Study1,S,51,28,Study,User,-,,Study/JOL,"Study Phase",8548,,,-1,-1,,,,1
w10041110MM,36jia9uj1l,Relational_NO_JOL,1,39,2020-05-05T14:44:25-07:00,5.0692360401154,1,versionA_stim.csv,READVersionA.csv,"Read Version A","Relational, read only version A",DEBATE,SIGHT,Study1,U,73,40,Study,User,-,,Study/JOL,"Study Phase",4808,,,-1,-1,,,,1
w10041110MM,36jia9uj1l,Relational_NO_JOL,1,40,2020-05-05T14:44:32-07:00,6.8963620662689,1,versionA_stim.csv,READVersionA.csv,"Read Version A","Relational, read only version A",STRONG,ACCIDENT,Study1,U,80,59,Study,User,-,,Study/JOL,"Study Phase",6640,,,-1,-1,,,,1
w10041110MM,36jia9uj1l,Relational_NO_JOL,1,41,2020-05-05T14:44:39-07:00,6.3553900718689,1,versionA_stim.csv,READVersionA.csv,"Read Version A","Relational, read only version A",DIGESTION,STOMACH,Study1,F,7,50,Study,User,-,,Study/JOL,"Study Phase",6090,,,-1,-1,,,,1
w10041110MM,36jia9uj1l,Relational_NO_JOL,1,42,2020-05-05T14:44:43-07:00,4.5948150157928,1,versionA_stim.csv,READVersionA.csv,"Read Version A","Relational, read only version A",SENTENCE,WORD,Study1,B,31,27,Study,User,-,,Study/JOL,"Study Phase",4322,,,-1,-1,,,,1
w10041110MM,36jia9uj1l,Relational_NO_JOL,1,43,2020-05-05T14:44:47-07:00,4.189131975174,1,versionA_stim.csv,READVersionA.csv,"Read Version A","Relational, read only version A",SUGAR,RIDDLE,Study1,U,81,79,Study,User,-,,Study/JOL,"Study Phase",3927,,,-1,-1,,,,1
w10041110MM,36jia9uj1l,Relational_NO_JOL,1,44,2020-05-05T14:44:52-07:00,4.2439699172974,1,versionA_stim.csv,READVersionA.csv,"Read Version A","Relational, read only version A",,,,,,0,Instruct,-,3,"Remember to focus on how the two items are similiar while you study!",,CHECK2,3995,,,-1,-1,,,,1
w10041110MM,36jia9uj1l,Relational_NO_JOL,1,45,2020-05-05T14:44:59-07:00,6.9581189155579,1,versionA_stim.csv,READVersionA.csv,"Read Version A","Relational, read only version A",CLOTHES,ATTIRE,Study1,B,43,69,Study,User,-,,Study/JOL,"Study Phase",5698,,,-1,-1,,,,1
w10041110MM,36jia9uj1l,Relational_NO_JOL,1,46,2020-05-05T14:45:03-07:00,4.5997920036316,1,versionA_stim.csv,READVersionA.csv,"Read Version A","Relational, read only version A",LETTUCE,SALAD,Study1,S,59,22,Study,User,-,,Study/JOL,"Study Phase",4296,,,-1,-1,,,,1
w10041110MM,36jia9uj1l,Relational_NO_JOL,1,47,2020-05-05T14:45:07-07:00,3.4768462181091,1,versionA_stim.csv,READVersionA.csv,"Read Version A","Relational, read only version A",BUG,WASP,Study1,B,32,26,Study,User,-,,Study/JOL,"Study Phase",3210,,,-1,-1,,,,1
w10041110MM,36jia9uj1l,Relational_NO_JOL,1,48,2020-05-05T14:45:13-07:00,6.2004728317261,1,versionA_stim.csv,READVersionA.csv,"Read Version A","Relational, read only version A",CASH,WOULD,Study1,U,83,20,Study,User,-,,Study/JOL,"Study Phase",5941,,,-1,-1,,,,1
w10041110MM,36jia9uj1l,Relational_NO_JOL,1,49,2020-05-05T14:45:17-07:00,4.3183500766754,1,versionA_stim.csv,READVersionA.csv,"Read Version A","Relational, read only version A",KING,VASE,Study1,U,85,51,Study,User,-,,Study/JOL,"Study Phase",4065,,,-1,-1,,,,1
w10041110MM,36jia9uj1l,Relational_NO_JOL,1,50,2020-05-05T14:45:26-07:00,8.6354920864105,1,versionA_stim.csv,READVersionA.csv,"Read Version A","Relational, read only version A",MACHINE,POSITION,Study1,U,76,7,Study,User,-,,Study/JOL,"Study Phase",8363,,,-1,-1,,,,1
w10041110MM,36jia9uj1l,Relational_NO_JOL,1,51,2020-05-05T14:45:32-07:00,6.5222380161285,1,versionA_stim.csv,READVersionA.csv,"Read Version A","Relational, read only version A",ALLOW,TUCK,Study1,U,78,63,Study,User,-,,Study/JOL,"Study Phase",6253,,,-1,-1,,,,1
w10041110MM,36jia9uj1l,Relational_NO_JOL,1,52,2020-05-05T14:45:39-07:00,6.6834309101105,1,versionA_stim.csv,READVersionA.csv,"Read Version A","Relational, read only version A",VALLEY,ADD,Study1,U,82,8,Study,User,-,,Study/JOL,"Study Phase",6424,,,-1,-1,,,,1
w10041110MM,36jia9uj1l,Relational_NO_JOL,1,53,2020-05-05T14:45:46-07:00,6.8974239826202,1,versionA_stim.csv,READVersionA.csv,"Read Version A","Relational, read only version A",BITTER,COLD,Study1,F,12,13,Study,User,-,,Study/JOL,"Study Phase",6633,,,-1,-1,,,,1
w10041110MM,36jia9uj1l,Relational_NO_JOL,1,54,2020-05-05T14:45:50-07:00,4.187469959259,1,versionA_stim.csv,READVersionA.csv,"Read Version A","Relational, read only version A",WINE,CHEESE,Study1,S,57,86,Study,User,-,,Study/JOL,"Study Phase",3898,,,-1,-1,,,,1
w10041110MM,36jia9uj1l,Relational_NO_JOL,1,55,2020-05-05T14:45:56-07:00,6.3208589553833,1,versionA_stim.csv,READVersionA.csv,"Read Version A","Relational, read only version A",PAST,FUTURE,Study1,S,61,85,Study,User,-,,Study/JOL,"Study Phase",6053,,,-1,-1,,,,1
w10041110MM,36jia9uj1l,Relational_NO_JOL,1,56,2020-05-05T14:46:05-07:00,8.9064800739288,1,versionA_stim.csv,READVersionA.csv,"Read Version A","Relational, read only version A",DIETARY,SACKING,Study1,U,67,35,Study,User,-,,Study/JOL,"Study Phase",8253,,,-1,-1,,,,1
w10041110MM,36jia9uj1l,Relational_NO_JOL,1,57,2020-05-05T14:46:10-07:00,4.4056279659271,1,versionA_stim.csv,READVersionA.csv,"Read Version A","Relational, read only version A",GREAT,FANTASTIC,Study1,B,35,58,Study,User,-,,Study/JOL,"Study Phase",4132,,,-1,-1,,,,1
w10041110MM,36jia9uj1l,Relational_NO_JOL,1,58,2020-05-05T14:46:13-07:00,3.3123300075531,1,versionA_stim.csv,READVersionA.csv,"Read Version A","Relational, read only version A",HONEY,BEE,Study1,S,63,33,Study,User,-,,Study/JOL,"Study Phase",3059,,,-1,-1,,,,1
w10041110MM,36jia9uj1l,Relational_NO_JOL,1,59,2020-05-05T14:46:20-07:00,6.4714069366455,1,versionA_stim.csv,READVersionA.csv,"Read Version A","Relational, read only version A",LAW,ATTORNEY,Study1,B,34,76,Study,User,-,,Study/JOL,"Study Phase",6205,,,-1,-1,,,,1
w10041110MM,36jia9uj1l,Relational_NO_JOL,1,60,2020-05-05T14:46:24-07:00,3.9385170936584,1,versionA_stim.csv,READVersionA.csv,"Read Version A","Relational, read only version A",WORK,CHORE,Study1,B,39,21,Study,User,-,,Study/JOL,"Study Phase",3668,,,-1,-1,,,,1
w10041110MM,36jia9uj1l,Relational_NO_JOL,1,61,2020-05-05T14:46:29-07:00,5.6349549293518,1,versionA_stim.csv,READVersionA.csv,"Read Version A","Relational, read only version A",HYGIENE,CLEAN,Study1,F,17,37,Study,User,-,,Study/JOL,"Study Phase",4998,,,-1,-1,,,,1
w10041110MM,36jia9uj1l,Relational_NO_JOL,1,62,2020-05-05T14:46:35-07:00,5.6520700454712,1,versionA_stim.csv,READVersionA.csv,"Read Version A","Relational, read only version A",SMELL,STENCH,Study1,B,42,34,Study,User,-,,Study/JOL,"Study Phase",5385,,,-1,-1,,,,1
w10041110MM,36jia9uj1l,Relational_NO_JOL,1,63,2020-05-05T14:46:39-07:00,3.7979009151459,1,versionA_stim.csv,READVersionA.csv,"Read Version A","Relational, read only version A",ART,LION,Study1,U,79,83,Study,User,-,,Study/JOL,"Study Phase",3544,,,-1,-1,,,,1
w10041110MM,36jia9uj1l,Relational_NO_JOL,1,64,2020-05-05T14:46:42-07:00,3.455726146698,1,versionA_stim.csv,READVersionA.csv,"Read Version A","Relational, read only version A",HOT,CHILI,Study1,B,37,39,Study,User,-,,Study/JOL,"Study Phase",3200,,,-1,-1,,,,1
w10041110MM,36jia9uj1l,Relational_NO_JOL,1,65,2020-05-05T14:46:46-07:00,4.1288430690765,1,versionA_stim.csv,READVersionA.csv,"Read Version A","Relational, read only version A",POP,SODA,Study1,S,56,23,Study,User,-,,Study/JOL,"Study Phase",3868,,,-1,-1,,,,1
w10041110MM,36jia9uj1l,Relational_NO_JOL,1,66,2020-05-05T14:46:50-07:00,3.607106924057,1,versionA_stim.csv,READVersionA.csv,"Read Version A","Relational, read only version A",PAW,DOG,Study1,F,15,30,Study,User,-,,Study/JOL,"Study Phase",3330,,,-1,-1,,,,1
w10041110MM,36jia9uj1l,Relational_NO_JOL,1,67,2020-05-05T14:47:02-07:00,12.192806959152,1,versionA_stim.csv,READVersionA.csv,"Read Version A","Relational, read only version A",CHISEL,HAMMER,Study1,F,9,78,Study,User,-,,Study/JOL,"Study Phase",11860,,,-1,-1,,,,1
w10041110MM,36jia9uj1l,Relational_NO_JOL,1,68,2020-05-05T14:47:07-07:00,4.9296278953552,1,versionA_stim.csv,READVersionA.csv,"Read Version A","Relational, read only version A",PUSHER,CLUTTER,Study1,U,66,80,Study,User,-,,Study/JOL,"Study Phase",4646,,,-1,-1,,,,1
w10041110MM,36jia9uj1l,Relational_NO_JOL,1,69,2020-05-05T14:47:12-07:00,5.3855321407318,1,versionA_stim.csv,READVersionA.csv,"Read Version A","Relational, read only version A",DISCOVER,FLOOR,Study1,U,71,54,Study,User,-,,Study/JOL,"Study Phase",5114,,,-1,-1,,,,1
w10041110MM,36jia9uj1l,Relational_NO_JOL,1,70,2020-05-05T14:47:20-07:00,7.4476420879364,1,versionA_stim.csv,READVersionA.csv,"Read Version A","Relational, read only version A",EDITOR,NEWS,Study1,F,10,74,Study,User,-,,Study/JOL,"Study Phase",7190,,,-1,-1,,,,1
w10041110MM,36jia9uj1l,Relational_NO_JOL,1,71,2020-05-05T14:47:27-07:00,6.8187038898468,1,versionA_stim.csv,READVersionA.csv,"Read Version A","Relational, read only version A",ARTERY,BRONZE,Study1,U,74,77,Study,User,-,,Study/JOL,"Study Phase",6483,,,-1,-1,,,,1
w10041110MM,36jia9uj1l,Relational_NO_JOL,1,72,2020-05-05T14:47:30-07:00,3.7691919803619,1,versionA_stim.csv,READVersionA.csv,"Read Version A","Relational, read only version A",WAGE,MONEY,Study1,F,8,24,Study,User,-,,Study/JOL,"Study Phase",3512,,,-1,-1,,,,1
w10041110MM,36jia9uj1l,Relational_NO_JOL,1,73,2020-05-05T14:47:34-07:00,3.867919921875,1,versionA_stim.csv,READVersionA.csv,"Read Version A","Relational, read only version A",DRINK,SIP,Study1,B,27,72,Study,User,-,,Study/JOL,"Study Phase",3617,,,-1,-1,,,,1
w10041110MM,36jia9uj1l,Relational_NO_JOL,1,74,2020-05-05T14:47:39-07:00,4.7734141349792,1,versionA_stim.csv,READVersionA.csv,"Read Version A","Relational, read only version A",DARK,CAVE,Study1,B,28,19,Study,User,-,,Study/JOL,"Study Phase",4511,,,-1,-1,,,,1
w10041110MM,36jia9uj1l,Relational_NO_JOL,1,75,2020-05-05T14:47:44-07:00,4.9372360706329,1,versionA_stim.csv,READVersionA.csv,"Read Version A","Relational, read only version A",BATHROOM,TOILET,Study1,S,58,25,Study,User,-,,Study/JOL,"Study Phase",4673,,,-1,-1,,,,1
w10041110MM,36jia9uj1l,Relational_NO_JOL,1,76,2020-05-05T14:47:48-07:00,4.3680489063263,1,versionA_stim.csv,READVersionA.csv,"Read Version A","Relational, read only version A",FULL,ENOUGH,Study1,B,26,32,Study,User,-,,Study/JOL,"Study Phase",4112,,,-1,-1,,,,1
w10041110MM,36jia9uj1l,Relational_NO_JOL,1,77,2020-05-05T14:47:51-07:00,3.1501178741455,1,versionA_stim.csv,READVersionA.csv,"Read Version A","Relational, read only version A",SHOE,FOOT,Study1,S,60,70,Study,User,-,,Study/JOL,"Study Phase",2886,,,-1,-1,,,,1
w10041110MM,36jia9uj1l,Relational_NO_JOL,1,78,2020-05-05T14:47:58-07:00,6.9582090377808,1,versionA_stim.csv,READVersionA.csv,"Read Version A","Relational, read only version A",DUE,ASSIGNMENT,Study1,S,46,42,Study,User,-,,Study/JOL,"Study Phase",6695,,,-1,-1,,,,1
w10041110MM,36jia9uj1l,Relational_NO_JOL,1,79,2020-05-05T14:48:04-07:00,6.1028060913086,1,versionA_stim.csv,READVersionA.csv,"Read Version A","Relational, read only version A",SWAN,BIRD,Study1,F,14,16,Study,User,-,,Study/JOL,"Study Phase",5841,,,-1,-1,,,,1
w10041110MM,36jia9uj1l,Relational_NO_JOL,1,80,2020-05-05T14:48:10-07:00,5.3607730865479,1,versionA_stim.csv,READVersionA.csv,"Read Version A","Relational, read only version A",HUNGER,FAMINE,Study1,B,40,36,Study,User,-,,Study/JOL,"Study Phase",5106,,,-1,-1,,,,1
w10041110MM,36jia9uj1l,Relational_NO_JOL,1,81,2020-05-05T14:48:23-07:00,13.340357780457,1,versionA_stim.csv,READVersionA.csv,"Read Version A","Relational, read only version A",DISCUSSION,TALK,Study1,F,21,68,Study,User,-,,Study/JOL,"Study Phase",13009,,,-1,-1,,,,1
w10041110MM,36jia9uj1l,Relational_NO_JOL,1,82,2020-05-05T14:48:29-07:00,6.2940351963043,1,versionA_stim.csv,READVersionA.csv,"Read Version A","Relational, read only version A",ORCHID,FLOWER,Study1,F,24,15,Study,User,-,,Study/JOL,"Study Phase",6020,,,-1,-1,,,,1
w10041110MM,36jia9uj1l,Relational_NO_JOL,1,83,2020-05-05T14:48:40-07:00,10.237540006638,1,versionA_stim.csv,READVersionA.csv,"Read Version A","Relational, read only version A",PARK,HUNGRY,Study1,U,68,53,Study,User,-,,Study/JOL,"Study Phase",9904,,,-1,-1,,,,1
w10041110MM,36jia9uj1l,Relational_NO_JOL,1,84,2020-05-05T14:48:44-07:00,4.4315450191498,1,versionA_stim.csv,READVersionA.csv,"Read Version A","Relational, read only version A",BEGIN,END,Study1,S,54,45,Study,User,-,,Study/JOL,"Study Phase",4159,,,-1,-1,,,,1
w10041110MM,36jia9uj1l,Relational_NO_JOL,1,85,2020-05-05T14:48:50-07:00,5.7682099342346,1,versionA_stim.csv,READVersionA.csv,"Read Version A","Relational, read only version A",GRILL,BAR,Study1,S,52,46,Study,User,-,,Study/JOL,"Study Phase",5480,,,-1,-1,,,,1
w10041110MM,36jia9uj1l,Relational_NO_JOL,1,86,2020-05-05T14:48:55-07:00,4.5946860313416,1,versionA_stim.csv,READVersionA.csv,"Read Version A","Relational, read only version A",ROOT,PLANT,Study1,F,13,71,Study,User,-,,Study/JOL,"Study Phase",4315,,,-1,-1,,,,1
w10041110MM,36jia9uj1l,Relational_NO_JOL,1,87,2020-05-05T14:48:59-07:00,4.6849849224091,1,versionA_stim.csv,READVersionA.csv,"Read Version A","Relational, read only version A",HORNET,STING,Study1,F,11,9,Study,User,-,,Study/JOL,"Study Phase",4424,,,-1,-1,,,,1
w10041110MM,36jia9uj1l,Relational_NO_JOL,1,88,2020-05-05T14:49:04-07:00,4.7015650272369,1,versionA_stim.csv,READVersionA.csv,"Read Version A","Relational, read only version A",TAKE,SEIZE,Study1,B,29,29,Study,User,-,,Study/JOL,"Study Phase",4440,,,-1,-1,,,,1
w10041110MM,36jia9uj1l,Relational_NO_JOL,1,89,2020-05-05T14:49:28-07:00,24.236053943634,1,versionA_stim.csv,READVersionA.csv,"Read Version A","Relational, read only version A",REVOLUTION,WAR,Study1,F,20,82,Study,User,-,,Study/JOL,"Study Phase",23895,,,-1,-1,,,,1
w10041110MM,36jia9uj1l,Relational_NO_JOL,1,90,2020-05-05T14:49:33-07:00,4.8738701343536,1,versionA_stim.csv,READVersionA.csv,"Read Version A","Relational, read only version A",KIDNEY,LIVER,Study1,S,53,11,Study,User,-,,Study/JOL,"Study Phase",4592,,,-1,-1,,,,1
w10041110MM,36jia9uj1l,Relational_NO_JOL,1,91,2020-05-05T14:49:37-07:00,3.6512188911438,1,versionA_stim.csv,READVersionA.csv,"Read Version A","Relational, read only version A",MOON,SPACE,BUFFER2,Buffer,89,89,Study,User,-,,Study/JOL,BUFFER2,3373,,,-1,-1,,,,1
w10041110MM,36jia9uj1l,Relational_NO_JOL,1,92,2020-05-05T14:49:41-07:00,4.2191219329834,1,versionA_stim.csv,READVersionA.csv,"Read Version A","Relational, read only version A",GEESE,GOOSE,BUFFER2,Buffer,86,91,Study,User,-,,Study/JOL,BUFFER2,3954,,,-1,-1,,,,1
w10041110MM,36jia9uj1l,Relational_NO_JOL,1,93,2020-05-05T14:49:56-07:00,14.640071153641,1,versionA_stim.csv,READVersionA.csv,"Read Version A","Relational, read only version A",SHERRIF,POLICE,BUFFER2,Buffer,87,88,Study,User,-,,Study/JOL,BUFFER2,14310,,,-1,-1,,,,1
w10041110MM,36jia9uj1l,Relational_NO_JOL,1,94,2020-05-05T14:50:00-07:00,4.1901178359985,1,versionA_stim.csv,READVersionA.csv,"Read Version A","Relational, read only version A",THING,STUFF,BUFFER2,Buffer,90,87,Study,User,-,,Study/JOL,BUFFER2,3904,,,-1,-1,,,,1
w10041110MM,36jia9uj1l,Relational_NO_JOL,1,95,2020-05-05T14:50:07-07:00,6.9833731651306,1,versionA_stim.csv,READVersionA.csv,"Read Version A","Relational, read only version A",MALT,CHOCOLATE,BUFFER2,Buffer,88,90,Study,User,-,,Study/JOL,BUFFER2,6707,,,-1,-1,,,,1
w10041110MM,36jia9uj1l,Relational_NO_JOL,1,96,2020-05-05T14:50:10-07:00,3.0652029514313,1,versionA_stim.csv,READVersionA.csv,"Read Version A","Relational, read only version A",,,,,,0,Instruct,User,-,"You have completed this section. Please press Enter.",Filler_Instruction,Instruct2,2798,,,-1,-1,,,,1
w10041110MM,36jia9uj1l,Relational_NO_JOL,1,97,2020-05-05T14:50:13-07:00,3.6346368789673,1,versionA_stim.csv,READVersionA.csv,"Read Version A","Relational, read only version A",,,,,,0,Instruct,User,-,"You have completed this section. Please press Enter.",Filler_Instruction,Instruct5,3373,,,-1,-1,,,,1
w10041110MM,36jia9uj1l,Relational_NO_JOL,1,98,2020-05-05T14:50:38-07:00,25.03117609024,1,versionA_stim.csv,READVersionA.csv,"Read Version A","Relational, read only version A",,,,,,0,FreeRecall,-,10,"What were you supposed to focus on while you studied each pair? (Hint: Think back to the instructions). Type your answer in the space below.",,CHECK3,24673,"see what the pair had in common ",0,11627,23042,0,0,,1
w10041110MM,36jia9uj1l,Relational_NO_JOL,1,99,2020-05-05T14:52:39-07:00,120.53801894188,1,versionA_stim.csv,READVersionA.csv,"Read Version A","Relational, read only version A",,,,,,0,FreeRecall,120,120,"Please list the 50 US states in alphabetical order. The task will automatically advance to the next screen after two minutes.",,Filler1,120003,"alabama, alaska, arizona, arkansas, california, colorado, connecticut, delaware, florida, georgia, hawaii, idaho, illinois, indiana, iowa, kansas, kentucky, louisiana, maine, maryland, massachu",0,36334,119030,0,0,,1
w10041110MM,36jia9uj1l,Relational_NO_JOL,1,100,2020-05-05T14:53:01-07:00,21.775098085403,1,versionA_stim.csv,READVersionA.csv,"Read Version A","Relational, read only version A",,,,,,0,Instruct,-,10,"You will now be presented with the first word from each of the previously studied item pairs. Please type the missing word. If you do not know the word, you may guess or press Enter to skip forward to the next pair.",,Instruct3,21319,,,-1,-1,,,,1
w10041110MM,36jia9uj1l,Relational_NO_JOL,1,101,2020-05-05T14:53:16-07:00,15.412368059158,1,versionA_stim.csv,READVersionA.csv,"Read Version A","Relational, read only version A",BUG,WASP,Study1,B,32,26,Test,User,-,,Recall,Recall1,15039,wasp,100,13245,13980,1,1,,1
w10041110MM,36jia9uj1l,Relational_NO_JOL,1,102,2020-05-05T14:53:22-07:00,5.5695378780365,1,versionA_stim.csv,READVersionA.csv,"Read Version A","Relational, read only version A",DUE,ASSIGNMENT,Study1,S,46,42,Test,User,-,,Recall,Recall1,5271,assignment,100,1564,4079,1,1,,1
w10041110MM,36jia9uj1l,Relational_NO_JOL,1,103,2020-05-05T14:53:29-07:00,7.3952729701996,1,versionA_stim.csv,READVersionA.csv,"Read Version A","Relational, read only version A",LETTUCE,SALAD,Study1,S,59,22,Test,User,-,,Recall,Recall1,7107,salad,100,3174,5491,1,1,,1
w10041110MM,36jia9uj1l,Relational_NO_JOL,1,104,2020-05-05T14:53:37-07:00,7.9389541149139,1,versionA_stim.csv,READVersionA.csv,"Read Version A","Relational, read only version A",DIETARY,SACKING,Study1,U,67,35,Test,User,-,,Recall,Recall1,7669,sacking,100,3378,5116,1,1,,1
w10041110MM,36jia9uj1l,Relational_NO_JOL,1,105,2020-05-05T14:53:46-07:00,9.3851940631866,1,versionA_stim.csv,READVersionA.csv,"Read Version A","Relational, read only version A",WAGE,MONEY,Study1,F,8,24,Test,User,-,,Recall,Recall1,9074,money,100,6738,7839,1,1,,1
w10041110MM,36jia9uj1l,Relational_NO_JOL,1,106,2020-05-05T14:53:53-07:00,6.4647388458252,1,versionA_stim.csv,READVersionA.csv,"Read Version A","Relational, read only version A",POP,SODA,Study1,S,56,23,Test,User,-,,Recall,Recall1,6168,soda,100,4192,5119,1,1,,1
w10041110MM,36jia9uj1l,Relational_NO_JOL,1,107,2020-05-05T14:54:02-07:00,9.3929550647736,1,versionA_stim.csv,READVersionA.csv,"Read Version A","Relational, read only version A",GREAT,FANTASTIC,Study1,B,35,58,Test,User,-,,Recall,Recall1,9091,fantastic,100,3556,7096,1,1,,1
w10041110MM,36jia9uj1l,Relational_NO_JOL,1,108,2020-05-05T14:54:06-07:00,3.6073269844055,1,versionA_stim.csv,READVersionA.csv,"Read Version A","Relational, read only version A",HERD,COW,Study1,F,22,12,Test,User,-,,Recall,Recall1,3334,cow,100,1389,2060,1,1,,1
w10041110MM,36jia9uj1l,Relational_NO_JOL,1,109,2020-05-05T14:54:29-07:00,22.692950963974,1,versionA_stim.csv,READVersionA.csv,"Read Version A","Relational, read only version A",MATH,DIVISION,Study1,B,33,56,Test,User,-,,Recall,Recall1,22361,division,100,18414,21330,1,1,,1
w10041110MM,36jia9uj1l,Relational_NO_JOL,1,110,2020-05-05T14:54:40-07:00,11.158801078796,1,versionA_stim.csv,READVersionA.csv,"Read Version A","Relational, read only version A",GRILL,BAR,Study1,S,52,46,Test,User,-,,Recall,Recall1,10799,bar,100,8007,9749,1,1,,1
w10041110MM,36jia9uj1l,Relational_NO_JOL,1,111,2020-05-05T14:54:56-07:00,16.703083992004,1,versionA_stim.csv,READVersionA.csv,"Read Version A","Relational, read only version A",HAPPY,CAR,Study1,U,77,47,Test,User,-,,Recall,Recall1,16356,car,100,14255,14933,1,1,,1
w10041110MM,36jia9uj1l,Relational_NO_JOL,1,112,2020-05-05T14:55:02-07:00,5.6150939464569,1,versionA_stim.csv,READVersionA.csv,"Read Version A","Relational, read only version A",FIX,HAND,Study1,U,75,67,Test,User,-,,Recall,Recall1,5337,hand,100,3016,4045,1,1,,1
w10041110MM,36jia9uj1l,Relational_NO_JOL,1,113,2020-05-05T14:55:08-07:00,5.7756149768829,1,versionA_stim.csv,READVersionA.csv,"Read Version A","Relational, read only version A",BATHROOM,TOILET,Study1,S,58,25,Test,User,-,,Recall,Recall1,4343,toilet,100,1927,3394,1,1,,1
w10041110MM,36jia9uj1l,Relational_NO_JOL,1,114,2020-05-05T14:55:12-07:00,4.5803120136261,1,versionA_stim.csv,READVersionA.csv,"Read Version A","Relational, read only version A",TUNA,FISH,Study1,F,25,84,Test,User,-,,Recall,Recall1,4310,fish,100,2012,3313,1,1,,1
w10041110MM,36jia9uj1l,Relational_NO_JOL,1,115,2020-05-05T14:56:13-07:00,61.037312030792,1,versionA_stim.csv,READVersionA.csv,"Read Version A","Relational, read only version A",SOON,BELT,Study1,U,70,52,Test,User,-,,Recall,Recall1,60693,coming,0,58380,59675,0,0,,1
w10041110MM,36jia9uj1l,Relational_NO_JOL,1,116,2020-05-05T14:56:27-07:00,13.748250961304,1,versionA_stim.csv,READVersionA.csv,"Read Version A","Relational, read only version A",PAST,FUTURE,Study1,S,61,85,Test,User,-,,Recall,Recall1,13389,future,100,10825,12356,1,1,,1
w10041110MM,36jia9uj1l,Relational_NO_JOL,1,117,2020-05-05T14:56:36-07:00,9.2697129249573,1,versionA_stim.csv,READVersionA.csv,"Read Version A","Relational, read only version A",ART,LION,Study1,U,79,83,Test,User,-,,Recall,Recall1,8984,lion,100,6016,7230,1,1,,1
w10041110MM,36jia9uj1l,Relational_NO_JOL,1,118,2020-05-05T14:56:41-07:00,4.4649600982666,1,versionA_stim.csv,READVersionA.csv,"Read Version A","Relational, read only version A",LIFT,WOMAN,Study1,U,69,18,Test,User,-,,Recall,Recall1,4185,woman,100,1406,2870,1,1,,1
w10041110MM,36jia9uj1l,Relational_NO_JOL,1,119,2020-05-05T14:56:53-07:00,12.304703950882,1,versionA_stim.csv,READVersionA.csv,"Read Version A","Relational, read only version A",ALLOW,TUCK,Study1,U,78,63,Test,User,-,,Recall,Recall1,11952,tuck,100,7889,9012,1,1,,1
w10041110MM,36jia9uj1l,Relational_NO_JOL,1,120,2020-05-05T14:57:32-07:00,38.340796947479,1,versionA_stim.csv,READVersionA.csv,"Read Version A","Relational, read only version A",FIRE,BLAZE,Study1,B,45,17,Test,User,-,,Recall,Recall1,37974,flame,60,35314,36154,0,0,,1
w10041110MM,36jia9uj1l,Relational_NO_JOL,1,121,2020-05-05T14:58:53-07:00,81.718338012695,1,versionA_stim.csv,READVersionA.csv,"Read Version A","Relational, read only version A",HORNET,STING,Study1,F,11,9,Test,User,-,,Recall,Recall1,81308,sting,100,78009,79223,1,1,,1
w10041110MM,36jia9uj1l,Relational_NO_JOL,1,122,2020-05-05T14:59:09-07:00,15.560072183609,1,versionA_stim.csv,READVersionA.csv,"Read Version A","Relational, read only version A",TRIAL,JURY,Study1,S,50,14,Test,User,-,,Recall,Recall1,15203,jury,100,13444,14099,1,1,,1
w10041110MM,36jia9uj1l,Relational_NO_JOL,1,123,2020-05-05T14:59:14-07:00,5.1069338321686,1,versionA_stim.csv,READVersionA.csv,"Read Version A","Relational, read only version A",BRIDGE,WATER,Study1,F,18,41,Test,User,-,,Recall,Recall1,4820,water,100,2831,3905,1,1,,1
w10041110MM,36jia9uj1l,Relational_NO_JOL,1,124,2020-05-05T14:59:22-07:00,7.5784661769867,1,versionA_stim.csv,READVersionA.csv,"Read Version A","Relational, read only version A",CLOTHES,ATTIRE,Study1,B,43,69,Test,User,-,,Recall,Recall1,7313,attire,100,4090,5772,1,1,,1
w10041110MM,36jia9uj1l,Relational_NO_JOL,1,125,2020-05-05T14:59:28-07:00,6.357626914978,1,versionA_stim.csv,READVersionA.csv,"Read Version A","Relational, read only version A",GEOLOGY,ROCK,Study1,F,19,61,Test,User,-,,Recall,Recall1,6092,rock,100,2419,4337,1,1,,1
w10041110MM,36jia9uj1l,Relational_NO_JOL,1,126,2020-05-05T14:59:39-07:00,10.902303934097,1,versionA_stim.csv,READVersionA.csv,"Read Version A","Relational, read only version A",SMELL,STENCH,Study1,B,42,34,Test,User,-,,Recall,Recall1,10570,stench,100,7602,9375,1,1,,1
w10041110MM,36jia9uj1l,Relational_NO_JOL,1,127,2020-05-05T14:59:56-07:00,17.604226112366,1,versionA_stim.csv,READVersionA.csv,"Read Version A","Relational, read only version A",LOCATION,SITE,Study1,S,48,64,Test,User,-,,Recall,Recall1,17245,site,100,15157,16248,1,1,,1
w10041110MM,36jia9uj1l,Relational_NO_JOL,1,128,2020-05-05T15:00:10-07:00,13.884971857071,1,versionA_stim.csv,READVersionA.csv,"Read Version A","Relational, read only version A",PUSHER,CLUTTER,Study1,U,66,80,Test,User,-,,Recall,Recall1,13524,clutter,100,10785,12428,1,1,,1
w10041110MM,36jia9uj1l,Relational_NO_JOL,1,129,2020-05-05T15:00:17-07:00,7.114578962326,1,versionA_stim.csv,READVersionA.csv,"Read Version A","Relational, read only version A",BEGIN,END,Study1,S,54,45,Test,User,-,,Recall,Recall1,6842,end,100,1651,2340,1,1,,1
w10041110MM,36jia9uj1l,Relational_NO_JOL,1,130,2020-05-05T15:00:39-07:00,21.210665225983,1,versionA_stim.csv,READVersionA.csv,"Read Version A","Relational, read only version A",HEIGHT,GROWTH,Study1,B,30,10,Test,User,-,,Recall,Recall1,20862,growth,100,17379,19231,1,1,,1
w10041110MM,36jia9uj1l,Relational_NO_JOL,1,131,2020-05-05T15:01:27-07:00,48.778756856918,1,versionA_stim.csv,READVersionA.csv,"Read Version A","Relational, read only version A",ORCHID,FLOWER,Study1,F,24,15,Test,User,-,,Recall,Recall1,48425,flower,100,43997,45673,1,1,,1
w10041110MM,36jia9uj1l,Relational_NO_JOL,1,132,2020-05-05T15:01:42-07:00,15.083045959473,1,versionA_stim.csv,READVersionA.csv,"Read Version A","Relational, read only version A",NUMBER,AMOUNT,Study1,S,47,49,Test,User,-,,Recall,Recall1,14721,amount,100,12230,13741,1,1,,1
w10041110MM,36jia9uj1l,Relational_NO_JOL,1,133,2020-05-05T15:01:48-07:00,5.2528591156006,1,versionA_stim.csv,READVersionA.csv,"Read Version A","Relational, read only version A",HIDE,SICK,Study1,U,84,43,Test,User,-,,Recall,Recall1,4966,sick,100,2824,3922,1,1,,1
w10041110MM,36jia9uj1l,Relational_NO_JOL,1,134,2020-05-05T15:02:20-07:00,32.560050010681,1,versionA_stim.csv,READVersionA.csv,"Read Version A","Relational, read only version A",DUMP,WASTE,Study1,S,49,44,Test,User,-,,Recall,Recall1,32216,waste,100,30136,31126,1,1,,1
w10041110MM,36jia9uj1l,Relational_NO_JOL,1,135,2020-05-05T15:02:32-07:00,11.704977989197,1,versionA_stim.csv,READVersionA.csv,"Read Version A","Relational, read only version A",SENTENCE,WORD,Study1,B,31,27,Test,User,-,,Recall,Recall1,11341,word,100,9375,10413,1,1,,1
w10041110MM,36jia9uj1l,Relational_NO_JOL,1,136,2020-05-05T15:02:40-07:00,8.3756408691406,1,versionA_stim.csv,READVersionA.csv,"Read Version A","Relational, read only version A",BABY,CHILD,Study1,S,64,57,Test,User,-,,Recall,Recall1,8096,child,100,5099,6325,1,1,,1
w10041110MM,36jia9uj1l,Relational_NO_JOL,1,137,2020-05-05T15:02:51-07:00,10.489077091217,1,versionA_stim.csv,READVersionA.csv,"Read Version A","Relational, read only version A",CIRCLE,ROUND,Study1,S,65,48,Test,User,-,,Recall,Recall1,10138,round,100,8083,9150,1,1,,1
w10041110MM,36jia9uj1l,Relational_NO_JOL,1,138,2020-05-05T15:03:00-07:00,9.2157080173492,1,versionA_stim.csv,READVersionA.csv,"Read Version A","Relational, read only version A",DEATH,BUSINESS,Study1,U,72,75,Test,User,-,,Recall,Recall1,8915,business,100,3183,7134,1,1,,1
w10041110MM,36jia9uj1l,Relational_NO_JOL,1,139,2020-05-05T15:03:22-07:00,21.564629077911,1,versionA_stim.csv,READVersionA.csv,"Read Version A","Relational, read only version A",SWAN,BIRD,Study1,F,14,16,Test,User,-,,Recall,Recall1,21206,bird,100,17671,19900,1,1,,1
w10041110MM,36jia9uj1l,Relational_NO_JOL,1,140,2020-05-05T15:03:52-07:00,30.239765882492,1,versionA_stim.csv,READVersionA.csv,"Read Version A","Relational, read only version A",LAW,ATTORNEY,Study1,B,34,76,Test,User,-,,Recall,Recall1,29874,attorney,100,26281,28846,1,1,,1
w10041110MM,36jia9uj1l,Relational_NO_JOL,1,141,2020-05-05T15:04:06-07:00,14.560630083084,1,versionA_stim.csv,READVersionA.csv,"Read Version A","Relational, read only version A",KIDNEY,LIVER,Study1,S,53,11,Test,User,-,,Recall,Recall1,14206,liver,100,12332,13124,1,1,,1
w10041110MM,36jia9uj1l,Relational_NO_JOL,1,142,2020-05-05T15:04:13-07:00,6.6673958301544,1,versionA_stim.csv,READVersionA.csv,"Read Version A","Relational, read only version A",DARK,CAVE,Study1,B,28,19,Test,User,-,,Recall,Recall1,6380,cave,100,4179,5026,1,1,,1
w10041110MM,36jia9uj1l,Relational_NO_JOL,1,143,2020-05-05T15:04:23-07:00,9.7070510387421,1,versionA_stim.csv,READVersionA.csv,"Read Version A","Relational, read only version A",HYGIENE,CLEAN,Study1,F,17,37,Test,User,-,,Recall,Recall1,9422,clean,100,6082,7804,1,1,,1
w10041110MM,36jia9uj1l,Relational_NO_JOL,1,144,2020-05-05T15:04:38-07:00,15.300444126129,1,versionA_stim.csv,READVersionA.csv,"Read Version A","Relational, read only version A",ARCHITECTURE,DESIGN,Study1,S,51,28,Test,User,-,,Recall,Recall1,14940,design,100,11256,12714,1,1,,1
w10041110MM,36jia9uj1l,Relational_NO_JOL,1,145,2020-05-05T15:05:01-07:00,23.047639846802,1,versionA_stim.csv,READVersionA.csv,"Read Version A","Relational, read only version A",DELINQUENT,BAD,Study1,F,6,62,Test,User,-,,Recall,Recall1,22687,bad,100,21254,21786,1,1,,1
w10041110MM,36jia9uj1l,Relational_NO_JOL,1,146,2020-05-05T15:05:32-07:00,30.414113044739,1,versionA_stim.csv,READVersionA.csv,"Read Version A","Relational, read only version A",CASH,WOULD,Study1,U,83,20,Test,User,-,,Recall,Recall1,30054,would,100,26937,28031,1,1,,0.922
w10041110MM,36jia9uj1l,Relational_NO_JOL,1,147,2020-05-05T15:05:43-07:00,11.658233165741,1,versionA_stim.csv,READVersionA.csv,"Read Version A","Relational, read only version A",DISCUSSION,TALK,Study1,F,21,68,Test,User,-,,Recall,Recall1,11298,talk,100,8900,9757,1,1,,1
w10041110MM,36jia9uj1l,Relational_NO_JOL,1,148,2020-05-05T15:06:48-07:00,64.926331996918,1,versionA_stim.csv,READVersionA.csv,"Read Version A","Relational, read only version A",BALL,RACKET,Study1,B,38,60,Test,User,-,,Recall,Recall1,64553,racket,100,61769,63451,1,1,,0.88
w10041110MM,36jia9uj1l,Relational_NO_JOL,1,149,2020-05-05T15:07:01-07:00,13.151340961456,1,versionA_stim.csv,READVersionA.csv,"Read Version A","Relational, read only version A",FULL,ENOUGH,Study1,B,26,32,Test,User,-,,Recall,Recall1,12746,enough,100,9209,11280,1,1,,1
w10041110MM,36jia9uj1l,Relational_NO_JOL,1,150,2020-05-05T15:07:13-07:00,11.899655818939,1,versionA_stim.csv,READVersionA.csv,"Read Version A","Relational, read only version A",WINE,CHEESE,Study1,S,57,86,Test,User,-,,Recall,Recall1,11484,cheese,100,8853,10006,1,1,,1
w10041110MM,36jia9uj1l,Relational_NO_JOL,1,151,2020-05-05T15:07:51-07:00,38.149918079376,1,versionA_stim.csv,READVersionA.csv,"Read Version A","Relational, read only version A",ROOT,PLANT,Study1,F,13,71,Test,User,-,,Recall,Recall1,37766,problem,33.333333333333,25100,27388,0,0,,1
w10041110MM,36jia9uj1l,Relational_NO_JOL,1,152,2020-05-05T15:08:05-07:00,13.348098039627,1,versionA_stim.csv,READVersionA.csv,"Read Version A","Relational, read only version A",BITTER,COLD,Study1,F,12,13,Test,User,-,,Recall,Recall1,12982,cold,100,10606,11521,1,1,,1
w10041110MM,36jia9uj1l,Relational_NO_JOL,1,153,2020-05-05T15:08:48-07:00,43.090574026108,1,versionA_stim.csv,READVersionA.csv,"Read Version A","Relational, read only version A",WORK,CHORE,Study1,B,39,21,Test,User,-,,Recall,Recall1,42704,chore,100,40015,41477,1,1,,1
w10041110MM,36jia9uj1l,Relational_NO_JOL,1,154,2020-05-05T15:08:54-07:00,6.5609860420227,1,versionA_stim.csv,READVersionA.csv,"Read Version A","Relational, read only version A",SHOE,FOOT,Study1,S,60,70,Test,User,-,,Recall,Recall1,6260,foot,100,4102,4991,1,1,,1
w10041110MM,36jia9uj1l,Relational_NO_JOL,1,155,2020-05-05T15:09:23-07:00,28.298666000366,1,versionA_stim.csv,READVersionA.csv,"Read Version A","Relational, read only version A",PLANE,PILOT,Study1,B,44,65,Test,User,-,,Recall,Recall1,27895,pilot,100,25607,26585,1,1,,1
w10041110MM,36jia9uj1l,Relational_NO_JOL,1,156,2020-05-05T15:09:49-07:00,25.890169858932,1,versionA_stim.csv,READVersionA.csv,"Read Version A","Relational, read only version A",DIGESTION,STOMACH,Study1,F,7,50,Test,User,-,,Recall,Recall1,25488,stomach,100,21568,24008,1,1,,1
w10041110MM,36jia9uj1l,Relational_NO_JOL,1,157,2020-05-05T15:09:56-07:00,7.2638511657715,1,versionA_stim.csv,READVersionA.csv,"Read Version A","Relational, read only version A",MACHINE,POSITION,Study1,U,76,7,Test,User,-,,Recall,Recall1,6952,position,100,2757,5522,1,1,,1
w10041110MM,36jia9uj1l,Relational_NO_JOL,1,158,2020-05-05T15:10:13-07:00,17.404205799103,1,versionA_stim.csv,READVersionA.csv,"Read Version A","Relational, read only version A",WAY,OUT,Study1,F,16,55,Test,User,-,,Recall,Recall1,17030,out,100,15028,15394,1,1,,1
w10041110MM,36jia9uj1l,Relational_NO_JOL,1,159,2020-05-05T15:10:29-07:00,15.285531997681,1,versionA_stim.csv,READVersionA.csv,"Read Version A","Relational, read only version A",VALLEY,ADD,Study1,U,82,8,Test,User,-,,Recall,Recall1,14908,add,100,11968,12455,1,1,,1
w10041110MM,36jia9uj1l,Relational_NO_JOL,1,160,2020-05-05T15:10:41-07:00,12.283204078674,1,versionA_stim.csv,READVersionA.csv,"Read Version A","Relational, read only version A",TAKE,SEIZE,Study1,B,29,29,Test,User,-,,Recall,Recall1,11886,seize,100,9267,10777,1,1,,1
w10041110MM,36jia9uj1l,Relational_NO_JOL,1,161,2020-05-05T15:10:47-07:00,6.0663330554962,1,versionA_stim.csv,READVersionA.csv,"Read Version A","Relational, read only version A",CHISEL,HAMMER,Study1,F,9,78,Test,User,-,,Recall,Recall1,5749,hammer,100,1948,3349,1,1,,1
w10041110MM,36jia9uj1l,Relational_NO_JOL,1,162,2020-05-05T15:11:06-07:00,18.923529863358,1,versionA_stim.csv,READVersionA.csv,"Read Version A","Relational, read only version A",CREDIT,CARD,Study1,F,23,81,Test,User,-,,Recall,Recall1,18557,card,100,16426,17188,1,1,,1
w10041110MM,36jia9uj1l,Relational_NO_JOL,1,163,2020-05-05T15:11:09-07:00,3.2275831699371,1,versionA_stim.csv,READVersionA.csv,"Read Version A","Relational, read only version A",PAW,DOG,Study1,F,15,30,Test,User,-,,Recall,Recall1,2917,dog,100,1287,2055,1,1,,1
w10041110MM,36jia9uj1l,Relational_NO_JOL,1,164,2020-05-05T15:11:46-07:00,37.155347824097,1,versionA_stim.csv,READVersionA.csv,"Read Version A","Relational, read only version A",HUNGER,FAMINE,Study1,B,40,36,Test,User,-,,Recall,Recall1,36782,famine,100,33715,35781,1,1,,1
w10041110MM,36jia9uj1l,Relational_NO_JOL,1,165,2020-05-05T15:12:00-07:00,14.217399120331,1,versionA_stim.csv,READVersionA.csv,"Read Version A","Relational, read only version A",DEBATE,SIGHT,Study1,U,73,40,Test,User,-,,Recall,Recall1,13830,sight,100,10823,12048,1,1,,1
w10041110MM,36jia9uj1l,Relational_NO_JOL,1,166,2020-05-05T15:12:06-07:00,5.4320390224457,1,versionA_stim.csv,READVersionA.csv,"Read Version A","Relational, read only version A",STRONG,ACCIDENT,Study1,U,80,59,Test,User,-,,Recall,Recall1,5119,accident,100,2127,4215,1,1,,1
w10041110MM,36jia9uj1l,Relational_NO_JOL,1,167,2020-05-05T15:12:20-07:00,14.071186065674,1,versionA_stim.csv,READVersionA.csv,"Read Version A","Relational, read only version A",ARTERY,BRONZE,Study1,U,74,77,Test,User,-,,Recall,Recall1,13683,bronze,100,9480,11633,1,1,,1
w10041110MM,36jia9uj1l,Relational_NO_JOL,1,168,2020-05-05T15:13:02-07:00,41.964775800705,1,versionA_stim.csv,READVersionA.csv,"Read Version A","Relational, read only version A",MEANING,DEFINITION,Study1,S,62,73,Test,User,-,,Recall,Recall1,41587,definition,100,32998,40488,1,1,,1
w10041110MM,36jia9uj1l,Relational_NO_JOL,1,169,2020-05-05T15:13:27-07:00,25.268310070038,1,versionA_stim.csv,READVersionA.csv,"Read Version A","Relational, read only version A",DISCOVER,FLOOR,Study1,U,71,54,Test,User,-,,Recall,Recall1,24877,floor,100,21689,22933,1,1,,1
w10041110MM,36jia9uj1l,Relational_NO_JOL,1,170,2020-05-05T15:13:39-07:00,11.601630926132,1,versionA_stim.csv,READVersionA.csv,"Read Version A","Relational, read only version A",DRINK,SIP,Study1,B,27,72,Test,User,-,,Recall,Recall1,11227,sip,100,7191,7892,1,1,,1
w10041110MM,36jia9uj1l,Relational_NO_JOL,1,171,2020-05-05T15:13:49-07:00,10.485346078873,1,versionA_stim.csv,READVersionA.csv,"Read Version A","Relational, read only version A",PARK,HUNGRY,Study1,U,68,53,Test,User,-,,Recall,Recall1,10117,hungry,100,7208,8696,1,1,,1
w10041110MM,36jia9uj1l,Relational_NO_JOL,1,172,2020-05-05T15:14:34-07:00,44.603303909302,1,versionA_stim.csv,READVersionA.csv,"Read Version A","Relational, read only version A",KING,VASE,Study1,U,85,51,Test,User,-,,Recall,Recall1,44209,vase,100,42095,42903,1,1,,1
w10041110MM,36jia9uj1l,Relational_NO_JOL,1,173,2020-05-05T15:14:49-07:00,14.792187213898,1,versionA_stim.csv,READVersionA.csv,"Read Version A","Relational, read only version A",BLOW,WIND,Study1,S,55,31,Test,User,-,,Recall,Recall1,14413,wind,100,11870,12871,1,1,,1
w10041110MM,36jia9uj1l,Relational_NO_JOL,1,174,2020-05-05T15:14:56-07:00,7.2349119186401,1,versionA_stim.csv,READVersionA.csv,"Read Version A","Relational, read only version A",KEY,LATCH,Study1,B,36,38,Test,User,-,,Recall,Recall1,6936,latch,100,2608,5506,1,1,,1
w10041110MM,36jia9uj1l,Relational_NO_JOL,1,175,2020-05-05T15:15:11-07:00,14.770318031311,1,versionA_stim.csv,READVersionA.csv,"Read Version A","Relational, read only version A",SUGAR,RIDDLE,Study1,U,81,79,Test,User,-,,Recall,Recall1,14395,riddle,100,11785,13389,1,1,,1
w10041110MM,36jia9uj1l,Relational_NO_JOL,1,176,2020-05-05T15:15:24-07:00,13.803352832794,1,versionA_stim.csv,READVersionA.csv,"Read Version A","Relational, read only version A",HONEY,BEE,Study1,S,63,33,Test,User,-,,Recall,Recall1,13416,bee,100,11274,11692,1,1,,1
w10041110MM,36jia9uj1l,Relational_NO_JOL,1,177,2020-05-05T15:15:37-07:00,12.941430091858,1,versionA_stim.csv,READVersionA.csv,"Read Version A","Relational, read only version A",SLEEP,DROWSY,Study1,B,41,66,Test,User,-,,Recall,Recall1,12556,drowsy,100,7561,10851,1,1,,1
w10041110MM,36jia9uj1l,Relational_NO_JOL,1,178,2020-05-05T15:16:17-07:00,39.840116977692,1,versionA_stim.csv,READVersionA.csv,"Read Version A","Relational, read only version A",EDITOR,NEWS,Study1,F,10,74,Test,User,-,,Recall,Recall1,39444,news,100,36188,37079,1,1,,1
w10041110MM,36jia9uj1l,Relational_NO_JOL,1,179,2020-05-05T15:16:28-07:00,10.454175949097,1,versionA_stim.csv,READVersionA.csv,"Read Version A","Relational, read only version A",REVOLUTION,WAR,Study1,F,20,82,Test,User,-,,Recall,Recall1,10052,war,100,6777,8814,1,1,,1
w10041110MM,36jia9uj1l,Relational_NO_JOL,1,180,2020-05-05T15:16:53-07:00,25.018022060394,1,versionA_stim.csv,READVersionA.csv,"Read Version A","Relational, read only version A",HOT,CHILI,Study1,B,37,39,Test,User,-,,Recall,Recall1,24648,chili,100,21809,23076,1,1,,1
w10041110MM,36jia9uj1l,Relational_NO_JOL,1,181,2020-05-05T15:17:16-07:00,23.619493961334,1,versionA_stim.csv,READVersionA.csv,"Read Version A","Relational, read only version A",,,,,,0,Instruct,-,10,"You will now be presented with a new set of word pairs. Please study each pair. Remember that your memory will be tested! When finished, press Enter to move to the next pair.",Initial_Instruct,Instruct4,23202,,,-1,-1,,,,1
w10041110MM,36jia9uj1l,Relational_NO_JOL,1,182,2020-05-05T15:17:33-07:00,16.714596986771,1,versionA_stim.csv,READVersionA.csv,"Read Version A","Relational, read only version A",,,,,,0,Instruct,-,15,"As you study, please think about how the two concepts are RELATED to each other. For example, if you see the pair TURTLE-CAT, think about how both are alive, they are both animals, and both can be kept as pets.",,Instruct20,16303,,,-1,-1,,,,1
w10041110MM,36jia9uj1l,Relational_NO_JOL,1,183,2020-05-05T15:17:47-07:00,13.735651016235,1,versionA_stim.csv,READVersionA.csv,"Read Version A","Relational, read only version A",,,,,,0,FreeRecall,-,10,"What you should think about as you study each item pair? Type your response in the box below.",,CHECK4,13350,"how the words are related",0,6952,12249,0,0,,1
w10041110MM,36jia9uj1l,Relational_NO_JOL,1,184,2020-05-05T15:17:48-07:00,1.6727831363678,1,versionA_stim.csv,READVersionA.csv,"Read Version A","Relational, read only version A",,,,,,0,Instruct,User,-,"Press Enter when you are readty to begin",,Instruct11,1375,,,-1,-1,,,,1
w10041110MM,36jia9uj1l,Relational_NO_JOL,1,185,2020-05-05T15:18:19-07:00,30.737407922745,1,versionA_stim.csv,READVersionA.csv,"Read Version A","Relational, read only version A",CAMP,ADVENTURE,BUFFER3,Buffer,95,95,Study,User,-,,Study/JOL,BUFFER3,30380,,,-1,-1,,,,1
w10041110MM,36jia9uj1l,Relational_NO_JOL,1,186,2020-05-05T15:18:23-07:00,4.3330359458923,1,versionA_stim.csv,READVersionA.csv,"Read Version A","Relational, read only version A",SHRIMP,FISH,BUFFER3,Buffer,93,93,Study,User,-,,Study/JOL,BUFFER3,4015,,,-1,-1,,,,1
w10041110MM,36jia9uj1l,Relational_NO_JOL,1,187,2020-05-05T15:18:28-07:00,4.4862871170044,1,versionA_stim.csv,READVersionA.csv,"Read Version A","Relational, read only version A",CARROT,POTATO,BUFFER3,Buffer,91,92,Study,User,-,,Study/JOL,BUFFER3,4180,,,-1,-1,,,,1
w10041110MM,36jia9uj1l,Relational_NO_JOL,1,188,2020-05-05T15:18:32-07:00,4.509183883667,1,versionA_stim.csv,READVersionA.csv,"Read Version A","Relational, read only version A",ICE,FROZEN,BUFFER3,Buffer,94,96,Study,User,-,,Study/JOL,BUFFER3,4156,,,-1,-1,,,,1
w10041110MM,36jia9uj1l,Relational_NO_JOL,1,189,2020-05-05T15:18:39-07:00,6.7893970012665,1,versionA_stim.csv,READVersionA.csv,"Read Version A","Relational, read only version A",NOODLE,STRING,BUFFER3,Buffer,92,94,Study,User,-,,Study/JOL,BUFFER3,6498,,,-1,-1,,,,1
w10041110MM,36jia9uj1l,Relational_NO_JOL,1,190,2020-05-05T15:18:44-07:00,4.9609200954437,1,versionA_stim.csv,READVersionA.csv,"Read Version A","Relational, read only version A",TURN,FLIP,Study2,B,116,117,Study,User,-,,Study/JOL,"Study Phase2",4641,,,-1,-1,,,,1
w10041110MM,36jia9uj1l,Relational_NO_JOL,1,191,2020-05-05T15:18:52-07:00,8.1204500198364,1,versionA_stim.csv,READVersionA.csv,"Read Version A","Relational, read only version A",VEHICLE,CHARM,Study2,U,160,154,Study,User,-,,Study/JOL,"Study Phase2",7720,,,-1,-1,,,,1
w10041110MM,36jia9uj1l,Relational_NO_JOL,1,192,2020-05-05T15:19:10-07:00,17.481911897659,1,versionA_stim.csv,READVersionA.csv,"Read Version A","Relational, read only version A",PHONE,COMMUNICATION,Study2,S,149,169,Study,User,-,,Study/JOL,"Study Phase2",17095,,,-1,-1,,,,1
w10041110MM,36jia9uj1l,Relational_NO_JOL,1,193,2020-05-05T15:19:17-07:00,7.547641992569,1,versionA_stim.csv,READVersionA.csv,"Read Version A","Relational, read only version A",ADJOURN,END,Study2,F,101,171,Study,User,-,,Study/JOL,"Study Phase2",7214,,,-1,-1,,,,1
w10041110MM,36jia9uj1l,Relational_NO_JOL,1,194,2020-05-05T15:19:24-07:00,6.8714900016785,1,versionA_stim.csv,READVersionA.csv,"Read Version A","Relational, read only version A",AFFECTION,LOVE,Study2,F,115,140,Study,User,-,,Study/JOL,"Study Phase2",6574,,,-1,-1,,,,1
w10041110MM,36jia9uj1l,Relational_NO_JOL,1,195,2020-05-05T15:19:30-07:00,5.2725529670715,1,versionA_stim.csv,READVersionA.csv,"Read Version A","Relational, read only version A",OWN,HAVE,Study2,S,153,168,Study,User,-,,Study/JOL,"Study Phase2",4946,,,-1,-1,,,,1
w10041110MM,36jia9uj1l,Relational_NO_JOL,1,196,2020-05-05T15:19:39-07:00,9.8463170528412,1,versionA_stim.csv,READVersionA.csv,"Read Version A","Relational, read only version A",MAIN,SCAR,Study2,U,175,156,Study,User,-,,Study/JOL,"Study Phase2",9544,,,-1,-1,,,,1
w10041110MM,36jia9uj1l,Relational_NO_JOL,1,197,2020-05-05T15:19:46-07:00,6.5686309337616,1,versionA_stim.csv,READVersionA.csv,"Read Version A","Relational, read only version A",DETECTIVE,MYSTERY,Study2,F,100,136,Study,User,-,,Study/JOL,"Study Phase2",6224,,,-1,-1,,,,1
w10041110MM,36jia9uj1l,Relational_NO_JOL,1,198,2020-05-05T15:19:51-07:00,4.6748490333557,1,versionA_stim.csv,READVersionA.csv,"Read Version A","Relational, read only version A",CHILL,COLD,Study2,F,114,130,Study,User,-,,Study/JOL,"Study Phase2",4343,,,-1,-1,,,,1
w10041110MM,36jia9uj1l,Relational_NO_JOL,1,199,2020-05-05T15:20:01-07:00,9.9601709842682,1,versionA_stim.csv,READVersionA.csv,"Read Version A","Relational, read only version A",MAZE,ELECTION,Study2,U,159,138,Study,User,-,,Study/JOL,"Study Phase2",9635,,,-1,-1,,,,1
w10041110MM,36jia9uj1l,Relational_NO_JOL,1,200,2020-05-05T15:20:11-07:00,10.624987125397,1,versionA_stim.csv,READVersionA.csv,"Read Version A","Relational, read only version A",ELEMENT,CARBON,Study2,S,141,107,Study,User,-,,Study/JOL,"Study Phase2",10248,,,-1,-1,,,,1
w10041110MM,36jia9uj1l,Relational_NO_JOL,1,201,2020-05-05T15:20:26-07:00,15.204241991043,1,versionA_stim.csv,READVersionA.csv,"Read Version A","Relational, read only version A",CRACKLE,ABLE,Study2,U,162,105,Study,User,-,,Study/JOL,"Study Phase2",14811,,,-1,-1,,,,1
w10041110MM,36jia9uj1l,Relational_NO_JOL,1,202,2020-05-05T15:20:37-07:00,10.860287904739,1,versionA_stim.csv,READVersionA.csv,"Read Version A","Relational, read only version A",TEMPERATURE,Morning,Study2,U,173,128,Study,User,-,,Study/JOL,"Study Phase2",10477,,,-1,-1,,,,1
w10041110MM,36jia9uj1l,Relational_NO_JOL,1,203,2020-05-05T15:20:48-07:00,10.716624975204,1,versionA_stim.csv,READVersionA.csv,"Read Version A","Relational, read only version A",FEUD,FIGHT,Study2,F,113,116,Study,User,-,,Study/JOL,"Study Phase2",10320,,,-1,-1,,,,1
w10041110MM,36jia9uj1l,Relational_NO_JOL,1,204,2020-05-05T15:21:10-07:00,21.619638204575,1,versionA_stim.csv,READVersionA.csv,"Read Version A","Relational, read only version A",CAKE,CLOTHES,Study2,U,166,142,Study,User,-,,Study/JOL,"Study Phase2",21234,,,-1,-1,,,,1
w10041110MM,36jia9uj1l,Relational_NO_JOL,1,205,2020-05-05T15:21:14-07:00,4.810558795929,1,versionA_stim.csv,READVersionA.csv,"Read Version A","Relational, read only version A",CHOP,CUT,Study2,F,107,110,Study,User,-,,Study/JOL,"Study Phase2",4445,,,-1,-1,,,,1
w10041110MM,36jia9uj1l,Relational_NO_JOL,1,206,2020-05-05T15:21:20-07:00,5.6652910709381,1,versionA_stim.csv,READVersionA.csv,"Read Version A","Relational, read only version A",LITTER,TRASH,Study2,F,103,133,Study,User,-,,Study/JOL,"Study Phase2",5370,,,-1,-1,,,,1
w10041110MM,36jia9uj1l,Relational_NO_JOL,1,207,2020-05-05T15:21:26-07:00,5.5560300350189,1,versionA_stim.csv,READVersionA.csv,"Read Version A","Relational, read only version A",FIGHT,BRAWL,Study2,B,135,115,Study,User,-,,Study/JOL,"Study Phase2",5255,,,-1,-1,,,,1
w10041110MM,36jia9uj1l,Relational_NO_JOL,1,208,2020-05-05T15:21:32-07:00,5.993448972702,1,versionA_stim.csv,READVersionA.csv,"Read Version A","Relational, read only version A",LISTEN,FICTION,Study2,U,164,132,Study,User,-,,Study/JOL,"Study Phase2",5711,,,-1,-1,,,,1
w10041110MM,36jia9uj1l,Relational_NO_JOL,1,209,2020-05-05T15:21:36-07:00,3.9237840175629,1,versionA_stim.csv,READVersionA.csv,"Read Version A","Relational, read only version A",LOAN,SIGN,Study2,U,171,175,Study,User,-,,Study/JOL,"Study Phase2",3623,,,-1,-1,,,,1
w10041110MM,36jia9uj1l,Relational_NO_JOL,1,210,2020-05-05T15:21:41-07:00,5.2414419651031,1,versionA_stim.csv,READVersionA.csv,"Read Version A","Relational, read only version A",CAR,WINDSHIELD,Study2,B,117,161,Study,User,-,,Study/JOL,"Study Phase2",4949,,,-1,-1,,,,1
w10041110MM,36jia9uj1l,Relational_NO_JOL,1,211,2020-05-05T15:21:47-07:00,6.0787990093231,1,versionA_stim.csv,READVersionA.csv,"Read Version A","Relational, read only version A",WATER,DRINK,Study2,S,143,113,Study,User,-,,Study/JOL,"Study Phase2",5780,,,-1,-1,,,,1
w10041110MM,36jia9uj1l,Relational_NO_JOL,1,212,2020-05-05T15:21:52-07:00,5.0931460857391,1,versionA_stim.csv,READVersionA.csv,"Read Version A","Relational, read only version A",GONE,AWAY,Study2,S,142,123,Study,User,-,,Study/JOL,"Study Phase2",4796,,,-1,-1,,,,1
w10041110MM,36jia9uj1l,Relational_NO_JOL,1,213,2020-05-05T15:21:59-07:00,7.5220448970795,1,versionA_stim.csv,READVersionA.csv,"Read Version A","Relational, read only version A",HONEST,TRUTHFUL,Study2,B,133,165,Study,User,-,,Study/JOL,"Study Phase2",7203,,,-1,-1,,,,1
w10041110MM,36jia9uj1l,Relational_NO_JOL,1,214,2020-05-05T15:22:04-07:00,4.1429319381714,1,versionA_stim.csv,READVersionA.csv,"Read Version A","Relational, read only version A",MEAT,OBTAIN,Study2,U,161,97,Study,User,-,,Study/JOL,"Study Phase2",3849,,,-1,-1,,,,1
w10041110MM,36jia9uj1l,Relational_NO_JOL,1,215,2020-05-05T15:22:10-07:00,6.4178152084351,1,versionA_stim.csv,READVersionA.csv,"Read Version A","Relational, read only version A",GLASS,BREAKABLE,Study2,B,127,103,Study,User,-,,Study/JOL,"Study Phase2",6110,,,-1,-1,,,,1
w10041110MM,36jia9uj1l,Relational_NO_JOL,1,216,2020-05-05T15:22:13-07:00,3.4082279205322,1,versionA_stim.csv,READVersionA.csv,"Read Version A","Relational, read only version A",ROD,REEL,Study2,S,150,129,Study,User,-,,Study/JOL,"Study Phase2",3084,,,-1,-1,,,,1
w10041110MM,36jia9uj1l,Relational_NO_JOL,1,217,2020-05-05T15:22:21-07:00,7.5437059402466,1,versionA_stim.csv,READVersionA.csv,"Read Version A","Relational, read only version A",FISH,SARDINE,Study2,B,130,158,Study,User,-,,Study/JOL,"Study Phase2",7242,,,-1,-1,,,,1
w10041110MM,36jia9uj1l,Relational_NO_JOL,1,218,2020-05-05T15:22:27-07:00,5.8718430995941,1,versionA_stim.csv,READVersionA.csv,"Read Version A","Relational, read only version A",CANDLE,WAX,Study2,S,139,120,Study,User,-,,Study/JOL,"Study Phase2",5569,,,-1,-1,,,,1
w10041110MM,36jia9uj1l,Relational_NO_JOL,1,219,2020-05-05T15:22:31-07:00,4.4674890041351,1,versionA_stim.csv,READVersionA.csv,"Read Version A","Relational, read only version A",BEST,FAVORITE,Study2,B,125,134,Study,User,-,,Study/JOL,"Study Phase2",4168,,,-1,-1,,,,1
w10041110MM,36jia9uj1l,Relational_NO_JOL,1,220,2020-05-05T15:22:40-07:00,9.1502950191498,1,versionA_stim.csv,READVersionA.csv,"Read Version A","Relational, read only version A",MONEY,BANKER,Study2,B,132,126,Study,User,-,,Study/JOL,"Study Phase2",8830,,,-1,-1,,,,1
w10041110MM,36jia9uj1l,Relational_NO_JOL,1,221,2020-05-05T15:22:47-07:00,6.3122169971466,1,versionA_stim.csv,READVersionA.csv,"Read Version A","Relational, read only version A",CACTUS,PLANT,Study2,F,98,127,Study,User,-,,Study/JOL,"Study Phase2",5990,,,-1,-1,,,,1
w10041110MM,36jia9uj1l,Relational_NO_JOL,1,222,2020-05-05T15:23:00-07:00,12.767604827881,1,versionA_stim.csv,READVersionA.csv,"Read Version A","Relational, read only version A",MOAT,CLEAR,Study2,U,169,152,Study,User,-,,Study/JOL,"Study Phase2",12407,,,-1,-1,,,,1
w10041110MM,36jia9uj1l,Relational_NO_JOL,1,223,2020-05-05T15:23:05-07:00,5.8797950744629,1,versionA_stim.csv,READVersionA.csv,"Read Version A","Relational, read only version A",CHERRY,RED,Study2,F,104,172,Study,User,-,,Study/JOL,"Study Phase2",5562,,,-1,-1,,,,1
w10041110MM,36jia9uj1l,Relational_NO_JOL,1,224,2020-05-05T15:23:11-07:00,5.1313889026642,1,versionA_stim.csv,READVersionA.csv,"Read Version A","Relational, read only version A",,,,,,0,Instruct,-,3,"Remember to focus on how the two items are similiar while you study!",,CHECK5,4835,,,-1,-1,,,,1
w10041110MM,36jia9uj1l,Relational_NO_JOL,1,225,2020-05-05T15:23:19-07:00,7.9897902011871,1,versionA_stim.csv,READVersionA.csv,"Read Version A","Relational, read only version A",EXTENSION,LONG,Study2,F,96,141,Study,User,-,,Study/JOL,"Study Phase2",7680,,,-1,-1,,,,1
w10041110MM,36jia9uj1l,Relational_NO_JOL,1,226,2020-05-05T15:23:40-07:00,21.390468835831,1,versionA_stim.csv,READVersionA.csv,"Read Version A","Relational, read only version A",BIRD,PENGUIN,Study2,B,119,101,Study,User,-,,Study/JOL,"Study Phase2",20595,,,-1,-1,,,,1
w10041110MM,36jia9uj1l,Relational_NO_JOL,1,227,2020-05-05T15:23:47-07:00,6.700453042984,1,versionA_stim.csv,READVersionA.csv,"Read Version A","Relational, read only version A",FLEA,TICK,Study2,S,151,108,Study,User,-,,Study/JOL,"Study Phase2",6382,,,-1,-1,,,,1
w10041110MM,36jia9uj1l,Relational_NO_JOL,1,228,2020-05-05T15:23:52-07:00,5.5745170116425,1,versionA_stim.csv,READVersionA.csv,"Read Version A","Relational, read only version A",LEASE,TOIL,Study2,U,170,131,Study,User,-,,Study/JOL,"Study Phase2",5276,,,-1,-1,,,,1
w10041110MM,36jia9uj1l,Relational_NO_JOL,1,229,2020-05-05T15:23:59-07:00,6.2973690032959,1,versionA_stim.csv,READVersionA.csv,"Read Version A","Relational, read only version A",SAFETY,SEATBELT,Study2,S,147,114,Study,User,-,,Study/JOL,"Study Phase2",5997,,,-1,-1,,,,1
w10041110MM,36jia9uj1l,Relational_NO_JOL,1,230,2020-05-05T15:24:03-07:00,4.1223881244659,1,versionA_stim.csv,READVersionA.csv,"Read Version A","Relational, read only version A",TRUTH,LIE,Study2,S,148,119,Study,User,-,,Study/JOL,"Study Phase2",3820,,,-1,-1,,,,1
w10041110MM,36jia9uj1l,Relational_NO_JOL,1,231,2020-05-05T15:24:06-07:00,3.7292509078979,1,versionA_stim.csv,READVersionA.csv,"Read Version A","Relational, read only version A",CLUE,GAME,Study2,F,97,104,Study,User,-,,Study/JOL,"Study Phase2",3432,,,-1,-1,,,,1
w10041110MM,36jia9uj1l,Relational_NO_JOL,1,232,2020-05-05T15:24:11-07:00,4.4303140640259,1,versionA_stim.csv,READVersionA.csv,"Read Version A","Relational, read only version A",FUZZY,BANG,Study2,U,168,155,Study,User,-,,Study/JOL,"Study Phase2",4128,,,-1,-1,,,,1
w10041110MM,36jia9uj1l,Relational_NO_JOL,1,233,2020-05-05T15:24:14-07:00,3.6679039001465,1,versionA_stim.csv,READVersionA.csv,"Read Version A","Relational, read only version A",DINE,EAT,Study2,F,111,159,Study,User,-,,Study/JOL,"Study Phase2",3378,,,-1,-1,,,,1
w10041110MM,36jia9uj1l,Relational_NO_JOL,1,234,2020-05-05T15:24:20-07:00,5.7111849784851,1,versionA_stim.csv,READVersionA.csv,"Read Version A","Relational, read only version A",POP,BALLOON,Study2,B,123,124,Study,User,-,,Study/JOL,"Study Phase2",5411,,,-1,-1,,,,1
w10041110MM,36jia9uj1l,Relational_NO_JOL,1,235,2020-05-05T15:24:24-07:00,3.6652071475983,1,versionA_stim.csv,READVersionA.csv,"Read Version A","Relational, read only version A",MASON,JAR,Study2,S,138,144,Study,User,-,,Study/JOL,"Study Phase2",3372,,,-1,-1,,,,1
w10041110MM,36jia9uj1l,Relational_NO_JOL,1,236,2020-05-05T15:24:28-07:00,4.0010788440704,1,versionA_stim.csv,READVersionA.csv,"Read Version A","Relational, read only version A",DEAD,COFFIN,Study2,B,128,102,Study,User,-,,Study/JOL,"Study Phase2",3703,,,-1,-1,,,,1
w10041110MM,36jia9uj1l,Relational_NO_JOL,1,237,2020-05-05T15:24:31-07:00,3.3839440345764,1,versionA_stim.csv,READVersionA.csv,"Read Version A","Relational, read only version A",DRY,WET,Study2,S,146,125,Study,User,-,,Study/JOL,"Study Phase2",3091,,,-1,-1,,,,1
w10041110MM,36jia9uj1l,Relational_NO_JOL,1,238,2020-05-05T15:24:37-07:00,5.4579730033875,1,versionA_stim.csv,READVersionA.csv,"Read Version A","Relational, read only version A",SLEEP,NAP,Study2,B,134,153,Study,User,-,,Study/JOL,"Study Phase2",5144,,,-1,-1,,,,1
w10041110MM,36jia9uj1l,Relational_NO_JOL,1,239,2020-05-05T15:24:42-07:00,5.2446999549866,1,versionA_stim.csv,READVersionA.csv,"Read Version A","Relational, read only version A",BAD,VILLAIN,Study2,B,118,109,Study,User,-,,Study/JOL,"Study Phase2",4931,,,-1,-1,,,,1
w10041110MM,36jia9uj1l,Relational_NO_JOL,1,240,2020-05-05T15:24:47-07:00,4.9020020961761,1,versionA_stim.csv,READVersionA.csv,"Read Version A","Relational, read only version A",FURRY,DOG,Study2,F,102,164,Study,User,-,,Study/JOL,"Study Phase2",4602,,,-1,-1,,,,1
w10041110MM,36jia9uj1l,Relational_NO_JOL,1,241,2020-05-05T15:24:52-07:00,5.453136920929,1,versionA_stim.csv,READVersionA.csv,"Read Version A","Relational, read only version A",MIRROR,CHILDREN,Study2,U,174,148,Study,User,-,,Study/JOL,"Study Phase2",5147,,,-1,-1,,,,1
w10041110MM,36jia9uj1l,Relational_NO_JOL,1,242,2020-05-05T15:24:56-07:00,3.9105401039124,1,versionA_stim.csv,READVersionA.csv,"Read Version A","Relational, read only version A",GIVE,STEAK,Study2,U,158,121,Study,User,-,,Study/JOL,"Study Phase2",3613,,,-1,-1,,,,1
w10041110MM,36jia9uj1l,Relational_NO_JOL,1,243,2020-05-05T15:25:06-07:00,9.7977609634399,1,versionA_stim.csv,READVersionA.csv,"Read Version A","Relational, read only version A",SUN,TAN,Study2,S,155,135,Study,User,-,,Study/JOL,"Study Phase2",8501,,,-1,-1,,,,1
w10041110MM,36jia9uj1l,Relational_NO_JOL,1,244,2020-05-05T15:25:16-07:00,9.9784510135651,1,versionA_stim.csv,READVersionA.csv,"Read Version A","Relational, read only version A",NAME,HATE,Study2,U,167,157,Study,User,-,,Study/JOL,"Study Phase2",9679,,,-1,-1,,,,1
w10041110MM,36jia9uj1l,Relational_NO_JOL,1,245,2020-05-05T15:25:35-07:00,18.993944883347,1,versionA_stim.csv,READVersionA.csv,"Read Version A","Relational, read only version A",KEYS,JOKE,Study2,U,165,166,Study,User,-,,Study/JOL,"Study Phase2",18618,,,-1,-1,,,,1
w10041110MM,36jia9uj1l,Relational_NO_JOL,1,246,2020-05-05T15:25:48-07:00,13.484266996384,1,versionA_stim.csv,READVersionA.csv,"Read Version A","Relational, read only version A",LOUD,NOISE,Study2,S,152,167,Study,User,-,,Study/JOL,"Study Phase2",13082,,,-1,-1,,,,1
w10041110MM,36jia9uj1l,Relational_NO_JOL,1,247,2020-05-05T15:26:00-07:00,11.152438163757,1,versionA_stim.csv,READVersionA.csv,"Read Version A","Relational, read only version A",INCENSE,SMELL,Study2,F,110,122,Study,User,-,,Study/JOL,"Study Phase2",10766,,,-1,-1,,,,1
w10041110MM,36jia9uj1l,Relational_NO_JOL,1,248,2020-05-05T15:26:38-07:00,38.539845943451,1,versionA_stim.csv,READVersionA.csv,"Read Version A","Relational, read only version A",DOCUMENT,PAPER,Study2,F,109,139,Study,User,-,,Study/JOL,"Study Phase2",38138,,,-1,-1,,,,1
w10041110MM,36jia9uj1l,Relational_NO_JOL,1,249,2020-05-05T15:26:44-07:00,5.8091790676117,1,versionA_stim.csv,READVersionA.csv,"Read Version A","Relational, read only version A",STAR,ACTRESS,Study2,B,120,173,Study,User,-,,Study/JOL,"Study Phase2",5514,,,-1,-1,,,,1
w10041110MM,36jia9uj1l,Relational_NO_JOL,1,250,2020-05-05T15:26:52-07:00,7.8810579776764,1,versionA_stim.csv,READVersionA.csv,"Read Version A","Relational, read only version A",TANTRUM,TEMPER,Study2,S,154,149,Study,User,-,,Study/JOL,"Study Phase2",7571,,,-1,-1,,,,1
w10041110MM,36jia9uj1l,Relational_NO_JOL,1,251,2020-05-05T15:27:00-07:00,8.4714148044586,1,versionA_stim.csv,READVersionA.csv,"Read Version A","Relational, read only version A",FRUIT,STRAWBERRY,Study2,B,124,176,Study,User,-,,Study/JOL,"Study Phase2",8164,,,-1,-1,,,,1
w10041110MM,36jia9uj1l,Relational_NO_JOL,1,252,2020-05-05T15:27:06-07:00,5.2116360664368,1,versionA_stim.csv,READVersionA.csv,"Read Version A","Relational, read only version A",BOTH,OUNCE,Study2,U,172,162,Study,User,-,,Study/JOL,"Study Phase2",4899,,,-1,-1,,,,1
w10041110MM,36jia9uj1l,Relational_NO_JOL,1,253,2020-05-05T15:27:13-07:00,7.3749051094055,1,versionA_stim.csv,READVersionA.csv,"Read Version A","Relational, read only version A",STRETCH,CLOTH,Study2,U,157,111,Study,User,-,,Study/JOL,"Study Phase2",7078,,,-1,-1,,,,1
w10041110MM,36jia9uj1l,Relational_NO_JOL,1,254,2020-05-05T15:27:31-07:00,18.35107588768,1,versionA_stim.csv,READVersionA.csv,"Read Version A","Relational, read only version A",WRIST,BRACELET,Study2,S,140,118,Study,User,-,,Study/JOL,"Study Phase2",17981,,,-1,-1,,,,1
w10041110MM,36jia9uj1l,Relational_NO_JOL,1,255,2020-05-05T15:27:37-07:00,6.0195500850677,1,versionA_stim.csv,READVersionA.csv,"Read Version A","Relational, read only version A",SCALP,HEAD,Study2,F,105,146,Study,User,-,,Study/JOL,"Study Phase2",4723,,,-1,-1,,,,1
w10041110MM,36jia9uj1l,Relational_NO_JOL,1,256,2020-05-05T15:27:44-07:00,6.6132209300995,1,versionA_stim.csv,READVersionA.csv,"Read Version A","Relational, read only version A",DRIVER,CAR,Study2,F,106,151,Study,User,-,,Study/JOL,"Study Phase2",6324,,,-1,-1,,,,1
w10041110MM,36jia9uj1l,Relational_NO_JOL,1,257,2020-05-05T15:27:54-07:00,9.8556599617004,1,versionA_stim.csv,READVersionA.csv,"Read Version A","Relational, read only version A",SHEARS,SCISSORS,Study2,F,112,143,Study,User,-,,Study/JOL,"Study Phase2",9550,,,-1,-1,,,,1
w10041110MM,36jia9uj1l,Relational_NO_JOL,1,258,2020-05-05T15:28:00-07:00,6.0489151477814,1,versionA_stim.csv,READVersionA.csv,"Read Version A","Relational, read only version A",EARTH,GROUND,Study2,S,144,147,Study,User,-,,Study/JOL,"Study Phase2",5751,,,-1,-1,,,,1
w10041110MM,36jia9uj1l,Relational_NO_JOL,1,259,2020-05-05T15:28:06-07:00,6.5166139602661,1,versionA_stim.csv,READVersionA.csv,"Read Version A","Relational, read only version A",THREAD,THIMBLE,Study2,B,121,145,Study,User,-,,Study/JOL,"Study Phase2",6204,,,-1,-1,,,,1
w10041110MM,36jia9uj1l,Relational_NO_JOL,1,260,2020-05-05T15:28:12-07:00,6.0830190181732,1,versionA_stim.csv,READVersionA.csv,"Read Version A","Relational, read only version A",JUSTICE,MAROON,Study2,U,156,150,Study,User,-,,Study/JOL,"Study Phase2",5753,,,-1,-1,,,,1
w10041110MM,36jia9uj1l,Relational_NO_JOL,1,261,2020-05-05T15:28:18-07:00,5.1261608600616,1,versionA_stim.csv,READVersionA.csv,"Read Version A","Relational, read only version A",BASEBALL,LEAGUE,Study2,B,131,170,Study,User,-,,Study/JOL,"Study Phase2",4826,,,-1,-1,,,,1
w10041110MM,36jia9uj1l,Relational_NO_JOL,1,262,2020-05-05T15:28:24-07:00,6.602518081665,1,versionA_stim.csv,READVersionA.csv,"Read Version A","Relational, read only version A",ALONE,LONELY,Study2,S,145,137,Study,User,-,,Study/JOL,"Study Phase2",6287,,,-1,-1,,,,1
w10041110MM,36jia9uj1l,Relational_NO_JOL,1,263,2020-05-05T15:28:30-07:00,6.2122910022736,1,versionA_stim.csv,READVersionA.csv,"Read Version A","Relational, read only version A",MULE,DONKEY,Study2,F,108,174,Study,User,-,,Study/JOL,"Study Phase2",5845,,,-1,-1,,,,1
w10041110MM,36jia9uj1l,Relational_NO_JOL,1,264,2020-05-05T15:28:38-07:00,7.9503870010376,1,versionA_stim.csv,READVersionA.csv,"Read Version A","Relational, read only version A",RAZOR,SHAVE,Study2,S,136,112,Study,User,-,,Study/JOL,"Study Phase2",7644,,,-1,-1,,,,1
w10041110MM,36jia9uj1l,Relational_NO_JOL,1,265,2020-05-05T15:28:44-07:00,5.5968179702759,1,versionA_stim.csv,READVersionA.csv,"Read Version A","Relational, read only version A",SHOELACE,TIE,Study2,F,99,98,Study,User,-,,Study/JOL,"Study Phase2",5298,,,-1,-1,,,,1
w10041110MM,36jia9uj1l,Relational_NO_JOL,1,266,2020-05-05T15:28:56-07:00,11.89660692215,1,versionA_stim.csv,READVersionA.csv,"Read Version A","Relational, read only version A",EVEN,REVENGE,Study2,B,122,99,Study,User,-,,Study/JOL,"Study Phase2",11445,,,-1,-1,,,,0.897
w10041110MM,36jia9uj1l,Relational_NO_JOL,1,267,2020-05-05T15:29:04-07:00,8.2332961559296,1,versionA_stim.csv,READVersionA.csv,"Read Version A","Relational, read only version A",Shell,SHAKE,Study2,U,163,163,Study,User,-,,Study/JOL,"Study Phase2",7911,,,-1,-1,,,,1
w10041110MM,36jia9uj1l,Relational_NO_JOL,1,268,2020-05-05T15:29:10-07:00,6.0355658531189,1,versionA_stim.csv,READVersionA.csv,"Read Version A","Relational, read only version A",RIGHTS,EQUAL,Study2,S,137,106,Study,User,-,,Study/JOL,"Study Phase2",5673,,,-1,-1,,,,1
w10041110MM,36jia9uj1l,Relational_NO_JOL,1,269,2020-05-05T15:29:16-07:00,5.5307831764221,1,versionA_stim.csv,READVersionA.csv,"Read Version A","Relational, read only version A",PLANE,AIRCRAFT,Study2,B,129,100,Study,User,-,,Study/JOL,"Study Phase2",5218,,,-1,-1,,,,1
w10041110MM,36jia9uj1l,Relational_NO_JOL,1,270,2020-05-05T15:29:21-07:00,5.3654680252075,1,versionA_stim.csv,READVersionA.csv,"Read Version A","Relational, read only version A",CAT,PANTHER,Study2,B,126,160,Study,User,-,,Study/JOL,"Study Phase2",5048,,,-1,-1,,,,1
w10041110MM,36jia9uj1l,Relational_NO_JOL,1,271,2020-05-05T15:29:24-07:00,3.2445118427277,1,versionA_stim.csv,READVersionA.csv,"Read Version A","Relational, read only version A",TOOL,SHED,BUFFER4,Buffer,178,181,Study,User,-,,Study/JOL,BUFFER4,2940,,,-1,-1,,,,1
w10041110MM,36jia9uj1l,Relational_NO_JOL,1,272,2020-05-05T15:29:29-07:00,4.4291920661926,1,versionA_stim.csv,READVersionA.csv,"Read Version A","Relational, read only version A",SPRING,MARCH,BUFFER4,Buffer,179,177,Study,User,-,,Study/JOL,BUFFER4,4123,,,-1,-1,,,,1
w10041110MM,36jia9uj1l,Relational_NO_JOL,1,273,2020-05-05T15:29:42-07:00,12.990138053894,1,versionA_stim.csv,READVersionA.csv,"Read Version A","Relational, read only version A",OCTOBER,SPOOKY,BUFFER4,Buffer,180,180,Study,User,-,,Study/JOL,BUFFER4,12632,,,-1,-1,,,,1
w10041110MM,36jia9uj1l,Relational_NO_JOL,1,274,2020-05-05T15:29:45-07:00,3.663106918335,1,versionA_stim.csv,READVersionA.csv,"Read Version A","Relational, read only version A",MONTH,YEAR,BUFFER4,Buffer,177,179,Study,User,-,,Study/JOL,BUFFER4,3321,,,-1,-1,,,,1
w10041110MM,36jia9uj1l,Relational_NO_JOL,1,275,2020-05-05T15:30:13-07:00,27.23614192009,1,versionA_stim.csv,READVersionA.csv,"Read Version A","Relational, read only version A",DAYS,WEAKS,BUFFER4,Buffer,176,178,Study,User,-,,Study/JOL,BUFFER4,26854,,,-1,-1,,,,0.956
w10041110MM,36jia9uj1l,Relational_NO_JOL,1,276,2020-05-05T15:30:15-07:00,2.4640321731567,1,versionA_stim.csv,READVersionA.csv,"Read Version A","Relational, read only version A",,,,,,0,Instruct,User,-,"You have completed this section. Please press Enter.",Filler_Instruction,Instruct5,2149,,,-1,-1,,,,1
w10041110MM,36jia9uj1l,Relational_NO_JOL,1,277,2020-05-05T15:31:10-07:00,54.822979927063,1,versionA_stim.csv,READVersionA.csv,"Read Version A","Relational, read only version A",,,,,,0,FreeRecall,-,10,"What were you supposed to focus on while you studied each pair? (Hint: Think back to the instructions). Type your answer in the space below.",,CHECK3,54450,"how they are similar ",0,47204,52134,0,0,,1
w10041110MM,36jia9uj1l,Relational_NO_JOL,1,278,2020-05-05T15:31:13-07:00,2.9209430217743,1,versionA_stim.csv,READVersionA.csv,"Read Version A","Relational, read only version A",,,,,,0,Instruct,User,-,"You have completed this section. Please press Enter.",Filler_Instruction,Instruct5,2616,,,-1,-1,,,,1
w10041110MM,36jia9uj1l,Relational_NO_JOL,1,279,2020-05-05T15:33:13-07:00,120.38353204727,1,versionA_stim.csv,READVersionA.csv,"Read Version A","Relational, read only version A",,,,,,0,FreeRecall,120,120,"Please list the 50 US states in reverse alphabetical order (z - a). The task will automatically advance to the next screen after two minutes.",,Filler2,120002,"alabama, arizona, arkansas, california, conneticut, delaware, mississippi, missouri, washington, idaho, texas, hawaii, alaska, new jersey, ",0,2431,119470,0,0,,1
w10041110MM,36jia9uj1l,Relational_NO_JOL,1,280,2020-05-05T15:33:30-07:00,16.838343858719,1,versionA_stim.csv,READVersionA.csv,"Read Version A","Relational, read only version A",,,,,,0,Instruct,-,10,"You will now be presented with the first word from each of the previously studied item pairs. Please type the missing word. If you do not know the word, you may guess or press Enter to skip forward to the next pair.",,Instruct6,16462,,,-1,-1,,,,1
w10041110MM,36jia9uj1l,Relational_NO_JOL,1,281,2020-05-05T15:33:48-07:00,18.340087175369,1,versionA_stim.csv,READVersionA.csv,"Read Version A","Relational, read only version A",FISH,SARDINE,Study2,B,130,158,Test,User,-,,Recall,Recall2,17940,sardine,100,9295,11379,1,1,,1
w10041110MM,36jia9uj1l,Relational_NO_JOL,1,282,2020-05-05T15:34:32-07:00,43.999147891998,1,versionA_stim.csv,READVersionA.csv,"Read Version A","Relational, read only version A",RAZOR,SHAVE,Study2,S,136,112,Test,User,-,,Recall,Recall2,43619,shave,100,33213,35159,1,1,,1
w10041110MM,36jia9uj1l,Relational_NO_JOL,1,283,2020-05-05T15:35:07-07:00,34.564202070236,1,versionA_stim.csv,READVersionA.csv,"Read Version A","Relational, read only version A",FEUD,FIGHT,Study2,F,113,116,Test,User,-,,Recall,Recall2,34186,fight,100,30112,32958,1,1,,1
w10041110MM,36jia9uj1l,Relational_NO_JOL,1,284,2020-05-05T15:35:31-07:00,24.556462049484,1,versionA_stim.csv,READVersionA.csv,"Read Version A","Relational, read only version A",Shell,SHAKE,Study2,U,163,163,Test,User,-,,Recall,Recall2,24155,shake,100,21336,22386,1,1,,1
w10041110MM,36jia9uj1l,Relational_NO_JOL,1,285,2020-05-05T15:35:57-07:00,25.268283843994,1,versionA_stim.csv,READVersionA.csv,"Read Version A","Relational, read only version A",DINE,EAT,Study2,F,111,159,Test,User,-,,Recall,Recall2,24872,eat,100,16183,16829,1,1,,1
w10041110MM,36jia9uj1l,Relational_NO_JOL,1,286,2020-05-05T15:36:12-07:00,15.207946062088,1,versionA_stim.csv,READVersionA.csv,"Read Version A","Relational, read only version A",SUN,TAN,Study2,S,155,135,Test,User,-,,Recall,Recall2,14806,tan,100,4046,5240,1,1,,1
w10041110MM,36jia9uj1l,Relational_NO_JOL,1,287,2020-05-05T15:36:35-07:00,22.910119056702,1,versionA_stim.csv,READVersionA.csv,"Read Version A","Relational, read only version A",CAKE,CLOTHES,Study2,U,166,142,Test,User,-,,Recall,Recall2,21509,clothes,100,10948,14329,1,1,,1
w10041110MM,36jia9uj1l,Relational_NO_JOL,1,288,2020-05-05T15:36:52-07:00,17.570914030075,1,versionA_stim.csv,READVersionA.csv,"Read Version A","Relational, read only version A",BASEBALL,LEAGUE,Study2,B,131,170,Test,User,-,,Recall,Recall2,17201,league,100,13449,15311,1,1,,1
w10041110MM,36jia9uj1l,Relational_NO_JOL,1,289,2020-05-05T15:37:26-07:00,33.858995914459,1,versionA_stim.csv,READVersionA.csv,"Read Version A","Relational, read only version A",POP,BALLOON,Study2,B,123,124,Test,User,-,,Recall,Recall2,33466,balloon,100,18157,24711,1,1,,1
w10041110MM,36jia9uj1l,Relational_NO_JOL,1,290,2020-05-05T15:37:42-07:00,16.00789308548,1,versionA_stim.csv,READVersionA.csv,"Read Version A","Relational, read only version A",GONE,AWAY,Study2,S,142,123,Test,User,-,,Recall,Recall2,15571,away,100,7808,8771,1,1,,1
w10041110MM,36jia9uj1l,Relational_NO_JOL,1,291,2020-05-05T15:37:54-07:00,11.718297958374,1,versionA_stim.csv,READVersionA.csv,"Read Version A","Relational, read only version A",ROD,REEL,Study2,S,150,129,Test,User,-,,Recall,Recall2,11279,reel,100,3875,4524,1,1,,1
w10041110MM,36jia9uj1l,Relational_NO_JOL,1,292,2020-05-05T15:39:06-07:00,72.223634958267,1,versionA_stim.csv,READVersionA.csv,"Read Version A","Relational, read only version A",PHONE,COMMUNICATION,Study2,S,149,169,Test,User,-,,Recall,Recall2,71818,communication,100,59676,65636,1,1,,1
w10041110MM,36jia9uj1l,Relational_NO_JOL,1,293,2020-05-05T15:39:12-07:00,5.4382870197296,1,versionA_stim.csv,READVersionA.csv,"Read Version A","Relational, read only version A",MAIN,SCAR,Study2,U,175,156,Test,User,-,,Recall,Recall2,5144,scar,100,2381,3573,1,1,,1
w10041110MM,36jia9uj1l,Relational_NO_JOL,1,294,2020-05-05T15:39:32-07:00,20.393355846405,1,versionA_stim.csv,READVersionA.csv,"Read Version A","Relational, read only version A",SLEEP,NAP,Study2,B,134,153,Test,User,-,,Recall,Recall2,20015,nap,100,13066,13892,1,1,,1
w10041110MM,36jia9uj1l,Relational_NO_JOL,1,295,2020-05-05T15:40:36-07:00,64.046004056931,1,versionA_stim.csv,READVersionA.csv,"Read Version A","Relational, read only version A",OWN,HAVE,Study2,S,153,168,Test,User,-,,Recall,Recall2,63642,have,100,54584,55624,1,1,,1
w10041110MM,36jia9uj1l,Relational_NO_JOL,1,296,2020-05-05T15:41:06-07:00,29.712089061737,1,versionA_stim.csv,READVersionA.csv,"Read Version A","Relational, read only version A",RIGHTS,EQUAL,Study2,S,137,106,Test,User,-,,Recall,Recall2,29328,equal,100,19910,21659,1,1,,1
w10041110MM,36jia9uj1l,Relational_NO_JOL,1,297,2020-05-05T15:41:24-07:00,17.898060083389,1,versionA_stim.csv,READVersionA.csv,"Read Version A","Relational, read only version A",DOCUMENT,PAPER,Study2,F,109,139,Test,User,-,,Recall,Recall2,17505,paper,100,6836,8397,1,1,,1
w10041110MM,36jia9uj1l,Relational_NO_JOL,1,298,2020-05-05T15:41:40-07:00,16.230117797852,1,versionA_stim.csv,READVersionA.csv,"Read Version A","Relational, read only version A",MASON,JAR,Study2,S,138,144,Test,User,-,,Recall,Recall2,15827,jar,100,1728,2581,1,1,,1
w10041110MM,36jia9uj1l,Relational_NO_JOL,1,299,2020-05-05T15:42:00-07:00,20.456698179245,1,versionA_stim.csv,READVersionA.csv,"Read Version A","Relational, read only version A",ELEMENT,CARBON,Study2,S,141,107,Test,User,-,,Recall,Recall2,20076,carbon,100,16267,18269,1,1,,1
w10041110MM,36jia9uj1l,Relational_NO_JOL,1,300,2020-05-05T15:44:18-07:00,138.04127383232,1,versionA_stim.csv,READVersionA.csv,"Read Version A","Relational, read only version A",EARTH,GROUND,Study2,S,144,147,Test,User,-,,Recall,Recall2,137633,ground,100,128283,129995,1,1,,1
w10041110MM,36jia9uj1l,Relational_NO_JOL,1,301,2020-05-05T15:44:40-07:00,21.476474046707,1,versionA_stim.csv,READVersionA.csv,"Read Version A","Relational, read only version A",MOAT,CLEAR,Study2,U,169,152,Test,User,-,,Recall,Recall2,20948,clear,100,13009,14665,1,1,,1
w10041110MM,36jia9uj1l,Relational_NO_JOL,1,302,2020-05-05T15:45:06-07:00,25.748919010162,1,versionA_stim.csv,READVersionA.csv,"Read Version A","Relational, read only version A",FIGHT,BRAWL,Study2,B,135,115,Test,User,-,,Recall,Recall2,25281,brawl,100,20700,22063,1,1,,1
w10041110MM,36jia9uj1l,Relational_NO_JOL,1,303,2020-05-05T15:45:53-07:00,47.069854974747,1,versionA_stim.csv,READVersionA.csv,"Read Version A","Relational, read only version A",ALONE,LONELY,Study2,S,145,137,Test,User,-,,Recall,Recall2,46607,lonely,100,38250,39871,1,1,,1
w10041110MM,36jia9uj1l,Relational_NO_JOL,1,304,2020-05-05T15:46:06-07:00,13.333510160446,1,versionA_stim.csv,READVersionA.csv,"Read Version A","Relational, read only version A",CACTUS,PLANT,Study2,F,98,127,Test,User,-,,Recall,Recall2,12928,plant,100,9271,11387,1,1,,1
w10041110MM,36jia9uj1l,Relational_NO_JOL,1,305,2020-05-05T15:46:25-07:00,19.463122844696,1,versionA_stim.csv,READVersionA.csv,"Read Version A","Relational, read only version A",LEASE,TOIL,Study2,U,170,131,Test,User,-,,Recall,Recall2,19069,toil,100,10664,11570,1,1,,1
w10041110MM,36jia9uj1l,Relational_NO_JOL,1,306,2020-05-05T15:46:40-07:00,14.684226036072,1,versionA_stim.csv,READVersionA.csv,"Read Version A","Relational, read only version A",JUSTICE,MAROON,Study2,U,156,150,Test,User,-,,Recall,Recall2,14259,maroon,100,6402,8286,1,1,,1
w10041110MM,36jia9uj1l,Relational_NO_JOL,1,307,2020-05-05T15:46:47-07:00,7.1703040599823,1,versionA_stim.csv,READVersionA.csv,"Read Version A","Relational, read only version A",MULE,DONKEY,Study2,F,108,174,Test,User,-,,Recall,Recall2,6844,donkey,100,2014,4903,1,1,,1
w10041110MM,36jia9uj1l,Relational_NO_JOL,1,308,2020-05-05T15:47:22-07:00,34.802979946136,1,versionA_stim.csv,READVersionA.csv,"Read Version A","Relational, read only version A",MONEY,BANKER,Study2,B,132,126,Test,User,-,,Recall,Recall2,34452,banker,100,22377,24638,1,1,,1
w10041110MM,36jia9uj1l,Relational_NO_JOL,1,309,2020-05-05T15:47:35-07:00,13.076155900955,1,versionA_stim.csv,READVersionA.csv,"Read Version A","Relational, read only version A",WATER,DRINK,Study2,S,143,113,Test,User,-,,Recall,Recall2,12676,drink,100,4353,5528,1,1,,1
w10041110MM,36jia9uj1l,Relational_NO_JOL,1,310,2020-05-05T15:47:59-07:00,24.063828229904,1,versionA_stim.csv,READVersionA.csv,"Read Version A","Relational, read only version A",FURRY,DOG,Study2,F,102,164,Test,User,-,,Recall,Recall2,23661,dog,100,14208,14984,1,1,,1
w10041110MM,36jia9uj1l,Relational_NO_JOL,1,311,2020-05-05T15:48:22-07:00,22.673872947693,1,versionA_stim.csv,READVersionA.csv,"Read Version A","Relational, read only version A",CAT,PANTHER,Study2,B,126,160,Test,User,-,,Recall,Recall2,22285,panther,100,7204,9377,1,1,,1
w10041110MM,36jia9uj1l,Relational_NO_JOL,1,312,2020-05-05T15:48:39-07:00,16.619504928589,1,versionA_stim.csv,READVersionA.csv,"Read Version A","Relational, read only version A",STAR,ACTRESS,Study2,B,120,173,Test,User,-,,Recall,Recall2,16232,actress,100,8615,10236,1,1,,1
w10041110MM,36jia9uj1l,Relational_NO_JOL,1,313,2020-05-05T15:48:50-07:00,11.923473119736,1,versionA_stim.csv,READVersionA.csv,"Read Version A","Relational, read only version A",EXTENSION,LONG,Study2,F,96,141,Test,User,-,,Recall,Recall2,11496,long,100,8992,9862,1,1,,1
w10041110MM,36jia9uj1l,Relational_NO_JOL,1,314,2020-05-05T15:48:55-07:00,4.9345998764038,1,versionA_stim.csv,READVersionA.csv,"Read Version A","Relational, read only version A",FUZZY,BANG,Study2,U,168,155,Test,User,-,,Recall,Recall2,4622,bang,100,2198,3508,1,1,,1
w10041110MM,36jia9uj1l,Relational_NO_JOL,1,315,2020-05-05T15:49:13-07:00,17.251143932343,1,versionA_stim.csv,READVersionA.csv,"Read Version A","Relational, read only version A",BIRD,PENGUIN,Study2,B,119,101,Test,User,-,,Recall,Recall2,16855,penguin,100,7997,11978,1,1,,1
w10041110MM,36jia9uj1l,Relational_NO_JOL,1,316,2020-05-05T15:49:40-07:00,26.843029975891,1,versionA_stim.csv,READVersionA.csv,"Read Version A","Relational, read only version A",MIRROR,CHILDREN,Study2,U,174,148,Test,User,-,,Recall,Recall2,26437,children,100,16125,18916,1,1,,1
w10041110MM,36jia9uj1l,Relational_NO_JOL,1,317,2020-05-05T15:49:50-07:00,9.9950630664825,1,versionA_stim.csv,READVersionA.csv,"Read Version A","Relational, read only version A",BAD,VILLAIN,Study2,B,118,109,Test,User,-,,Recall,Recall2,9657,villain,100,2347,7307,1,1,,1
w10041110MM,36jia9uj1l,Relational_NO_JOL,1,318,2020-05-05T15:50:23-07:00,33.5137591362,1,versionA_stim.csv,READVersionA.csv,"Read Version A","Relational, read only version A",AFFECTION,LOVE,Study2,F,115,140,Test,User,-,,Recall,Recall2,32133,love,100,21348,23117,1,1,,1
w10041110MM,36jia9uj1l,Relational_NO_JOL,1,319,2020-05-05T15:50:41-07:00,17.897658824921,1,versionA_stim.csv,READVersionA.csv,"Read Version A","Relational, read only version A",CLUE,GAME,Study2,F,97,104,Test,User,-,,Recall,Recall2,17497,game,100,9655,10955,1,1,,1
w10041110MM,36jia9uj1l,Relational_NO_JOL,1,320,2020-05-05T15:50:54-07:00,12.737601041794,1,versionA_stim.csv,READVersionA.csv,"Read Version A","Relational, read only version A",MEAT,OBTAIN,Study2,U,161,97,Test,User,-,,Recall,Recall2,12322,obtain,100,4146,6259,1,1,,1
w10041110MM,36jia9uj1l,Relational_NO_JOL,1,321,2020-05-05T15:51:14-07:00,20.364706993103,1,versionA_stim.csv,READVersionA.csv,"Read Version A","Relational, read only version A",CRACKLE,ABLE,Study2,U,162,105,Test,User,-,,Recall,Recall2,19958,able,100,16022,18126,1,1,,1
w10041110MM,36jia9uj1l,Relational_NO_JOL,1,322,2020-05-05T15:51:27-07:00,12.932153940201,1,versionA_stim.csv,READVersionA.csv,"Read Version A","Relational, read only version A",MAZE,ELECTION,Study2,U,159,138,Test,User,-,,Recall,Recall2,12530,election,100,5065,7492,1,1,,1
w10041110MM,36jia9uj1l,Relational_NO_JOL,1,323,2020-05-05T15:52:09-07:00,42.282075166702,1,versionA_stim.csv,READVersionA.csv,"Read Version A","Relational, read only version A",GIVE,STEAK,Study2,U,158,121,Test,User,-,,Recall,Recall2,41864,steak,100,32571,34272,1,1,,1
w10041110MM,36jia9uj1l,Relational_NO_JOL,1,324,2020-05-05T15:52:25-07:00,15.71888589859,1,versionA_stim.csv,READVersionA.csv,"Read Version A","Relational, read only version A",EVEN,REVENGE,Study2,B,122,99,Test,User,-,,Recall,Recall2,15320,revenge,100,5244,8169,1,1,,1
w10041110MM,36jia9uj1l,Relational_NO_JOL,1,325,2020-05-05T15:52:35-07:00,9.7232041358948,1,versionA_stim.csv,READVersionA.csv,"Read Version A","Relational, read only version A",THREAD,THIMBLE,Study2,B,121,145,Test,User,-,,Recall,Recall2,9398,thimble,100,4672,8188,1,1,,1
w10041110MM,36jia9uj1l,Relational_NO_JOL,1,326,2020-05-05T15:52:58-07:00,23.570513963699,1,versionA_stim.csv,READVersionA.csv,"Read Version A","Relational, read only version A",SAFETY,SEATBELT,Study2,S,147,114,Test,User,-,,Recall,Recall2,22212,seatbelt,100,16449,20545,1,1,,1
w10041110MM,36jia9uj1l,Relational_NO_JOL,1,327,2020-05-05T15:53:31-07:00,32.648573875427,1,versionA_stim.csv,READVersionA.csv,"Read Version A","Relational, read only version A",PLANE,AIRCRAFT,Study2,B,129,100,Test,User,-,,Recall,Recall2,32257,pilot,30.769230769231,28971,30105,0,0,,1
w10041110MM,36jia9uj1l,Relational_NO_JOL,1,328,2020-05-05T15:53:46-07:00,14.857812166214,1,versionA_stim.csv,READVersionA.csv,"Read Version A","Relational, read only version A",GLASS,BREAKABLE,Study2,B,127,103,Test,User,-,,Recall,Recall2,14462,breakable,100,2853,6005,1,1,,1
w10041110MM,36jia9uj1l,Relational_NO_JOL,1,329,2020-05-05T15:54:02-07:00,15.774605989456,1,versionA_stim.csv,READVersionA.csv,"Read Version A","Relational, read only version A",SHEARS,SCISSORS,Study2,F,112,143,Test,User,-,,Recall,Recall2,15377,scissors,100,6636,8833,1,1,,1
w10041110MM,36jia9uj1l,Relational_NO_JOL,1,330,2020-05-05T15:54:22-07:00,20.180269002914,1,versionA_stim.csv,READVersionA.csv,"Read Version A","Relational, read only version A",LITTER,TRASH,Study2,F,103,133,Test,User,-,,Recall,Recall2,19779,trash,100,9281,10799,1,1,,1
w10041110MM,36jia9uj1l,Relational_NO_JOL,1,331,2020-05-05T15:54:35-07:00,13.565930843353,1,versionA_stim.csv,READVersionA.csv,"Read Version A","Relational, read only version A",NAME,HATE,Study2,U,167,157,Test,User,-,,Recall,Recall2,13157,hate,100,4348,5700,1,1,,1
w10041110MM,36jia9uj1l,Relational_NO_JOL,1,332,2020-05-05T15:54:46-07:00,11.178831100464,1,versionA_stim.csv,READVersionA.csv,"Read Version A","Relational, read only version A",DRY,WET,Study2,S,146,125,Test,User,-,,Recall,Recall2,10786,wet,100,2491,3316,1,1,,1
w10041110MM,36jia9uj1l,Relational_NO_JOL,1,333,2020-05-05T15:55:13-07:00,26.979043006897,1,versionA_stim.csv,READVersionA.csv,"Read Version A","Relational, read only version A",LISTEN,FICTION,Study2,U,164,132,Test,User,-,,Recall,Recall2,26591,fiction,100,17161,19255,1,1,,1
w10041110MM,36jia9uj1l,Relational_NO_JOL,1,334,2020-05-05T15:55:32-07:00,18.654044866562,1,versionA_stim.csv,READVersionA.csv,"Read Version A","Relational, read only version A",DRIVER,CAR,Study2,F,106,151,Test,User,-,,Recall,Recall2,18268,car,100,15068,15843,1,1,,1
w10041110MM,36jia9uj1l,Relational_NO_JOL,1,335,2020-05-05T15:55:45-07:00,12.775402069092,1,versionA_stim.csv,READVersionA.csv,"Read Version A","Relational, read only version A",SCALP,HEAD,Study2,F,105,146,Test,User,-,,Recall,Recall2,12375,head,100,7509,8384,1,1,,1
w10041110MM,36jia9uj1l,Relational_NO_JOL,1,336,2020-05-05T15:55:56-07:00,10.710691928864,1,versionA_stim.csv,READVersionA.csv,"Read Version A","Relational, read only version A",TRUTH,LIE,Study2,S,148,119,Test,User,-,,Recall,Recall2,10314,lie,100,6151,6631,1,1,,1
w10041110MM,36jia9uj1l,Relational_NO_JOL,1,337,2020-05-05T15:56:34-07:00,37.991636037827,1,versionA_stim.csv,READVersionA.csv,"Read Version A","Relational, read only version A",CAR,WINDSHIELD,Study2,B,117,161,Test,User,-,,Recall,Recall2,37573,windshield,100,26069,30471,1,1,,1
w10041110MM,36jia9uj1l,Relational_NO_JOL,1,338,2020-05-05T15:56:44-07:00,10.556694030762,1,versionA_stim.csv,READVersionA.csv,"Read Version A","Relational, read only version A",KEYS,JOKE,Study2,U,165,166,Test,User,-,,Recall,Recall2,10106,joke,100,2539,3299,1,1,,1
w10041110MM,36jia9uj1l,Relational_NO_JOL,1,339,2020-05-05T15:56:55-07:00,10.427175045013,1,versionA_stim.csv,READVersionA.csv,"Read Version A","Relational, read only version A",BOTH,OUNCE,Study2,U,172,162,Test,User,-,,Recall,Recall2,10053,ounce,100,3586,4505,1,1,,1
w10041110MM,36jia9uj1l,Relational_NO_JOL,1,340,2020-05-05T15:57:06-07:00,10.981204986572,1,versionA_stim.csv,READVersionA.csv,"Read Version A","Relational, read only version A",CANDLE,WAX,Study2,S,139,120,Test,User,-,,Recall,Recall2,10571,wax,100,3169,4263,1,1,,1
w10041110MM,36jia9uj1l,Relational_NO_JOL,1,341,2020-05-05T15:57:58-07:00,52.578790903091,1,versionA_stim.csv,READVersionA.csv,"Read Version A","Relational, read only version A",BEST,FAVORITE,Study2,B,125,134,Test,User,-,,Recall,Recall2,52181,favorite,100,41968,44564,1,1,,1
w10041110MM,36jia9uj1l,Relational_NO_JOL,1,342,2020-05-05T15:58:06-07:00,7.8411161899567,1,versionA_stim.csv,READVersionA.csv,"Read Version A","Relational, read only version A",CHERRY,RED,Study2,F,104,172,Test,User,-,,Recall,Recall2,7502,red,100,2022,2364,1,1,,1
w10041110MM,36jia9uj1l,Relational_NO_JOL,1,343,2020-05-05T15:58:16-07:00,9.6059889793396,1,versionA_stim.csv,READVersionA.csv,"Read Version A","Relational, read only version A",SHOELACE,TIE,Study2,F,99,98,Test,User,-,,Recall,Recall2,9286,tie,100,2139,3499,1,1,,1
w10041110MM,36jia9uj1l,Relational_NO_JOL,1,344,2020-05-05T15:59:01-07:00,45.404577970505,1,versionA_stim.csv,READVersionA.csv,"Read Version A","Relational, read only version A",TURN,FLIP,Study2,B,116,117,Test,User,-,,Recall,Recall2,45010,flip,100,41561,42751,1,1,,1
w10041110MM,36jia9uj1l,Relational_NO_JOL,1,345,2020-05-05T15:59:19-07:00,17.820235013962,1,versionA_stim.csv,READVersionA.csv,"Read Version A","Relational, read only version A",TANTRUM,TEMPER,Study2,S,154,149,Test,User,-,,Recall,Recall2,16401,temper,100,7584,9321,1,1,,1
w10041110MM,36jia9uj1l,Relational_NO_JOL,1,346,2020-05-05T15:59:29-07:00,10.411003828049,1,versionA_stim.csv,READVersionA.csv,"Read Version A","Relational, read only version A",DEAD,COFFIN,Study2,B,128,102,Test,User,-,,Recall,Recall2,10019,coffin,100,2228,3995,1,1,,1
w10041110MM,36jia9uj1l,Relational_NO_JOL,1,347,2020-05-05T15:59:44-07:00,14.716950178146,1,versionA_stim.csv,READVersionA.csv,"Read Version A","Relational, read only version A",DETECTIVE,MYSTERY,Study2,F,100,136,Test,User,-,,Recall,Recall2,14325,mystery,100,5467,7418,1,1,,1
w10041110MM,36jia9uj1l,Relational_NO_JOL,1,348,2020-05-05T16:00:39-07:00,55.040383815765,1,versionA_stim.csv,READVersionA.csv,"Read Version A","Relational, read only version A",WRIST,BRACELET,Study2,S,140,118,Test,User,-,,Recall,Recall2,54654,bracelet,100,47071,52906,1,1,,0.942
w10041110MM,36jia9uj1l,Relational_NO_JOL,1,349,2020-05-05T16:01:11-07:00,31.677468061447,1,versionA_stim.csv,READVersionA.csv,"Read Version A","Relational, read only version A",VEHICLE,CHARM,Study2,U,160,154,Test,User,-,,Recall,Recall2,31297,charm,100,28067,29706,1,1,,1
w10041110MM,36jia9uj1l,Relational_NO_JOL,1,350,2020-05-05T16:01:21-07:00,10.091930150986,1,versionA_stim.csv,READVersionA.csv,"Read Version A","Relational, read only version A",CHOP,CUT,Study2,F,107,110,Test,User,-,,Recall,Recall2,9733,cut,100,6737,7375,1,1,,1
w10041110MM,36jia9uj1l,Relational_NO_JOL,1,351,2020-05-05T16:01:37-07:00,15.957309961319,1,versionA_stim.csv,READVersionA.csv,"Read Version A","Relational, read only version A",LOAN,SIGN,Study2,U,171,175,Test,User,-,,Recall,Recall2,15597,sign,100,12666,13841,1,1,,1
w10041110MM,36jia9uj1l,Relational_NO_JOL,1,352,2020-05-05T16:01:44-07:00,7.1593618392944,1,versionA_stim.csv,READVersionA.csv,"Read Version A","Relational, read only version A",FLEA,TICK,Study2,S,151,108,Test,User,-,,Recall,Recall2,6860,tick,100,4223,5362,1,1,,1
w10041110MM,36jia9uj1l,Relational_NO_JOL,1,353,2020-05-05T16:01:58-07:00,14.617966175079,1,versionA_stim.csv,READVersionA.csv,"Read Version A","Relational, read only version A",HONEST,TRUTHFUL,Study2,B,133,165,Test,User,-,,Recall,Recall2,14269,truthful,100,5690,7766,1,1,,1
w10041110MM,36jia9uj1l,Relational_NO_JOL,1,354,2020-05-05T16:02:04-07:00,5.7214570045471,1,versionA_stim.csv,READVersionA.csv,"Read Version A","Relational, read only version A",STRETCH,CLOTH,Study2,U,157,111,Test,User,-,,Recall,Recall2,5420,cloth,100,2692,3972,1,1,,1
w10041110MM,36jia9uj1l,Relational_NO_JOL,1,355,2020-05-05T16:02:14-07:00,9.3803858757019,1,versionA_stim.csv,READVersionA.csv,"Read Version A","Relational, read only version A",ADJOURN,END,Study2,F,101,171,Test,User,-,,Recall,Recall2,9089,end,100,6592,7357,1,1,,1
w10041110MM,36jia9uj1l,Relational_NO_JOL,1,356,2020-05-05T16:02:30-07:00,16.558552026749,1,versionA_stim.csv,READVersionA.csv,"Read Version A","Relational, read only version A",LOUD,NOISE,Study2,S,152,167,Test,User,-,,Recall,Recall2,16183,noise,100,8647,9794,1,1,,1
w10041110MM,36jia9uj1l,Relational_NO_JOL,1,357,2020-05-05T16:02:35-07:00,4.7332680225372,1,versionA_stim.csv,READVersionA.csv,"Read Version A","Relational, read only version A",CHILL,COLD,Study2,F,114,130,Test,User,-,,Recall,Recall2,4370,cold,100,1819,2843,1,1,,1
w10041110MM,36jia9uj1l,Relational_NO_JOL,1,358,2020-05-05T16:02:48-07:00,12.945166110992,1,versionA_stim.csv,READVersionA.csv,"Read Version A","Relational, read only version A",INCENSE,SMELL,Study2,F,110,122,Test,User,-,,Recall,Recall2,12575,smell,100,9314,11993,1,1,,1
w10041110MM,36jia9uj1l,Relational_NO_JOL,1,359,2020-05-05T16:03:00-07:00,12.081476926804,1,versionA_stim.csv,READVersionA.csv,"Read Version A","Relational, read only version A",FRUIT,STRAWBERRY,Study2,B,124,176,Test,User,-,,Recall,Recall2,11691,strawberry,100,6728,9436,1,1,,1
w10041110MM,36jia9uj1l,Relational_NO_JOL,1,360,2020-05-05T16:03:07-07:00,7.393040895462,1,versionA_stim.csv,READVersionA.csv,"Read Version A","Relational, read only version A",TEMPERATURE,Morning,Study2,U,173,128,Test,User,-,,Recall,Recall2,7101,morning,100,4768,6318,1,1,,1
w10041110MM,36jia9uj1l,Relational_NO_JOL,1,361,2020-05-05T16:03:12-07:00,4.9749319553375,1,versionA_stim.csv,READVersionA.csv,"Read Version A","Relational, read only version A",,,,,,0,Instruct,User,-,"You have completed this section. Please press Enter.",,Instruct7,4690,,,-1,-1,,,,1
w10041110MM,36jia9uj1l,Relational_NO_JOL,1,362,2020-05-05T16:03:16-07:00,3.3959791660309,1,versionA_stim.csv,READVersionA.csv,"Read Version A","Relational, read only version A",,,,,,0,Instruct,User,-,"The following screen will ask you a few questions abour your experience today. You must complete these questions to receive credit.",,Instruct8,3121,,,-1,-1,,,,1
