Username,ID,ExperimentName,Session,Trial,Date,TimeDif,"Condition Number","Stimuli File","Order File","Condition Description","Condition Notes",Stimuli*Cue,Stimuli*Answer,Stimuli*Shuffle,"Stimuli*Stimuli Notes",Stimuli*Value,Procedure*Item,"Procedure*Trial Type","Procedure*Max Time","Procedure*Min Time",Procedure*Text,"Procedure*Procedure Notes",Procedure*Shuffle,Response*RT,Response*Response,Response*Accuracy,Response*RTfirst,Response*RTlast,Response*strictAcc,Response*lenientAcc,Response*focus,Response*Focus
5e71a892634ba70d7272e498,s2t8byg018,"Deep vs Shallow",1,1,2020-07-08T14:20:44-07:00,26.928996801376,3,versionC_stim.csv,RLVersionC.csv,"Realational Version C","Relational, read only version C",,,,,,0,Instruct,-,10,"In this section, you will be presented with a series of word pairs. Please study both items in the pair.",,Instruct15,26496,,,-1,-1,,,,1
5e71a892634ba70d7272e498,s2t8byg018,"Deep vs Shallow",1,2,2020-07-08T14:21:00-07:00,16.546449184418,3,versionC_stim.csv,RLVersionC.csv,"Realational Version C","Relational, read only version C",,,,,,0,Instruct,-,15,"As you study, please think about how the two concepts are RELATED to each other. For example, if you see the pair TURTLE-CAT, think about how both are alive, they are both animals, and both can be kept as pets.",,Instruct19,15802,,,-1,-1,,,,1
5e71a892634ba70d7272e498,s2t8byg018,"Deep vs Shallow",1,3,2020-07-08T14:21:14-07:00,13.466010808945,3,versionC_stim.csv,RLVersionC.csv,"Realational Version C","Relational, read only version C",,,,,,0,FreeRecall,-,10,"What you should think about as you study each item pair? Type your response in the box below.",,CHECK1,12878,"think about how they are related",0,5441,11496,0,0,,1
5e71a892634ba70d7272e498,s2t8byg018,"Deep vs Shallow",1,4,2020-07-08T14:21:20-07:00,5.9301390647888,3,versionC_stim.csv,RLVersionC.csv,"Realational Version C","Relational, read only version C",,,,,,0,Instruct,User,-,"You will now begin the experiment. Press ENTER when you are ready to begin.",,Instruct000,5461,,,-1,-1,,,,1
5e71a892634ba70d7272e498,s2t8byg018,"Deep vs Shallow",1,5,2020-07-08T14:21:24-07:00,4.3530280590057,3,versionC_stim.csv,RLVersionC.csv,"Realational Version C","Relational, read only version C",JAM,SPACE,BUFFER1,Buffer,5,2,Study,User,-,,Study/JOL,BUFFER,3911,,,-1,-1,,,,1
5e71a892634ba70d7272e498,s2t8byg018,"Deep vs Shallow",1,6,2020-07-08T14:21:29-07:00,4.8621549606323,3,versionC_stim.csv,RLVersionC.csv,"Realational Version C","Relational, read only version C",CATCHER,BASEBALL,BUFFER1,Buffer,2,4,Study,User,-,,Study/JOL,BUFFER,4395,,,-1,-1,,,,1
5e71a892634ba70d7272e498,s2t8byg018,"Deep vs Shallow",1,7,2020-07-08T14:21:34-07:00,5.4292509555817,3,versionC_stim.csv,RLVersionC.csv,"Realational Version C","Relational, read only version C",GREEN,TREES,BUFFER1,Buffer,1,6,Study,User,-,,Study/JOL,BUFFER,4969,,,-1,-1,,,,1
5e71a892634ba70d7272e498,s2t8byg018,"Deep vs Shallow",1,8,2020-07-08T14:21:39-07:00,4.3239920139313,3,versionC_stim.csv,RLVersionC.csv,"Realational Version C","Relational, read only version C",BUTTER,PEANUT,BUFFER1,Buffer,3,3,Study,User,-,,Study/JOL,BUFFER,3872,,,-1,-1,,,,1
5e71a892634ba70d7272e498,s2t8byg018,"Deep vs Shallow",1,9,2020-07-08T14:21:44-07:00,4.9091169834137,3,versionC_stim.csv,RLVersionC.csv,"Realational Version C","Relational, read only version C",HIDE,SCARE,BUFFER1,Buffer,4,5,Study,User,-,,Study/JOL,BUFFER,4463,,,-1,-1,,,,1
5e71a892634ba70d7272e498,s2t8byg018,"Deep vs Shallow",1,10,2020-07-08T14:21:57-07:00,12.95054602623,3,versionC_stim.csv,RLVersionC.csv,"Realational Version C","Relational, read only version C",ACCIDENT,STRONG,Study1,U,80,66,Study,User,-,,Study/JOL,"Study Phase",12395,,,-1,-1,,,,1
5e71a892634ba70d7272e498,s2t8byg018,"Deep vs Shallow",1,11,2020-07-08T14:22:03-07:00,6.78151512146,3,versionC_stim.csv,RLVersionC.csv,"Realational Version C","Relational, read only version C",WORD,SENTENCE,Study1,F,31,14,Study,User,-,,Study/JOL,"Study Phase",5272,,,-1,-1,,,,1
5e71a892634ba70d7272e498,s2t8byg018,"Deep vs Shallow",1,12,2020-07-08T14:22:16-07:00,12.845341920853,3,versionC_stim.csv,RLVersionC.csv,"Realational Version C","Relational, read only version C",POSITION,MACHINE,Study1,U,76,53,Study,User,-,,Study/JOL,"Study Phase",11654,,,-1,-1,,,,1
5e71a892634ba70d7272e498,s2t8byg018,"Deep vs Shallow",1,13,2020-07-08T14:22:21-07:00,4.7588920593262,3,versionC_stim.csv,RLVersionC.csv,"Realational Version C","Relational, read only version C",CARD,CREDIT,Study1,B,23,9,Study,User,-,,Study/JOL,"Study Phase",3287,,,-1,-1,,,,1
5e71a892634ba70d7272e498,s2t8byg018,"Deep vs Shallow",1,14,2020-07-08T14:22:24-07:00,2.5158829689026,3,versionC_stim.csv,RLVersionC.csv,"Realational Version C","Relational, read only version C",DOG,PAW,Study1,B,15,52,Study,User,-,,Study/JOL,"Study Phase",2055,,,-1,-1,,,,1
5e71a892634ba70d7272e498,s2t8byg018,"Deep vs Shallow",1,15,2020-07-08T14:22:29-07:00,5.3378188610077,3,versionC_stim.csv,RLVersionC.csv,"Realational Version C","Relational, read only version C",FAMINE,HUNGER,Study1,F,40,80,Study,User,-,,Study/JOL,"Study Phase",4875,,,-1,-1,,,,1
5e71a892634ba70d7272e498,s2t8byg018,"Deep vs Shallow",1,16,2020-07-08T14:22:33-07:00,4.0948441028595,3,versionC_stim.csv,RLVersionC.csv,"Realational Version C","Relational, read only version C",WIND,BLOW,Study1,S,55,83,Study,User,-,,Study/JOL,"Study Phase",3625,,,-1,-1,,,,1
5e71a892634ba70d7272e498,s2t8byg018,"Deep vs Shallow",1,17,2020-07-08T14:22:37-07:00,3.7951340675354,3,versionC_stim.csv,RLVersionC.csv,"Realational Version C","Relational, read only version C",BLAZE,FIRE,Study1,F,45,60,Study,User,-,,Study/JOL,"Study Phase",3319,,,-1,-1,,,,1
5e71a892634ba70d7272e498,s2t8byg018,"Deep vs Shallow",1,18,2020-07-08T14:22:41-07:00,3.9581999778748,3,versionC_stim.csv,RLVersionC.csv,"Realational Version C","Relational, read only version C",CHILI,HOT,Study1,F,37,64,Study,User,-,,Study/JOL,"Study Phase",3511,,,-1,-1,,,,1
5e71a892634ba70d7272e498,s2t8byg018,"Deep vs Shallow",1,19,2020-07-08T14:22:49-07:00,8.5884189605713,3,versionC_stim.csv,RLVersionC.csv,"Realational Version C","Relational, read only version C",BELT,SOON,Study1,U,70,62,Study,User,-,,Study/JOL,"Study Phase",8124,,,-1,-1,,,,1
5e71a892634ba70d7272e498,s2t8byg018,"Deep vs Shallow",1,20,2020-07-08T14:22:54-07:00,4.5069780349731,3,versionC_stim.csv,RLVersionC.csv,"Realational Version C","Relational, read only version C",AMOUNT,NUMBER,Study1,S,47,30,Study,User,-,,Study/JOL,"Study Phase",4074,,,-1,-1,,,,1
5e71a892634ba70d7272e498,s2t8byg018,"Deep vs Shallow",1,21,2020-07-08T14:23:02-07:00,7.7202360630035,3,versionC_stim.csv,RLVersionC.csv,"Realational Version C","Relational, read only version C",SACKING,DIETARY,Study1,U,67,73,Study,User,-,,Study/JOL,"Study Phase",7272,,,-1,-1,,,,1
5e71a892634ba70d7272e498,s2t8byg018,"Deep vs Shallow",1,22,2020-07-08T14:23:10-07:00,8.8525819778442,3,versionC_stim.csv,RLVersionC.csv,"Realational Version C","Relational, read only version C",BRONZE,ARTERY,Study1,U,74,8,Study,User,-,,Study/JOL,"Study Phase",8409,,,-1,-1,,,,1
5e71a892634ba70d7272e498,s2t8byg018,"Deep vs Shallow",1,23,2020-07-08T14:23:18-07:00,7.2124578952789,3,versionC_stim.csv,RLVersionC.csv,"Realational Version C","Relational, read only version C",HAND,FIX,Study1,U,75,47,Study,User,-,,Study/JOL,"Study Phase",6673,,,-1,-1,,,,1
5e71a892634ba70d7272e498,s2t8byg018,"Deep vs Shallow",1,24,2020-07-08T14:23:23-07:00,5.3288950920105,3,versionC_stim.csv,RLVersionC.csv,"Realational Version C","Relational, read only version C",ATTIRE,CLOTHES,Study1,F,43,51,Study,User,-,,Study/JOL,"Study Phase",4878,,,-1,-1,,,,1
5e71a892634ba70d7272e498,s2t8byg018,"Deep vs Shallow",1,25,2020-07-08T14:23:29-07:00,6.3778738975525,3,versionC_stim.csv,RLVersionC.csv,"Realational Version C","Relational, read only version C",FUTURE,PAST,Study1,S,61,26,Study,User,-,,Study/JOL,"Study Phase",5925,,,-1,-1,,,,1
5e71a892634ba70d7272e498,s2t8byg018,"Deep vs Shallow",1,26,2020-07-08T14:23:33-07:00,3.4753551483154,3,versionC_stim.csv,RLVersionC.csv,"Realational Version C","Relational, read only version C",PLANT,ROOT,Study1,B,13,42,Study,User,-,,Study/JOL,"Study Phase",3027,,,-1,-1,,,,1
5e71a892634ba70d7272e498,s2t8byg018,"Deep vs Shallow",1,27,2020-07-08T14:23:35-07:00,2.4600179195404,3,versionC_stim.csv,RLVersionC.csv,"Realational Version C","Relational, read only version C",STENCH,SMELL,Study1,F,42,11,Study,User,-,,Study/JOL,"Study Phase",2007,,,-1,-1,,,,1
5e71a892634ba70d7272e498,s2t8byg018,"Deep vs Shallow",1,28,2020-07-08T14:23:40-07:00,5.0843570232391,3,versionC_stim.csv,RLVersionC.csv,"Realational Version C","Relational, read only version C",COLD,BITTER,Study1,B,12,57,Study,User,-,,Study/JOL,"Study Phase",4531,,,-1,-1,,,,1
5e71a892634ba70d7272e498,s2t8byg018,"Deep vs Shallow",1,29,2020-07-08T14:23:44-07:00,3.7582180500031,3,versionC_stim.csv,RLVersionC.csv,"Realational Version C","Relational, read only version C",SITE,LOCATION,Study1,S,48,16,Study,User,-,,Study/JOL,"Study Phase",2324,,,-1,-1,,,,1
5e71a892634ba70d7272e498,s2t8byg018,"Deep vs Shallow",1,30,2020-07-08T14:23:47-07:00,3.199569940567,3,versionC_stim.csv,RLVersionC.csv,"Realational Version C","Relational, read only version C",CHEESE,WINE,Study1,S,57,23,Study,User,-,,Study/JOL,"Study Phase",2415,,,-1,-1,,,,1
5e71a892634ba70d7272e498,s2t8byg018,"Deep vs Shallow",1,31,2020-07-08T14:23:51-07:00,3.8209989070892,3,versionC_stim.csv,RLVersionC.csv,"Realational Version C","Relational, read only version C",CAVE,DARK,Study1,F,28,41,Study,User,-,,Study/JOL,"Study Phase",3284,,,-1,-1,,,,1
5e71a892634ba70d7272e498,s2t8byg018,"Deep vs Shallow",1,32,2020-07-08T14:23:54-07:00,2.7682280540466,3,versionC_stim.csv,RLVersionC.csv,"Realational Version C","Relational, read only version C",SALAD,LETTUCE,Study1,S,59,32,Study,User,-,,Study/JOL,"Study Phase",2324,,,-1,-1,,,,1
5e71a892634ba70d7272e498,s2t8byg018,"Deep vs Shallow",1,33,2020-07-08T14:23:58-07:00,3.7819249629974,3,versionC_stim.csv,RLVersionC.csv,"Realational Version C","Relational, read only version C",FOOT,SHOE,Study1,S,60,76,Study,User,-,,Study/JOL,"Study Phase",3300,,,-1,-1,,,,1
5e71a892634ba70d7272e498,s2t8byg018,"Deep vs Shallow",1,34,2020-07-08T14:24:01-07:00,3.1605660915375,3,versionC_stim.csv,RLVersionC.csv,"Realational Version C","Relational, read only version C",WASP,BUG,Study1,F,32,68,Study,User,-,,Study/JOL,"Study Phase",2704,,,-1,-1,,,,1
5e71a892634ba70d7272e498,s2t8byg018,"Deep vs Shallow",1,35,2020-07-08T14:24:06-07:00,5.4040398597717,3,versionC_stim.csv,RLVersionC.csv,"Realational Version C","Relational, read only version C",ATTORNEY,LAW,Study1,F,34,49,Study,User,-,,Study/JOL,"Study Phase",4968,,,-1,-1,,,,1
5e71a892634ba70d7272e498,s2t8byg018,"Deep vs Shallow",1,36,2020-07-08T14:24:09-07:00,2.2865381240845,3,versionC_stim.csv,RLVersionC.csv,"Realational Version C","Relational, read only version C",TOILET,BATHROOM,Study1,S,58,21,Study,User,-,,Study/JOL,"Study Phase",1791,,,-1,-1,,,,1
5e71a892634ba70d7272e498,s2t8byg018,"Deep vs Shallow",1,37,2020-07-08T14:24:12-07:00,3.8809669017792,3,versionC_stim.csv,RLVersionC.csv,"Realational Version C","Relational, read only version C",CHILD,BABY,Study1,S,64,77,Study,User,-,,Study/JOL,"Study Phase",3340,,,-1,-1,,,,1
5e71a892634ba70d7272e498,s2t8byg018,"Deep vs Shallow",1,38,2020-07-08T14:24:15-07:00,2.5024931430817,3,versionC_stim.csv,RLVersionC.csv,"Realational Version C","Relational, read only version C",WASTE,DUMP,Study1,S,49,75,Study,User,-,,Study/JOL,"Study Phase",2051,,,-1,-1,,,,1
5e71a892634ba70d7272e498,s2t8byg018,"Deep vs Shallow",1,39,2020-07-08T14:24:26-07:00,10.832890987396,3,versionC_stim.csv,RLVersionC.csv,"Realational Version C","Relational, read only version C",VASE,KING,Study1,U,85,46,Study,User,-,,Study/JOL,"Study Phase",10257,,,-1,-1,,,,1
5e71a892634ba70d7272e498,s2t8byg018,"Deep vs Shallow",1,40,2020-07-08T14:24:32-07:00,5.9748480319977,3,versionC_stim.csv,RLVersionC.csv,"Realational Version C","Relational, read only version C",FLOOR,DISCOVER,Study1,U,71,24,Study,User,-,,Study/JOL,"Study Phase",5526,,,-1,-1,,,,1
5e71a892634ba70d7272e498,s2t8byg018,"Deep vs Shallow",1,41,2020-07-08T14:24:41-07:00,8.7708899974823,3,versionC_stim.csv,RLVersionC.csv,"Realational Version C","Relational, read only version C",SIGHT,DEBATE,Study1,U,73,58,Study,User,-,,Study/JOL,"Study Phase",8276,,,-1,-1,,,,1
5e71a892634ba70d7272e498,s2t8byg018,"Deep vs Shallow",1,42,2020-07-08T14:24:46-07:00,5.5370128154755,3,versionC_stim.csv,RLVersionC.csv,"Realational Version C","Relational, read only version C",BAD,DELINQUENT,Study1,B,6,63,Study,User,-,,Study/JOL,"Study Phase",5083,,,-1,-1,,,,1
5e71a892634ba70d7272e498,s2t8byg018,"Deep vs Shallow",1,43,2020-07-08T14:24:48-07:00,2.3019051551819,3,versionC_stim.csv,RLVersionC.csv,"Realational Version C","Relational, read only version C",COW,HERD,Study1,B,22,7,Study,User,-,,Study/JOL,"Study Phase",1855,,,-1,-1,,,,1
5e71a892634ba70d7272e498,s2t8byg018,"Deep vs Shallow",1,44,2020-07-08T14:24:54-07:00,5.4735338687897,3,versionC_stim.csv,RLVersionC.csv,"Realational Version C","Relational, read only version C",,,,,,0,Instruct,-,3,"Remember to focus on how the two items are similiar while you study!",,CHECK2,4935,,,-1,-1,,,,1
5e71a892634ba70d7272e498,s2t8byg018,"Deep vs Shallow",1,45,2020-07-08T14:25:01-07:00,7.0069391727448,3,versionC_stim.csv,RLVersionC.csv,"Realational Version C","Relational, read only version C",DEFINITION,MEANING,Study1,S,62,39,Study,User,-,,Study/JOL,"Study Phase",6534,,,-1,-1,,,,1
5e71a892634ba70d7272e498,s2t8byg018,"Deep vs Shallow",1,46,2020-07-08T14:25:04-07:00,2.9885737895966,3,versionC_stim.csv,RLVersionC.csv,"Realational Version C","Relational, read only version C",WAR,REVOLUTION,Study1,B,20,59,Study,User,-,,Study/JOL,"Study Phase",2548,,,-1,-1,,,,1
5e71a892634ba70d7272e498,s2t8byg018,"Deep vs Shallow",1,47,2020-07-08T14:25:07-07:00,3.121659040451,3,versionC_stim.csv,RLVersionC.csv,"Realational Version C","Relational, read only version C",DESIGN,ARCHITECTURE,Study1,S,51,33,Study,User,-,,Study/JOL,"Study Phase",2667,,,-1,-1,,,,1
5e71a892634ba70d7272e498,s2t8byg018,"Deep vs Shallow",1,48,2020-07-08T14:25:10-07:00,3.0988669395447,3,versionC_stim.csv,RLVersionC.csv,"Realational Version C","Relational, read only version C",WOMAN,LIFT,Study1,U,69,50,Study,User,-,,Study/JOL,"Study Phase",2653,,,-1,-1,,,,1
5e71a892634ba70d7272e498,s2t8byg018,"Deep vs Shallow",1,49,2020-07-08T14:25:14-07:00,3.7501740455627,3,versionC_stim.csv,RLVersionC.csv,"Realational Version C","Relational, read only version C",CHORE,WORK,Study1,F,39,27,Study,User,-,,Study/JOL,"Study Phase",3316,,,-1,-1,,,,1
5e71a892634ba70d7272e498,s2t8byg018,"Deep vs Shallow",1,50,2020-07-08T14:25:19-07:00,5.2118291854858,3,versionC_stim.csv,RLVersionC.csv,"Realational Version C","Relational, read only version C",BIRD,SWAN,Study1,B,14,85,Study,User,-,,Study/JOL,"Study Phase",4776,,,-1,-1,,,,1
5e71a892634ba70d7272e498,s2t8byg018,"Deep vs Shallow",1,51,2020-07-08T14:25:22-07:00,2.8482849597931,3,versionC_stim.csv,RLVersionC.csv,"Realational Version C","Relational, read only version C",WATER,BRIDGE,Study1,B,18,44,Study,User,-,,Study/JOL,"Study Phase",2397,,,-1,-1,,,,1
5e71a892634ba70d7272e498,s2t8byg018,"Deep vs Shallow",1,52,2020-07-08T14:25:25-07:00,3.3276360034943,3,versionC_stim.csv,RLVersionC.csv,"Realational Version C","Relational, read only version C",GROWTH,HEIGHT,Study1,F,30,36,Study,User,-,,Study/JOL,"Study Phase",2786,,,-1,-1,,,,1
5e71a892634ba70d7272e498,s2t8byg018,"Deep vs Shallow",1,53,2020-07-08T14:25:28-07:00,2.3741309642792,3,versionC_stim.csv,RLVersionC.csv,"Realational Version C","Relational, read only version C",ASSIGNMENT,DUE,Study1,S,46,78,Study,User,-,,Study/JOL,"Study Phase",1923,,,-1,-1,,,,1
5e71a892634ba70d7272e498,s2t8byg018,"Deep vs Shallow",1,54,2020-07-08T14:25:31-07:00,3.8841919898987,3,versionC_stim.csv,RLVersionC.csv,"Realational Version C","Relational, read only version C",JURY,TRIAL,Study1,S,50,29,Study,User,-,,Study/JOL,"Study Phase",3350,,,-1,-1,,,,1
5e71a892634ba70d7272e498,s2t8byg018,"Deep vs Shallow",1,55,2020-07-08T14:25:35-07:00,4.0386049747467,3,versionC_stim.csv,RLVersionC.csv,"Realational Version C","Relational, read only version C",HAMMER,CHISEL,Study1,B,9,31,Study,User,-,,Study/JOL,"Study Phase",3579,,,-1,-1,,,,1
5e71a892634ba70d7272e498,s2t8byg018,"Deep vs Shallow",1,56,2020-07-08T14:25:39-07:00,3.2652370929718,3,versionC_stim.csv,RLVersionC.csv,"Realational Version C","Relational, read only version C",CLEAN,HYGIENE,Study1,B,17,45,Study,User,-,,Study/JOL,"Study Phase",2817,,,-1,-1,,,,1
5e71a892634ba70d7272e498,s2t8byg018,"Deep vs Shallow",1,57,2020-07-08T14:25:54-07:00,15.157135009766,3,versionC_stim.csv,RLVersionC.csv,"Realational Version C","Relational, read only version C",RIDDLE,SUGAR,Study1,U,81,10,Study,User,-,,Study/JOL,"Study Phase",14614,,,-1,-1,,,,1
5e71a892634ba70d7272e498,s2t8byg018,"Deep vs Shallow",1,58,2020-07-08T14:25:57-07:00,2.9545469284058,3,versionC_stim.csv,RLVersionC.csv,"Realational Version C","Relational, read only version C",DIVISION,MATH,Study1,F,33,55,Study,User,-,,Study/JOL,"Study Phase",2394,,,-1,-1,,,,1
5e71a892634ba70d7272e498,s2t8byg018,"Deep vs Shallow",1,59,2020-07-08T14:26:01-07:00,4.130756855011,3,versionC_stim.csv,RLVersionC.csv,"Realational Version C","Relational, read only version C",FISH,TUNA,Study1,B,25,72,Study,User,-,,Study/JOL,"Study Phase",3643,,,-1,-1,,,,1
5e71a892634ba70d7272e498,s2t8byg018,"Deep vs Shallow",1,60,2020-07-08T14:26:04-07:00,2.8436291217804,3,versionC_stim.csv,RLVersionC.csv,"Realational Version C","Relational, read only version C",MONEY,WAGE,Study1,B,8,19,Study,User,-,,Study/JOL,"Study Phase",2380,,,-1,-1,,,,1
5e71a892634ba70d7272e498,s2t8byg018,"Deep vs Shallow",1,61,2020-07-08T14:26:07-07:00,2.9717769622803,3,versionC_stim.csv,RLVersionC.csv,"Realational Version C","Relational, read only version C",CAR,HAPPY,Study1,U,77,34,Study,User,-,,Study/JOL,"Study Phase",2377,,,-1,-1,,,,1
5e71a892634ba70d7272e498,s2t8byg018,"Deep vs Shallow",1,62,2020-07-08T14:26:11-07:00,4.337131023407,3,versionC_stim.csv,RLVersionC.csv,"Realational Version C","Relational, read only version C",ENOUGH,FULL,Study1,F,26,86,Study,User,-,,Study/JOL,"Study Phase",3891,,,-1,-1,,,,1
5e71a892634ba70d7272e498,s2t8byg018,"Deep vs Shallow",1,63,2020-07-08T14:26:16-07:00,4.7194399833679,3,versionC_stim.csv,RLVersionC.csv,"Realational Version C","Relational, read only version C",HUNGRY,PARK,Study1,U,68,22,Study,User,-,,Study/JOL,"Study Phase",4267,,,-1,-1,,,,1
5e71a892634ba70d7272e498,s2t8byg018,"Deep vs Shallow",1,64,2020-07-08T14:26:19-07:00,3.1383550167084,3,versionC_stim.csv,RLVersionC.csv,"Realational Version C","Relational, read only version C",STING,HORNET,Study1,B,11,12,Study,User,-,,Study/JOL,"Study Phase",2678,,,-1,-1,,,,1
5e71a892634ba70d7272e498,s2t8byg018,"Deep vs Shallow",1,65,2020-07-08T14:26:22-07:00,2.7516388893127,3,versionC_stim.csv,RLVersionC.csv,"Realational Version C","Relational, read only version C",FANTASTIC,GREAT,Study1,F,35,61,Study,User,-,,Study/JOL,"Study Phase",2290,,,-1,-1,,,,1
5e71a892634ba70d7272e498,s2t8byg018,"Deep vs Shallow",1,66,2020-07-08T14:26:25-07:00,3.1189250946045,3,versionC_stim.csv,RLVersionC.csv,"Realational Version C","Relational, read only version C",END,BEGIN,Study1,S,54,43,Study,User,-,,Study/JOL,"Study Phase",2653,,,-1,-1,,,,1
5e71a892634ba70d7272e498,s2t8byg018,"Deep vs Shallow",1,67,2020-07-08T14:26:29-07:00,3.766832113266,3,versionC_stim.csv,RLVersionC.csv,"Realational Version C","Relational, read only version C",BUSINESS,DEATH,Study1,U,72,13,Study,User,-,,Study/JOL,"Study Phase",3197,,,-1,-1,,,,1
5e71a892634ba70d7272e498,s2t8byg018,"Deep vs Shallow",1,68,2020-07-08T14:26:38-07:00,9.7444767951965,3,versionC_stim.csv,RLVersionC.csv,"Realational Version C","Relational, read only version C",FLOWER,ORCHID,Study1,B,24,18,Study,User,-,,Study/JOL,"Study Phase",9236,,,-1,-1,,,,1
5e71a892634ba70d7272e498,s2t8byg018,"Deep vs Shallow",1,69,2020-07-08T14:26:43-07:00,5.0724310874939,3,versionC_stim.csv,RLVersionC.csv,"Realational Version C","Relational, read only version C",WOULD,CASH,Study1,U,83,70,Study,User,-,,Study/JOL,"Study Phase",4599,,,-1,-1,,,,1
5e71a892634ba70d7272e498,s2t8byg018,"Deep vs Shallow",1,70,2020-07-08T14:26:46-07:00,2.9807229042053,3,versionC_stim.csv,RLVersionC.csv,"Realational Version C","Relational, read only version C",SODA,POP,Study1,S,56,84,Study,User,-,,Study/JOL,"Study Phase",2530,,,-1,-1,,,,1
5e71a892634ba70d7272e498,s2t8byg018,"Deep vs Shallow",1,71,2020-07-08T14:26:53-07:00,6.8866090774536,3,versionC_stim.csv,RLVersionC.csv,"Realational Version C","Relational, read only version C",BAR,GRILL,Study1,S,52,82,Study,User,-,,Study/JOL,"Study Phase",6316,,,-1,-1,,,,1
5e71a892634ba70d7272e498,s2t8byg018,"Deep vs Shallow",1,72,2020-07-08T14:26:56-07:00,3.1170859336853,3,versionC_stim.csv,RLVersionC.csv,"Realational Version C","Relational, read only version C",PILOT,PLANE,Study1,F,44,81,Study,User,-,,Study/JOL,"Study Phase",2673,,,-1,-1,,,,1
5e71a892634ba70d7272e498,s2t8byg018,"Deep vs Shallow",1,73,2020-07-08T14:27:02-07:00,5.2061491012573,3,versionC_stim.csv,RLVersionC.csv,"Realational Version C","Relational, read only version C",TALK,DISCUSSION,Study1,B,21,74,Study,User,-,,Study/JOL,"Study Phase",4728,,,-1,-1,,,,1
5e71a892634ba70d7272e498,s2t8byg018,"Deep vs Shallow",1,74,2020-07-08T14:27:12-07:00,10.746505022049,3,versionC_stim.csv,RLVersionC.csv,"Realational Version C","Relational, read only version C",CLUTTER,PUSHER,Study1,U,66,56,Study,User,-,,Study/JOL,"Study Phase",10187,,,-1,-1,,,,1
5e71a892634ba70d7272e498,s2t8byg018,"Deep vs Shallow",1,75,2020-07-08T14:27:16-07:00,3.7510809898376,3,versionC_stim.csv,RLVersionC.csv,"Realational Version C","Relational, read only version C",DROWSY,SLEEP,Study1,F,41,25,Study,User,-,,Study/JOL,"Study Phase",3281,,,-1,-1,,,,1
5e71a892634ba70d7272e498,s2t8byg018,"Deep vs Shallow",1,76,2020-07-08T14:27:20-07:00,3.9248220920563,3,versionC_stim.csv,RLVersionC.csv,"Realational Version C","Relational, read only version C",SICK,HIDE,Study1,U,84,28,Study,User,-,,Study/JOL,"Study Phase",3480,,,-1,-1,,,,1
5e71a892634ba70d7272e498,s2t8byg018,"Deep vs Shallow",1,77,2020-07-08T14:27:31-07:00,10.890848875046,3,versionC_stim.csv,RLVersionC.csv,"Realational Version C","Relational, read only version C",TUCK,ALLOW,Study1,U,78,67,Study,User,-,,Study/JOL,"Study Phase",10351,,,-1,-1,,,,1
5e71a892634ba70d7272e498,s2t8byg018,"Deep vs Shallow",1,78,2020-07-08T14:27:36-07:00,4.7168481349945,3,versionC_stim.csv,RLVersionC.csv,"Realational Version C","Relational, read only version C",NEWS,EDITOR,Study1,B,10,38,Study,User,-,,Study/JOL,"Study Phase",4249,,,-1,-1,,,,1
5e71a892634ba70d7272e498,s2t8byg018,"Deep vs Shallow",1,79,2020-07-08T14:27:42-07:00,6.7711369991302,3,versionC_stim.csv,RLVersionC.csv,"Realational Version C","Relational, read only version C",OUT,WAY,Study1,B,16,54,Study,User,-,,Study/JOL,"Study Phase",6306,,,-1,-1,,,,1
5e71a892634ba70d7272e498,s2t8byg018,"Deep vs Shallow",1,80,2020-07-08T14:27:45-07:00,2.9880368709564,3,versionC_stim.csv,RLVersionC.csv,"Realational Version C","Relational, read only version C",LATCH,KEY,Study1,F,36,65,Study,User,-,,Study/JOL,"Study Phase",2552,,,-1,-1,,,,1
5e71a892634ba70d7272e498,s2t8byg018,"Deep vs Shallow",1,81,2020-07-08T14:27:49-07:00,3.9296479225159,3,versionC_stim.csv,RLVersionC.csv,"Realational Version C","Relational, read only version C",SIP,DRINK,Study1,F,27,48,Study,User,-,,Study/JOL,"Study Phase",3474,,,-1,-1,,,,1
5e71a892634ba70d7272e498,s2t8byg018,"Deep vs Shallow",1,82,2020-07-08T14:27:53-07:00,3.4364910125732,3,versionC_stim.csv,RLVersionC.csv,"Realational Version C","Relational, read only version C",SEIZE,TAKE,Study1,F,29,35,Study,User,-,,Study/JOL,"Study Phase",2961,,,-1,-1,,,,1
5e71a892634ba70d7272e498,s2t8byg018,"Deep vs Shallow",1,83,2020-07-08T14:27:58-07:00,5.0638561248779,3,versionC_stim.csv,RLVersionC.csv,"Realational Version C","Relational, read only version C",LION,ART,Study1,U,79,17,Study,User,-,,Study/JOL,"Study Phase",4595,,,-1,-1,,,,1
5e71a892634ba70d7272e498,s2t8byg018,"Deep vs Shallow",1,84,2020-07-08T14:28:01-07:00,3.5085389614105,3,versionC_stim.csv,RLVersionC.csv,"Realational Version C","Relational, read only version C",RACKET,BALL,Study1,F,38,69,Study,User,-,,Study/JOL,"Study Phase",3056,,,-1,-1,,,,1
5e71a892634ba70d7272e498,s2t8byg018,"Deep vs Shallow",1,85,2020-07-08T14:28:05-07:00,4.0878269672394,3,versionC_stim.csv,RLVersionC.csv,"Realational Version C","Relational, read only version C",BEE,HONEY,Study1,S,63,40,Study,User,-,,Study/JOL,"Study Phase",3619,,,-1,-1,,,,1
5e71a892634ba70d7272e498,s2t8byg018,"Deep vs Shallow",1,86,2020-07-08T14:28:08-07:00,2.8992631435394,3,versionC_stim.csv,RLVersionC.csv,"Realational Version C","Relational, read only version C",STOMACH,DIGESTION,Study1,B,7,15,Study,User,-,,Study/JOL,"Study Phase",2452,,,-1,-1,,,,1
5e71a892634ba70d7272e498,s2t8byg018,"Deep vs Shallow",1,87,2020-07-08T14:28:11-07:00,2.3827838897705,3,versionC_stim.csv,RLVersionC.csv,"Realational Version C","Relational, read only version C",ROUND,CIRCLE,Study1,S,65,37,Study,User,-,,Study/JOL,"Study Phase",1907,,,-1,-1,,,,1
5e71a892634ba70d7272e498,s2t8byg018,"Deep vs Shallow",1,88,2020-07-08T14:28:14-07:00,3.1238589286804,3,versionC_stim.csv,RLVersionC.csv,"Realational Version C","Relational, read only version C",ROCK,GEOLOGY,Study1,B,19,71,Study,User,-,,Study/JOL,"Study Phase",2567,,,-1,-1,,,,1
5e71a892634ba70d7272e498,s2t8byg018,"Deep vs Shallow",1,89,2020-07-08T14:28:26-07:00,11.776144981384,3,versionC_stim.csv,RLVersionC.csv,"Realational Version C","Relational, read only version C",ADD,VALLEY,Study1,U,82,79,Study,User,-,,Study/JOL,"Study Phase",11193,,,-1,-1,,,,1
5e71a892634ba70d7272e498,s2t8byg018,"Deep vs Shallow",1,90,2020-07-08T14:28:28-07:00,2.6535391807556,3,versionC_stim.csv,RLVersionC.csv,"Realational Version C","Relational, read only version C",LIVER,KIDNEY,Study1,S,53,20,Study,User,-,,Study/JOL,"Study Phase",2163,,,-1,-1,,,,1
5e71a892634ba70d7272e498,s2t8byg018,"Deep vs Shallow",1,91,2020-07-08T14:28:31-07:00,2.6208980083466,3,versionC_stim.csv,RLVersionC.csv,"Realational Version C","Relational, read only version C",SPACE,MOON,BUFFER2,Buffer,89,87,Study,User,-,,Study/JOL,BUFFER2,2158,,,-1,-1,,,,1
5e71a892634ba70d7272e498,s2t8byg018,"Deep vs Shallow",1,92,2020-07-08T14:28:36-07:00,4.7835907936096,3,versionC_stim.csv,RLVersionC.csv,"Realational Version C","Relational, read only version C",STUFF,THING,BUFFER2,Buffer,90,90,Study,User,-,,Study/JOL,BUFFER2,4209,,,-1,-1,,,,1
5e71a892634ba70d7272e498,s2t8byg018,"Deep vs Shallow",1,93,2020-07-08T14:28:41-07:00,4.9367451667786,3,versionC_stim.csv,RLVersionC.csv,"Realational Version C","Relational, read only version C",POLICE,SHERRIF,BUFFER2,Buffer,87,89,Study,User,-,,Study/JOL,BUFFER2,4461,,,-1,-1,,,,1
5e71a892634ba70d7272e498,s2t8byg018,"Deep vs Shallow",1,94,2020-07-08T14:28:44-07:00,3.1638278961182,3,versionC_stim.csv,RLVersionC.csv,"Realational Version C","Relational, read only version C",CHOCOLATE,MALT,BUFFER2,Buffer,88,88,Study,User,-,,Study/JOL,BUFFER2,2694,,,-1,-1,,,,1
5e71a892634ba70d7272e498,s2t8byg018,"Deep vs Shallow",1,95,2020-07-08T14:28:46-07:00,2.6587181091309,3,versionC_stim.csv,RLVersionC.csv,"Realational Version C","Relational, read only version C",GOOSE,GEESE,BUFFER2,Buffer,86,91,Study,User,-,,Study/JOL,BUFFER2,2178,,,-1,-1,,,,1
5e71a892634ba70d7272e498,s2t8byg018,"Deep vs Shallow",1,96,2020-07-08T14:28:50-07:00,3.9462628364563,3,versionC_stim.csv,RLVersionC.csv,"Realational Version C","Relational, read only version C",,,,,,0,Instruct,User,-,"You have completed this section. Please press Enter.",Filler_Instruction,Instruct2,3405,,,-1,-1,,,,1
5e71a892634ba70d7272e498,s2t8byg018,"Deep vs Shallow",1,97,2020-07-08T14:28:54-07:00,3.268844127655,3,versionC_stim.csv,RLVersionC.csv,"Realational Version C","Relational, read only version C",,,,,,0,Instruct,User,-,"You have completed this section. Please press Enter.",Filler_Instruction,Instruct5,2803,,,-1,-1,,,,1
5e71a892634ba70d7272e498,s2t8byg018,"Deep vs Shallow",1,98,2020-07-08T14:29:09-07:00,14.916745901108,3,versionC_stim.csv,RLVersionC.csv,"Realational Version C","Relational, read only version C",,,,,,0,FreeRecall,-,10,"What were you supposed to focus on while you studied each pair? (Hint: Think back to the instructions). Type your answer in the space below.",,CHECK3,14341,"think about the relationships between objects",0,6237,13021,0,0,,1
5e71a892634ba70d7272e498,s2t8byg018,"Deep vs Shallow",1,99,2020-07-08T14:31:09-07:00,120.60743498802,3,versionC_stim.csv,RLVersionC.csv,"Realational Version C","Relational, read only version C",,,,,,0,FreeRecall,120,120,"Please list the 50 US states in alphabetical order. The task will automatically advance to the next screen after two minutes.",,Filler1,120002,"alabama alaska arkansas california colorado connecticut delaware idaho kansas maryland minnesota missouri new york rhode island tennessee utah washington ",0,6342,114048,0,0,,1
5e71a892634ba70d7272e498,s2t8byg018,"Deep vs Shallow",1,100,2020-07-08T14:31:21-07:00,11.903098106384,3,versionC_stim.csv,RLVersionC.csv,"Realational Version C","Relational, read only version C",,,,,,0,Instruct,-,10,"You will now be presented with the first word from each of the previously studied item pairs. Please type the missing word. If you do not know the word, you may guess or press Enter to skip forward to the next pair.",,Instruct3,11169,,,-1,-1,,,,1
5e71a892634ba70d7272e498,s2t8byg018,"Deep vs Shallow",1,101,2020-07-08T14:31:26-07:00,4.9443960189819,3,versionC_stim.csv,RLVersionC.csv,"Realational Version C","Relational, read only version C",WIND,BLOW,Study1,S,55,83,Test,User,-,,Recall,Recall1,4424,blow,100,2396,2851,1,1,,1
5e71a892634ba70d7272e498,s2t8byg018,"Deep vs Shallow",1,102,2020-07-08T14:31:33-07:00,7.0959050655365,3,versionC_stim.csv,RLVersionC.csv,"Realational Version C","Relational, read only version C",GROWTH,HEIGHT,Study1,F,30,36,Test,User,-,,Recall,Recall1,6621,height,100,5311,5759,1,1,,1
5e71a892634ba70d7272e498,s2t8byg018,"Deep vs Shallow",1,103,2020-07-08T14:31:36-07:00,3.0908219814301,3,versionC_stim.csv,RLVersionC.csv,"Realational Version C","Relational, read only version C",FANTASTIC,GREAT,Study1,F,35,61,Test,User,-,,Recall,Recall1,2613,great,100,1276,1668,1,1,,1
5e71a892634ba70d7272e498,s2t8byg018,"Deep vs Shallow",1,104,2020-07-08T14:31:40-07:00,3.4105968475342,3,versionC_stim.csv,RLVersionC.csv,"Realational Version C","Relational, read only version C",DOG,PAW,Study1,B,15,52,Test,User,-,,Recall,Recall1,2927,paw,100,1615,2135,1,1,,1
5e71a892634ba70d7272e498,s2t8byg018,"Deep vs Shallow",1,105,2020-07-08T14:31:46-07:00,6.0421931743622,3,versionC_stim.csv,RLVersionC.csv,"Realational Version C","Relational, read only version C",ROUND,CIRCLE,Study1,S,65,37,Test,User,-,,Recall,Recall1,5534,circle,100,4120,4735,1,1,,1
5e71a892634ba70d7272e498,s2t8byg018,"Deep vs Shallow",1,106,2020-07-08T14:31:53-07:00,7.0921409130096,3,versionC_stim.csv,RLVersionC.csv,"Realational Version C","Relational, read only version C",NEWS,EDITOR,Study1,B,10,38,Test,User,-,,Recall,Recall1,6632,editor,100,4741,5484,1,1,,1
5e71a892634ba70d7272e498,s2t8byg018,"Deep vs Shallow",1,107,2020-07-08T14:31:56-07:00,3.6135430335999,3,versionC_stim.csv,RLVersionC.csv,"Realational Version C","Relational, read only version C",TALK,DISCUSSION,Study1,B,21,74,Test,User,-,,Recall,Recall1,3137,discussion,100,1541,2269,1,1,,1
5e71a892634ba70d7272e498,s2t8byg018,"Deep vs Shallow",1,108,2020-07-08T14:32:06-07:00,9.7957098484039,3,versionC_stim.csv,RLVersionC.csv,"Realational Version C","Relational, read only version C",WASP,BUG,Study1,F,32,68,Test,User,-,,Recall,Recall1,9320,hornet,0,4494,6565,0,0,,1
5e71a892634ba70d7272e498,s2t8byg018,"Deep vs Shallow",1,109,2020-07-08T14:32:18-07:00,11.660149097443,3,versionC_stim.csv,RLVersionC.csv,"Realational Version C","Relational, read only version C",BAD,DELINQUENT,Study1,B,6,63,Test,User,-,,Recall,Recall1,11078,,0,-1,-1,0,0,,1
5e71a892634ba70d7272e498,s2t8byg018,"Deep vs Shallow",1,110,2020-07-08T14:32:23-07:00,4.7230439186096,3,versionC_stim.csv,RLVersionC.csv,"Realational Version C","Relational, read only version C",SIP,DRINK,Study1,F,27,48,Test,User,-,,Recall,Recall1,4197,drink,100,2711,3191,1,1,,1
5e71a892634ba70d7272e498,s2t8byg018,"Deep vs Shallow",1,111,2020-07-08T14:32:42-07:00,19.137323141098,3,versionC_stim.csv,RLVersionC.csv,"Realational Version C","Relational, read only version C",MONEY,WAGE,Study1,B,8,19,Test,User,-,,Recall,Recall1,17133,value,44.444444444444,6687,16351,0,0,,1
5e71a892634ba70d7272e498,s2t8byg018,"Deep vs Shallow",1,112,2020-07-08T14:32:47-07:00,4.8824398517609,3,versionC_stim.csv,RLVersionC.csv,"Realational Version C","Relational, read only version C",TOILET,BATHROOM,Study1,S,58,21,Test,User,-,,Recall,Recall1,4392,bathroom,100,1733,2901,1,1,,1
5e71a892634ba70d7272e498,s2t8byg018,"Deep vs Shallow",1,113,2020-07-08T14:32:55-07:00,8.4097361564636,3,versionC_stim.csv,RLVersionC.csv,"Realational Version C","Relational, read only version C",BIRD,SWAN,Study1,B,14,85,Test,User,-,,Recall,Recall1,6873,,0,-1,-1,0,0,,1
5e71a892634ba70d7272e498,s2t8byg018,"Deep vs Shallow",1,114,2020-07-08T14:32:58-07:00,2.8997089862823,3,versionC_stim.csv,RLVersionC.csv,"Realational Version C","Relational, read only version C",SODA,POP,Study1,S,56,84,Test,User,-,,Recall,Recall1,2421,pop,100,1282,1522,1,1,,1
5e71a892634ba70d7272e498,s2t8byg018,"Deep vs Shallow",1,115,2020-07-08T14:33:01-07:00,3.2356178760529,3,versionC_stim.csv,RLVersionC.csv,"Realational Version C","Relational, read only version C",ASSIGNMENT,DUE,Study1,S,46,78,Test,User,-,,Recall,Recall1,2753,due,100,1575,1975,1,1,,1
5e71a892634ba70d7272e498,s2t8byg018,"Deep vs Shallow",1,116,2020-07-08T14:33:04-07:00,3.0059421062469,3,versionC_stim.csv,RLVersionC.csv,"Realational Version C","Relational, read only version C",FAMINE,HUNGER,Study1,F,40,80,Test,User,-,,Recall,Recall1,2505,hunger,100,1403,1858,1,1,,1
5e71a892634ba70d7272e498,s2t8byg018,"Deep vs Shallow",1,117,2020-07-08T14:33:10-07:00,6.2040939331055,3,versionC_stim.csv,RLVersionC.csv,"Realational Version C","Relational, read only version C",OUT,WAY,Study1,B,16,54,Test,User,-,,Recall,Recall1,5717,way,100,4515,4827,1,1,,1
5e71a892634ba70d7272e498,s2t8byg018,"Deep vs Shallow",1,118,2020-07-08T14:33:14-07:00,3.3060381412506,3,versionC_stim.csv,RLVersionC.csv,"Realational Version C","Relational, read only version C",LION,ART,Study1,U,79,17,Test,User,-,,Recall,Recall1,2825,art,100,1792,2095,1,1,,1
5e71a892634ba70d7272e498,s2t8byg018,"Deep vs Shallow",1,119,2020-07-08T14:33:22-07:00,8.4364378452301,3,versionC_stim.csv,RLVersionC.csv,"Realational Version C","Relational, read only version C",COLD,BITTER,Study1,B,12,57,Test,User,-,,Recall,Recall1,7942,bitter,100,6624,7176,1,1,,1
5e71a892634ba70d7272e498,s2t8byg018,"Deep vs Shallow",1,120,2020-07-08T14:33:31-07:00,8.6427900791168,3,versionC_stim.csv,RLVersionC.csv,"Realational Version C","Relational, read only version C",CAVE,DARK,Study1,F,28,41,Test,User,-,,Recall,Recall1,8147,dark,100,2753,7313,1,1,,1
5e71a892634ba70d7272e498,s2t8byg018,"Deep vs Shallow",1,121,2020-07-08T14:33:38-07:00,7.0559248924255,3,versionC_stim.csv,RLVersionC.csv,"Realational Version C","Relational, read only version C",BRONZE,ARTERY,Study1,U,74,8,Test,User,-,,Recall,Recall1,6586,artery,100,2242,5649,1,1,,1
5e71a892634ba70d7272e498,s2t8byg018,"Deep vs Shallow",1,122,2020-07-08T14:33:42-07:00,4.6822741031647,3,versionC_stim.csv,RLVersionC.csv,"Realational Version C","Relational, read only version C",ENOUGH,FULL,Study1,F,26,86,Test,User,-,,Recall,Recall1,4203,full,100,3008,3407,1,1,,1
5e71a892634ba70d7272e498,s2t8byg018,"Deep vs Shallow",1,123,2020-07-08T14:33:49-07:00,6.2204089164734,3,versionC_stim.csv,RLVersionC.csv,"Realational Version C","Relational, read only version C",FISH,TUNA,Study1,B,25,72,Test,User,-,,Recall,Recall1,5721,,0,-1,-1,0,0,,1
5e71a892634ba70d7272e498,s2t8byg018,"Deep vs Shallow",1,124,2020-07-08T14:33:52-07:00,3.2223980426788,3,versionC_stim.csv,RLVersionC.csv,"Realational Version C","Relational, read only version C",STENCH,SMELL,Study1,F,42,11,Test,User,-,,Recall,Recall1,2764,smell,100,1402,1753,1,1,,1
5e71a892634ba70d7272e498,s2t8byg018,"Deep vs Shallow",1,125,2020-07-08T14:33:55-07:00,2.8064949512482,3,versionC_stim.csv,RLVersionC.csv,"Realational Version C","Relational, read only version C",RACKET,BALL,Study1,F,38,69,Test,User,-,,Recall,Recall1,2336,ball,100,1230,1582,1,1,,1
5e71a892634ba70d7272e498,s2t8byg018,"Deep vs Shallow",1,126,2020-07-08T14:33:59-07:00,4.5382831096649,3,versionC_stim.csv,RLVersionC.csv,"Realational Version C","Relational, read only version C",SITE,LOCATION,Study1,S,48,16,Test,User,-,,Recall,Recall1,4084,location,100,2627,3243,1,1,,1
5e71a892634ba70d7272e498,s2t8byg018,"Deep vs Shallow",1,127,2020-07-08T14:34:03-07:00,3.656182050705,3,versionC_stim.csv,RLVersionC.csv,"Realational Version C","Relational, read only version C",WASTE,DUMP,Study1,S,49,75,Test,User,-,,Recall,Recall1,3163,dump,100,1802,2281,1,1,,1
5e71a892634ba70d7272e498,s2t8byg018,"Deep vs Shallow",1,128,2020-07-08T14:34:12-07:00,9.4956328868866,3,versionC_stim.csv,RLVersionC.csv,"Realational Version C","Relational, read only version C",POSITION,MACHINE,Study1,U,76,53,Test,User,-,,Recall,Recall1,9043,machine,100,7677,8221,1,1,,1
5e71a892634ba70d7272e498,s2t8byg018,"Deep vs Shallow",1,129,2020-07-08T14:34:24-07:00,11.635279893875,3,versionC_stim.csv,RLVersionC.csv,"Realational Version C","Relational, read only version C",FLOOR,DISCOVER,Study1,U,71,24,Test,User,-,,Recall,Recall1,11025,discover,100,9188,10051,1,1,,1
5e71a892634ba70d7272e498,s2t8byg018,"Deep vs Shallow",1,130,2020-07-08T14:34:32-07:00,8.2338161468506,3,versionC_stim.csv,RLVersionC.csv,"Realational Version C","Relational, read only version C",SIGHT,DEBATE,Study1,U,73,58,Test,User,-,,Recall,Recall1,7770,,0,-1,-1,0,0,,1
5e71a892634ba70d7272e498,s2t8byg018,"Deep vs Shallow",1,131,2020-07-08T14:34:36-07:00,3.4675209522247,3,versionC_stim.csv,RLVersionC.csv,"Realational Version C","Relational, read only version C",JURY,TRIAL,Study1,S,50,29,Test,User,-,,Recall,Recall1,2899,trial,100,1693,2101,1,1,,1
5e71a892634ba70d7272e498,s2t8byg018,"Deep vs Shallow",1,132,2020-07-08T14:34:39-07:00,3.542407989502,3,versionC_stim.csv,RLVersionC.csv,"Realational Version C","Relational, read only version C",STING,HORNET,Study1,B,11,12,Test,User,-,,Recall,Recall1,3066,hornet,100,1759,2326,1,1,,1
5e71a892634ba70d7272e498,s2t8byg018,"Deep vs Shallow",1,133,2020-07-08T14:34:49-07:00,9.6842060089111,3,versionC_stim.csv,RLVersionC.csv,"Realational Version C","Relational, read only version C",SACKING,DIETARY,Study1,U,67,73,Test,User,-,,Recall,Recall1,9216,business,26.666666666667,6803,7546,0,0,,1
5e71a892634ba70d7272e498,s2t8byg018,"Deep vs Shallow",1,134,2020-07-08T14:34:59-07:00,10.243669033051,3,versionC_stim.csv,RLVersionC.csv,"Realational Version C","Relational, read only version C",CAR,HAPPY,Study1,U,77,34,Test,User,-,,Recall,Recall1,9628,happiness,57.142857142857,6650,8698,0,0,,1
5e71a892634ba70d7272e498,s2t8byg018,"Deep vs Shallow",1,135,2020-07-08T14:35:05-07:00,6.1784389019012,3,versionC_stim.csv,RLVersionC.csv,"Realational Version C","Relational, read only version C",CLUTTER,PUSHER,Study1,U,66,56,Test,User,-,,Recall,Recall1,5704,pusher,100,4042,4640,1,1,,1
5e71a892634ba70d7272e498,s2t8byg018,"Deep vs Shallow",1,136,2020-07-08T14:35:10-07:00,4.6734540462494,3,versionC_stim.csv,RLVersionC.csv,"Realational Version C","Relational, read only version C",WORD,SENTENCE,Study1,F,31,14,Test,User,-,,Recall,Recall1,4188,sentence,100,2783,3487,1,1,,1
5e71a892634ba70d7272e498,s2t8byg018,"Deep vs Shallow",1,137,2020-07-08T14:35:18-07:00,7.7193789482117,3,versionC_stim.csv,RLVersionC.csv,"Realational Version C","Relational, read only version C",DROWSY,SLEEP,Study1,F,41,25,Test,User,-,,Recall,Recall1,7257,,0,-1,-1,0,0,,1
5e71a892634ba70d7272e498,s2t8byg018,"Deep vs Shallow",1,138,2020-07-08T14:35:23-07:00,4.7338759899139,3,versionC_stim.csv,RLVersionC.csv,"Realational Version C","Relational, read only version C",LIVER,KIDNEY,Study1,S,53,20,Test,User,-,,Recall,Recall1,4273,kidney,100,2558,3413,1,1,,1
5e71a892634ba70d7272e498,s2t8byg018,"Deep vs Shallow",1,139,2020-07-08T14:35:28-07:00,5.3696811199188,3,versionC_stim.csv,RLVersionC.csv,"Realational Version C","Relational, read only version C",DIVISION,MATH,Study1,F,33,55,Test,User,-,,Recall,Recall1,4905,,0,-1,-1,0,0,,1
5e71a892634ba70d7272e498,s2t8byg018,"Deep vs Shallow",1,140,2020-07-08T14:35:33-07:00,4.9022240638733,3,versionC_stim.csv,RLVersionC.csv,"Realational Version C","Relational, read only version C",STOMACH,DIGESTION,Study1,B,7,15,Test,User,-,,Recall,Recall1,4417,digestion,100,2775,3551,1,1,,1
5e71a892634ba70d7272e498,s2t8byg018,"Deep vs Shallow",1,141,2020-07-08T14:35:39-07:00,6.0324649810791,3,versionC_stim.csv,RLVersionC.csv,"Realational Version C","Relational, read only version C",HAND,FIX,Study1,U,75,47,Test,User,-,,Recall,Recall1,5559,fix,100,2845,3180,1,1,,1
5e71a892634ba70d7272e498,s2t8byg018,"Deep vs Shallow",1,142,2020-07-08T14:35:44-07:00,5.299064874649,3,versionC_stim.csv,RLVersionC.csv,"Realational Version C","Relational, read only version C",BEE,HONEY,Study1,S,63,40,Test,User,-,,Recall,Recall1,4809,honey,100,3479,3934,1,1,,1
5e71a892634ba70d7272e498,s2t8byg018,"Deep vs Shallow",1,143,2020-07-08T14:35:53-07:00,8.623626947403,3,versionC_stim.csv,RLVersionC.csv,"Realational Version C","Relational, read only version C",CARD,CREDIT,Study1,B,23,9,Test,User,-,,Recall,Recall1,8150,,0,-1,-1,0,0,,1
5e71a892634ba70d7272e498,s2t8byg018,"Deep vs Shallow",1,144,2020-07-08T14:36:07-07:00,14.063220024109,3,versionC_stim.csv,RLVersionC.csv,"Realational Version C","Relational, read only version C",RIDDLE,SUGAR,Study1,U,81,10,Test,User,-,,Recall,Recall1,13318,sugar,100,8962,12506,1,1,,1
5e71a892634ba70d7272e498,s2t8byg018,"Deep vs Shallow",1,145,2020-07-08T14:36:18-07:00,11.626608133316,3,versionC_stim.csv,RLVersionC.csv,"Realational Version C","Relational, read only version C",COW,HERD,Study1,B,22,7,Test,User,-,,Recall,Recall1,10986,herd,100,9976,10342,1,1,,1
5e71a892634ba70d7272e498,s2t8byg018,"Deep vs Shallow",1,146,2020-07-08T14:36:33-07:00,14.52755188942,3,versionC_stim.csv,RLVersionC.csv,"Realational Version C","Relational, read only version C",AMOUNT,NUMBER,Study1,S,47,30,Test,User,-,,Recall,Recall1,13855,sum,44.444444444444,12932,13131,0,0,,1
5e71a892634ba70d7272e498,s2t8byg018,"Deep vs Shallow",1,147,2020-07-08T14:36:38-07:00,4.8679101467133,3,versionC_stim.csv,RLVersionC.csv,"Realational Version C","Relational, read only version C",WAR,REVOLUTION,Study1,B,20,59,Test,User,-,,Recall,Recall1,4397,revolution,100,2560,3511,1,1,,1
5e71a892634ba70d7272e498,s2t8byg018,"Deep vs Shallow",1,148,2020-07-08T14:36:48-07:00,10.018239974976,3,versionC_stim.csv,RLVersionC.csv,"Realational Version C","Relational, read only version C",SICK,HIDE,Study1,U,84,28,Test,User,-,,Recall,Recall1,9546,,0,-1,-1,0,0,,1
5e71a892634ba70d7272e498,s2t8byg018,"Deep vs Shallow",1,149,2020-07-08T14:36:51-07:00,3.3928229808807,3,versionC_stim.csv,RLVersionC.csv,"Realational Version C","Relational, read only version C",SALAD,LETTUCE,Study1,S,59,32,Test,User,-,,Recall,Recall1,2914,lettuce,100,1281,2000,1,1,,1
5e71a892634ba70d7272e498,s2t8byg018,"Deep vs Shallow",1,150,2020-07-08T14:36:58-07:00,6.5437679290771,3,versionC_stim.csv,RLVersionC.csv,"Realational Version C","Relational, read only version C",DEFINITION,MEANING,Study1,S,62,39,Test,User,-,,Recall,Recall1,6071,meaning,100,4794,5281,1,1,,1
5e71a892634ba70d7272e498,s2t8byg018,"Deep vs Shallow",1,151,2020-07-08T14:37:03-07:00,4.901328086853,3,versionC_stim.csv,RLVersionC.csv,"Realational Version C","Relational, read only version C",WOULD,CASH,Study1,U,83,70,Test,User,-,,Recall,Recall1,4432,cash,100,3329,3603,1,1,,1
5e71a892634ba70d7272e498,s2t8byg018,"Deep vs Shallow",1,152,2020-07-08T14:37:07-07:00,4.805095911026,3,versionC_stim.csv,RLVersionC.csv,"Realational Version C","Relational, read only version C",ATTIRE,CLOTHES,Study1,F,43,51,Test,User,-,,Recall,Recall1,4312,clothes,100,1547,2579,1,1,,1
5e71a892634ba70d7272e498,s2t8byg018,"Deep vs Shallow",1,153,2020-07-08T14:37:15-07:00,7.8068110942841,3,versionC_stim.csv,RLVersionC.csv,"Realational Version C","Relational, read only version C",BUSINESS,DEATH,Study1,U,72,13,Test,User,-,,Recall,Recall1,7333,death,100,5899,6419,1,1,,1
5e71a892634ba70d7272e498,s2t8byg018,"Deep vs Shallow",1,154,2020-07-08T14:37:19-07:00,3.6533069610596,3,versionC_stim.csv,RLVersionC.csv,"Realational Version C","Relational, read only version C",PILOT,PLANE,Study1,F,44,81,Test,User,-,,Recall,Recall1,3158,airplane,76.923076923077,1570,2274,0,1,,1
5e71a892634ba70d7272e498,s2t8byg018,"Deep vs Shallow",1,155,2020-07-08T14:37:25-07:00,5.8219809532166,3,versionC_stim.csv,RLVersionC.csv,"Realational Version C","Relational, read only version C",CHILD,BABY,Study1,S,64,77,Test,User,-,,Recall,Recall1,5344,baby,100,3638,4158,1,1,,1
5e71a892634ba70d7272e498,s2t8byg018,"Deep vs Shallow",1,156,2020-07-08T14:37:37-07:00,12.653455018997,3,versionC_stim.csv,RLVersionC.csv,"Realational Version C","Relational, read only version C",ACCIDENT,STRONG,Study1,U,80,66,Test,User,-,,Recall,Recall1,12084,clutter,30.769230769231,8807,9662,0,0,,1
5e71a892634ba70d7272e498,s2t8byg018,"Deep vs Shallow",1,157,2020-07-08T14:37:45-07:00,7.2704749107361,3,versionC_stim.csv,RLVersionC.csv,"Realational Version C","Relational, read only version C",WOMAN,LIFT,Study1,U,69,50,Test,User,-,,Recall,Recall1,6757,girl,25,5682,5913,0,0,,1
5e71a892634ba70d7272e498,s2t8byg018,"Deep vs Shallow",1,158,2020-07-08T14:37:54-07:00,9.7365601062775,3,versionC_stim.csv,RLVersionC.csv,"Realational Version C","Relational, read only version C",BELT,SOON,Study1,U,70,62,Test,User,-,,Recall,Recall1,9215,approve,18.181818181818,6905,7960,0,0,,1
5e71a892634ba70d7272e498,s2t8byg018,"Deep vs Shallow",1,159,2020-07-08T14:38:02-07:00,7.3143570423126,3,versionC_stim.csv,RLVersionC.csv,"Realational Version C","Relational, read only version C",SEIZE,TAKE,Study1,F,29,35,Test,User,-,,Recall,Recall1,6829,,0,-1,-1,0,0,,1
5e71a892634ba70d7272e498,s2t8byg018,"Deep vs Shallow",1,160,2020-07-08T14:38:09-07:00,7.5289778709412,3,versionC_stim.csv,RLVersionC.csv,"Realational Version C","Relational, read only version C",HAMMER,CHISEL,Study1,B,9,31,Test,User,-,,Recall,Recall1,7032,chisel,100,5289,6263,1,1,,1
5e71a892634ba70d7272e498,s2t8byg018,"Deep vs Shallow",1,161,2020-07-08T14:38:12-07:00,3.1700830459595,3,versionC_stim.csv,RLVersionC.csv,"Realational Version C","Relational, read only version C",HUNGRY,PARK,Study1,U,68,22,Test,User,-,,Recall,Recall1,2710,famine,20,1183,2006,0,0,,1
5e71a892634ba70d7272e498,s2t8byg018,"Deep vs Shallow",1,162,2020-07-08T14:38:22-07:00,9.1113369464874,3,versionC_stim.csv,RLVersionC.csv,"Realational Version C","Relational, read only version C",FOOT,SHOE,Study1,S,60,76,Test,User,-,,Recall,Recall1,8622,shoe,100,7556,7860,1,1,,1
5e71a892634ba70d7272e498,s2t8byg018,"Deep vs Shallow",1,163,2020-07-08T14:38:25-07:00,2.9556910991669,3,versionC_stim.csv,RLVersionC.csv,"Realational Version C","Relational, read only version C",CHEESE,WINE,Study1,S,57,23,Test,User,-,,Recall,Recall1,2475,wine,100,1625,1802,1,1,,1
5e71a892634ba70d7272e498,s2t8byg018,"Deep vs Shallow",1,164,2020-07-08T14:38:33-07:00,8.1242980957031,3,versionC_stim.csv,RLVersionC.csv,"Realational Version C","Relational, read only version C",PLANT,ROOT,Study1,B,13,42,Test,User,-,,Recall,Recall1,7638,,0,-1,-1,0,0,,1
5e71a892634ba70d7272e498,s2t8byg018,"Deep vs Shallow",1,165,2020-07-08T14:38:37-07:00,4.8370199203491,3,versionC_stim.csv,RLVersionC.csv,"Realational Version C","Relational, read only version C",CHORE,WORK,Study1,F,39,27,Test,User,-,,Recall,Recall1,4362,work,100,3368,3584,1,1,,1
5e71a892634ba70d7272e498,s2t8byg018,"Deep vs Shallow",1,166,2020-07-08T14:38:42-07:00,4.619236946106,3,versionC_stim.csv,RLVersionC.csv,"Realational Version C","Relational, read only version C",END,BEGIN,Study1,S,54,43,Test,User,-,,Recall,Recall1,4127,begin,100,1407,3287,1,1,,1
5e71a892634ba70d7272e498,s2t8byg018,"Deep vs Shallow",1,167,2020-07-08T14:38:48-07:00,5.6338269710541,3,versionC_stim.csv,RLVersionC.csv,"Realational Version C","Relational, read only version C",CLEAN,HYGIENE,Study1,B,17,45,Test,User,-,,Recall,Recall1,5159,hygiene,100,3744,4391,1,1,,1
5e71a892634ba70d7272e498,s2t8byg018,"Deep vs Shallow",1,168,2020-07-08T14:38:52-07:00,3.8557710647583,3,versionC_stim.csv,RLVersionC.csv,"Realational Version C","Relational, read only version C",FUTURE,PAST,Study1,S,61,26,Test,User,-,,Recall,Recall1,3264,past,100,1506,1985,1,1,,1
5e71a892634ba70d7272e498,s2t8byg018,"Deep vs Shallow",1,169,2020-07-08T14:38:59-07:00,7.6009240150452,3,versionC_stim.csv,RLVersionC.csv,"Realational Version C","Relational, read only version C",DESIGN,ARCHITECTURE,Study1,S,51,33,Test,User,-,,Recall,Recall1,7105,architecture,100,1555,6170,1,1,,1
5e71a892634ba70d7272e498,s2t8byg018,"Deep vs Shallow",1,170,2020-07-08T14:39:02-07:00,2.7954709529877,3,versionC_stim.csv,RLVersionC.csv,"Realational Version C","Relational, read only version C",LATCH,KEY,Study1,F,36,65,Test,User,-,,Recall,Recall1,2315,key,100,1310,1582,1,1,,1
5e71a892634ba70d7272e498,s2t8byg018,"Deep vs Shallow",1,171,2020-07-08T14:39:07-07:00,4.6397061347961,3,versionC_stim.csv,RLVersionC.csv,"Realational Version C","Relational, read only version C",FLOWER,ORCHID,Study1,B,24,18,Test,User,-,,Recall,Recall1,4077,petal,0,1741,2221,0,0,,1
5e71a892634ba70d7272e498,s2t8byg018,"Deep vs Shallow",1,172,2020-07-08T14:39:12-07:00,5.8765687942505,3,versionC_stim.csv,RLVersionC.csv,"Realational Version C","Relational, read only version C",ROCK,GEOLOGY,Study1,B,19,71,Test,User,-,,Recall,Recall1,5399,,0,-1,-1,0,0,,1
5e71a892634ba70d7272e498,s2t8byg018,"Deep vs Shallow",1,173,2020-07-08T14:39:15-07:00,2.7407371997833,3,versionC_stim.csv,RLVersionC.csv,"Realational Version C","Relational, read only version C",CHILI,HOT,Study1,F,37,64,Test,User,-,,Recall,Recall1,2257,hot,100,1323,1483,1,1,,1
5e71a892634ba70d7272e498,s2t8byg018,"Deep vs Shallow",1,174,2020-07-08T14:39:18-07:00,2.7328498363495,3,versionC_stim.csv,RLVersionC.csv,"Realational Version C","Relational, read only version C",VASE,KING,Study1,U,85,46,Test,User,-,,Recall,Recall1,2232,king,100,1035,1401,1,1,,1
5e71a892634ba70d7272e498,s2t8byg018,"Deep vs Shallow",1,175,2020-07-08T14:39:24-07:00,6.1884379386902,3,versionC_stim.csv,RLVersionC.csv,"Realational Version C","Relational, read only version C",ADD,VALLEY,Study1,U,82,79,Test,User,-,,Recall,Recall1,5592,amount,16.666666666667,2083,4874,0,0,,1
5e71a892634ba70d7272e498,s2t8byg018,"Deep vs Shallow",1,176,2020-07-08T14:39:29-07:00,4.6650002002716,3,versionC_stim.csv,RLVersionC.csv,"Realational Version C","Relational, read only version C",ATTORNEY,LAW,Study1,F,34,49,Test,User,-,,Recall,Recall1,4166,law,100,2635,3331,1,1,,1
5e71a892634ba70d7272e498,s2t8byg018,"Deep vs Shallow",1,177,2020-07-08T14:39:33-07:00,3.9920878410339,3,versionC_stim.csv,RLVersionC.csv,"Realational Version C","Relational, read only version C",BAR,GRILL,Study1,S,52,82,Test,User,-,,Recall,Recall1,3514,grill,100,2281,2737,1,1,,1
5e71a892634ba70d7272e498,s2t8byg018,"Deep vs Shallow",1,178,2020-07-08T14:39:39-07:00,5.9781789779663,3,versionC_stim.csv,RLVersionC.csv,"Realational Version C","Relational, read only version C",WATER,BRIDGE,Study1,B,18,44,Test,User,-,,Recall,Recall1,5475,,0,-1,-1,0,0,,1
5e71a892634ba70d7272e498,s2t8byg018,"Deep vs Shallow",1,179,2020-07-08T14:39:52-07:00,12.915389060974,3,versionC_stim.csv,RLVersionC.csv,"Realational Version C","Relational, read only version C",TUCK,ALLOW,Study1,U,78,67,Test,User,-,,Recall,Recall1,12319,allow,100,6733,11573,1,1,,1
5e71a892634ba70d7272e498,s2t8byg018,"Deep vs Shallow",1,180,2020-07-08T14:39:56-07:00,4.0076911449432,3,versionC_stim.csv,RLVersionC.csv,"Realational Version C","Relational, read only version C",BLAZE,FIRE,Study1,F,45,60,Test,User,-,,Recall,Recall1,3523,fire,100,2501,2804,1,1,,1
5e71a892634ba70d7272e498,s2t8byg018,"Deep vs Shallow",1,181,2020-07-08T14:40:07-07:00,11.522844791412,3,versionC_stim.csv,RLVersionC.csv,"Realational Version C","Relational, read only version C",,,,,,0,Instruct,,10,"You will now be presented with a new set of word pairs. Please study each pair. Remember that your memory will be tested! When finished, press Enter to move to the next pair.",Initial_Instruct,Instruct4,10925,,,-1,-1,,,,1
5e71a892634ba70d7272e498,s2t8byg018,"Deep vs Shallow",1,182,2020-07-08T14:40:24-07:00,16.308613061905,3,versionC_stim.csv,RLVersionC.csv,"Realational Version C","Relational, read only version C",,,,,,0,Instruct,-,15,"As you study, please think about how the two concepts are RELATED to each other. For example, if you see the pair TURTLE-CAT, think about how both are alive, they are both animals, and both can be kept as pets.",,Instruct20,15722,,,-1,-1,,,,1
5e71a892634ba70d7272e498,s2t8byg018,"Deep vs Shallow",1,183,2020-07-08T14:40:37-07:00,13.264686107635,3,versionC_stim.csv,RLVersionC.csv,"Realational Version C","Relational, read only version C",,,,,,0,FreeRecall,-,10,"What you should think about as you study each item pair? Type your response in the box below.",,CHECK4,12709,"the relationships ",0,5724,9834,0,0,,1
5e71a892634ba70d7272e498,s2t8byg018,"Deep vs Shallow",1,184,2020-07-08T14:40:40-07:00,2.8097820281982,3,versionC_stim.csv,RLVersionC.csv,"Realational Version C","Relational, read only version C",,,,,,0,Instruct,User,-,"Press Enter when you are readty to begin",,Instruct11,2342,,,-1,-1,,,,1
5e71a892634ba70d7272e498,s2t8byg018,"Deep vs Shallow",1,185,2020-07-08T14:40:44-07:00,4.1477828025818,3,versionC_stim.csv,RLVersionC.csv,"Realational Version C","Relational, read only version C",POTATO,CARROT,BUFFER3,Buffer,91,96,Study,User,-,,Study/JOL,BUFFER3,3667,,,-1,-1,,,,1
5e71a892634ba70d7272e498,s2t8byg018,"Deep vs Shallow",1,186,2020-07-08T14:40:46-07:00,2.353600025177,3,versionC_stim.csv,RLVersionC.csv,"Realational Version C","Relational, read only version C",STRING,NOODLE,BUFFER3,Buffer,92,94,Study,User,-,,Study/JOL,BUFFER3,1868,,,-1,-1,,,,1
5e71a892634ba70d7272e498,s2t8byg018,"Deep vs Shallow",1,187,2020-07-08T14:40:56-07:00,9.7893900871277,3,versionC_stim.csv,RLVersionC.csv,"Realational Version C","Relational, read only version C",FROZEN,ICE,BUFFER3,Buffer,94,95,Study,User,-,,Study/JOL,BUFFER3,9224,,,-1,-1,,,,1
5e71a892634ba70d7272e498,s2t8byg018,"Deep vs Shallow",1,188,2020-07-08T14:41:01-07:00,4.9952080249786,3,versionC_stim.csv,RLVersionC.csv,"Realational Version C","Relational, read only version C",ADVENTURE,CAMP,BUFFER3,Buffer,95,93,Study,User,-,,Study/JOL,BUFFER3,4498,,,-1,-1,,,,1
5e71a892634ba70d7272e498,s2t8byg018,"Deep vs Shallow",1,189,2020-07-08T14:41:06-07:00,4.8645780086517,3,versionC_stim.csv,RLVersionC.csv,"Realational Version C","Relational, read only version C",FISH,SHRIMP,BUFFER3,Buffer,93,92,Study,User,-,,Study/JOL,BUFFER3,4398,,,-1,-1,,,,1
5e71a892634ba70d7272e498,s2t8byg018,"Deep vs Shallow",1,190,2020-07-08T14:41:10-07:00,4.1838779449463,3,versionC_stim.csv,RLVersionC.csv,"Realational Version C","Relational, read only version C",TICK,FLEA,Study2,S,151,109,Study,User,-,,Study/JOL,"Study Phase2",3692,,,-1,-1,,,,1
5e71a892634ba70d7272e498,s2t8byg018,"Deep vs Shallow",1,191,2020-07-08T14:41:18-07:00,8.3340809345245,3,versionC_stim.csv,RLVersionC.csv,"Realational Version C","Relational, read only version C",BRAWL,FIGHT,Study2,F,135,161,Study,User,-,,Study/JOL,"Study Phase2",7864,,,-1,-1,,,,1
5e71a892634ba70d7272e498,s2t8byg018,"Deep vs Shallow",1,192,2020-07-08T14:41:24-07:00,5.8390400409698,3,versionC_stim.csv,RLVersionC.csv,"Realational Version C","Relational, read only version C",AWAY,GONE,Study2,S,142,174,Study,User,-,,Study/JOL,"Study Phase2",5358,,,-1,-1,,,,1
5e71a892634ba70d7272e498,s2t8byg018,"Deep vs Shallow",1,193,2020-07-08T14:41:28-07:00,4.3003740310669,3,versionC_stim.csv,RLVersionC.csv,"Realational Version C","Relational, read only version C",THIMBLE,THREAD,Study2,F,121,119,Study,User,-,,Study/JOL,"Study Phase2",3673,,,-1,-1,,,,1
5e71a892634ba70d7272e498,s2t8byg018,"Deep vs Shallow",1,194,2020-07-08T14:41:35-07:00,6.1263070106506,3,versionC_stim.csv,RLVersionC.csv,"Realational Version C","Relational, read only version C",ABLE,CRACKLE,Study2,U,162,154,Study,User,-,,Study/JOL,"Study Phase2",5661,,,-1,-1,,,,1
5e71a892634ba70d7272e498,s2t8byg018,"Deep vs Shallow",1,195,2020-07-08T14:41:45-07:00,10.696582078934,3,versionC_stim.csv,RLVersionC.csv,"Realational Version C","Relational, read only version C",TEMPER,TANTRUM,Study2,S,154,167,Study,User,-,,Study/JOL,"Study Phase2",10139,,,-1,-1,,,,1
5e71a892634ba70d7272e498,s2t8byg018,"Deep vs Shallow",1,196,2020-07-08T14:41:49-07:00,4.1615459918976,3,versionC_stim.csv,RLVersionC.csv,"Realational Version C","Relational, read only version C",PANTHER,CAT,Study2,F,126,166,Study,User,-,,Study/JOL,"Study Phase2",3686,,,-1,-1,,,,1
5e71a892634ba70d7272e498,s2t8byg018,"Deep vs Shallow",1,197,2020-07-08T14:41:53-07:00,3.477600812912,3,versionC_stim.csv,RLVersionC.csv,"Realational Version C","Relational, read only version C",LEAGUE,BASEBALL,Study2,F,131,147,Study,User,-,,Study/JOL,"Study Phase2",3027,,,-1,-1,,,,1
5e71a892634ba70d7272e498,s2t8byg018,"Deep vs Shallow",1,198,2020-07-08T14:41:58-07:00,5.1853051185608,3,versionC_stim.csv,RLVersionC.csv,"Realational Version C","Relational, read only version C",SMELL,INCENSE,Study2,B,110,160,Study,User,-,,Study/JOL,"Study Phase2",4707,,,-1,-1,,,,1
5e71a892634ba70d7272e498,s2t8byg018,"Deep vs Shallow",1,199,2020-07-08T14:42:02-07:00,4.1542909145355,3,versionC_stim.csv,RLVersionC.csv,"Realational Version C","Relational, read only version C",VILLAIN,BAD,Study2,F,118,131,Study,User,-,,Study/JOL,"Study Phase2",3694,,,-1,-1,,,,1
5e71a892634ba70d7272e498,s2t8byg018,"Deep vs Shallow",1,200,2020-07-08T14:42:08-07:00,5.8903861045837,3,versionC_stim.csv,RLVersionC.csv,"Realational Version C","Relational, read only version C",EQUAL,RIGHTS,Study2,S,137,133,Study,User,-,,Study/JOL,"Study Phase2",5431,,,-1,-1,,,,1
5e71a892634ba70d7272e498,s2t8byg018,"Deep vs Shallow",1,201,2020-07-08T14:42:12-07:00,4.3242208957672,3,versionC_stim.csv,RLVersionC.csv,"Realational Version C","Relational, read only version C",PLANT,CACTUS,Study2,B,98,98,Study,User,-,,Study/JOL,"Study Phase2",3879,,,-1,-1,,,,1
5e71a892634ba70d7272e498,s2t8byg018,"Deep vs Shallow",1,202,2020-07-08T14:42:19-07:00,6.2514400482178,3,versionC_stim.csv,RLVersionC.csv,"Realational Version C","Relational, read only version C",TOIL,LEASE,Study2,U,170,151,Study,User,-,,Study/JOL,"Study Phase2",5788,,,-1,-1,,,,1
5e71a892634ba70d7272e498,s2t8byg018,"Deep vs Shallow",1,203,2020-07-08T14:42:24-07:00,5.3583550453186,3,versionC_stim.csv,RLVersionC.csv,"Realational Version C","Relational, read only version C",ACTRESS,STAR,Study2,F,120,105,Study,User,-,,Study/JOL,"Study Phase2",4904,,,-1,-1,,,,1
5e71a892634ba70d7272e498,s2t8byg018,"Deep vs Shallow",1,204,2020-07-08T14:42:29-07:00,4.7775099277496,3,versionC_stim.csv,RLVersionC.csv,"Realational Version C","Relational, read only version C",SEATBELT,SAFETY,Study2,S,147,169,Study,User,-,,Study/JOL,"Study Phase2",4284,,,-1,-1,,,,1
5e71a892634ba70d7272e498,s2t8byg018,"Deep vs Shallow",1,205,2020-07-08T14:42:36-07:00,6.9403460025787,3,versionC_stim.csv,RLVersionC.csv,"Realational Version C","Relational, read only version C",SIGN,LOAN,Study2,U,171,170,Study,User,-,,Study/JOL,"Study Phase2",6471,,,-1,-1,,,,1
5e71a892634ba70d7272e498,s2t8byg018,"Deep vs Shallow",1,206,2020-07-08T14:42:42-07:00,6.1284561157227,3,versionC_stim.csv,RLVersionC.csv,"Realational Version C","Relational, read only version C",GROUND,EARTH,Study2,S,144,108,Study,User,-,,Study/JOL,"Study Phase2",3457,,,-1,-1,,,,1
5e71a892634ba70d7272e498,s2t8byg018,"Deep vs Shallow",1,207,2020-07-08T14:42:49-07:00,7.0067889690399,3,versionC_stim.csv,RLVersionC.csv,"Realational Version C","Relational, read only version C",SCAR,MAIN,Study2,U,175,158,Study,User,-,,Study/JOL,"Study Phase2",6329,,,-1,-1,,,,1
5e71a892634ba70d7272e498,s2t8byg018,"Deep vs Shallow",1,208,2020-07-08T14:42:56-07:00,7.5202379226685,3,versionC_stim.csv,RLVersionC.csv,"Realational Version C","Relational, read only version C",REEL,ROD,Study2,S,150,126,Study,User,-,,Study/JOL,"Study Phase2",6053,,,-1,-1,,,,1
5e71a892634ba70d7272e498,s2t8byg018,"Deep vs Shallow",1,209,2020-07-08T14:43:00-07:00,3.9447691440582,3,versionC_stim.csv,RLVersionC.csv,"Realational Version C","Relational, read only version C",BALLOON,POP,Study2,F,123,152,Study,User,-,,Study/JOL,"Study Phase2",3477,,,-1,-1,,,,1
5e71a892634ba70d7272e498,s2t8byg018,"Deep vs Shallow",1,210,2020-07-08T14:43:16-07:00,15.904502868652,3,versionC_stim.csv,RLVersionC.csv,"Realational Version C","Relational, read only version C",GAME,CLUE,Study2,B,97,168,Study,User,-,,Study/JOL,"Study Phase2",15333,,,-1,-1,,,,1
5e71a892634ba70d7272e498,s2t8byg018,"Deep vs Shallow",1,211,2020-07-08T14:43:22-07:00,5.8064320087433,3,versionC_stim.csv,RLVersionC.csv,"Realational Version C","Relational, read only version C",CLOTH,STRETCH,Study2,U,157,107,Study,User,-,,Study/JOL,"Study Phase2",5336,,,-1,-1,,,,1
5e71a892634ba70d7272e498,s2t8byg018,"Deep vs Shallow",1,212,2020-07-08T14:43:30-07:00,8.296718120575,3,versionC_stim.csv,RLVersionC.csv,"Realational Version C","Relational, read only version C",TIE,SHOELACE,Study2,B,99,150,Study,User,-,,Study/JOL,"Study Phase2",6823,,,-1,-1,,,,1
5e71a892634ba70d7272e498,s2t8byg018,"Deep vs Shallow",1,213,2020-07-08T14:43:41-07:00,10.399679899216,3,versionC_stim.csv,RLVersionC.csv,"Realational Version C","Relational, read only version C",JOKE,KEYS,Study2,U,165,176,Study,User,-,,Study/JOL,"Study Phase2",9835,,,-1,-1,,,,1
5e71a892634ba70d7272e498,s2t8byg018,"Deep vs Shallow",1,214,2020-07-08T14:43:45-07:00,4.474445104599,3,versionC_stim.csv,RLVersionC.csv,"Realational Version C","Relational, read only version C",FLIP,TURN,Study2,F,116,134,Study,User,-,,Study/JOL,"Study Phase2",3997,,,-1,-1,,,,1
5e71a892634ba70d7272e498,s2t8byg018,"Deep vs Shallow",1,215,2020-07-08T14:43:50-07:00,4.6533558368683,3,versionC_stim.csv,RLVersionC.csv,"Realational Version C","Relational, read only version C",BRACELET,WRIST,Study2,S,140,120,Study,User,-,,Study/JOL,"Study Phase2",4174,,,-1,-1,,,,1
5e71a892634ba70d7272e498,s2t8byg018,"Deep vs Shallow",1,216,2020-07-08T14:43:59-07:00,9.3806340694427,3,versionC_stim.csv,RLVersionC.csv,"Realational Version C","Relational, read only version C",SHAKE,Shell,Study2,U,163,135,Study,User,-,,Study/JOL,"Study Phase2",8895,,,-1,-1,,,,1
5e71a892634ba70d7272e498,s2t8byg018,"Deep vs Shallow",1,217,2020-07-08T14:44:05-07:00,5.7156829833984,3,versionC_stim.csv,RLVersionC.csv,"Realational Version C","Relational, read only version C",WET,DRY,Study2,S,146,102,Study,User,-,,Study/JOL,"Study Phase2",5270,,,-1,-1,,,,1
5e71a892634ba70d7272e498,s2t8byg018,"Deep vs Shallow",1,218,2020-07-08T14:44:09-07:00,3.9743349552155,3,versionC_stim.csv,RLVersionC.csv,"Realational Version C","Relational, read only version C",DONKEY,MULE,Study2,B,108,175,Study,User,-,,Study/JOL,"Study Phase2",3510,,,-1,-1,,,,1
5e71a892634ba70d7272e498,s2t8byg018,"Deep vs Shallow",1,219,2020-07-08T14:44:13-07:00,3.8979361057281,3,versionC_stim.csv,RLVersionC.csv,"Realational Version C","Relational, read only version C",COMMUNICATION,PHONE,Study2,S,149,116,Study,User,-,,Study/JOL,"Study Phase2",3434,,,-1,-1,,,,1
5e71a892634ba70d7272e498,s2t8byg018,"Deep vs Shallow",1,220,2020-07-08T14:44:20-07:00,7.08451795578,3,versionC_stim.csv,RLVersionC.csv,"Realational Version C","Relational, read only version C",Morning,TEMPERATURE,Study2,U,173,127,Study,User,-,,Study/JOL,"Study Phase2",6630,,,-1,-1,,,,1
5e71a892634ba70d7272e498,s2t8byg018,"Deep vs Shallow",1,221,2020-07-08T14:44:26-07:00,5.882040977478,3,versionC_stim.csv,RLVersionC.csv,"Realational Version C","Relational, read only version C",FIGHT,FEUD,Study2,B,113,155,Study,User,-,,Study/JOL,"Study Phase2",5412,,,-1,-1,,,,1
5e71a892634ba70d7272e498,s2t8byg018,"Deep vs Shallow",1,222,2020-07-08T14:44:31-07:00,5.3935599327087,3,versionC_stim.csv,RLVersionC.csv,"Realational Version C","Relational, read only version C",CHILDREN,MIRROR,Study2,U,174,156,Study,User,-,,Study/JOL,"Study Phase2",4909,,,-1,-1,,,,1
5e71a892634ba70d7272e498,s2t8byg018,"Deep vs Shallow",1,223,2020-07-08T14:44:35-07:00,3.9720540046692,3,versionC_stim.csv,RLVersionC.csv,"Realational Version C","Relational, read only version C",CARBON,ELEMENT,Study2,S,141,163,Study,User,-,,Study/JOL,"Study Phase2",3440,,,-1,-1,,,,1
5e71a892634ba70d7272e498,s2t8byg018,"Deep vs Shallow",1,224,2020-07-08T14:44:39-07:00,4.1868121623993,3,versionC_stim.csv,RLVersionC.csv,"Realational Version C","Relational, read only version C",,,,,,0,Instruct,-,3,"Remember to focus on how the two items are similiar while you study!",,CHECK5,3717,,,-1,-1,,,,1
5e71a892634ba70d7272e498,s2t8byg018,"Deep vs Shallow",1,225,2020-07-08T14:44:48-07:00,8.4638628959656,3,versionC_stim.csv,RLVersionC.csv,"Realational Version C","Relational, read only version C",DOG,FURRY,Study2,B,102,162,Study,User,-,,Study/JOL,"Study Phase2",8019,,,-1,-1,,,,1
5e71a892634ba70d7272e498,s2t8byg018,"Deep vs Shallow",1,226,2020-07-08T14:44:54-07:00,6.2269248962402,3,versionC_stim.csv,RLVersionC.csv,"Realational Version C","Relational, read only version C",CLEAR,MOAT,Study2,U,169,171,Study,User,-,,Study/JOL,"Study Phase2",5767,,,-1,-1,,,,1
5e71a892634ba70d7272e498,s2t8byg018,"Deep vs Shallow",1,227,2020-07-08T14:45:02-07:00,7.5192070007324,3,versionC_stim.csv,RLVersionC.csv,"Realational Version C","Relational, read only version C",FICTION,LISTEN,Study2,U,164,153,Study,User,-,,Study/JOL,"Study Phase2",7062,,,-1,-1,,,,1
5e71a892634ba70d7272e498,s2t8byg018,"Deep vs Shallow",1,228,2020-07-08T14:45:08-07:00,6.3236072063446,3,versionC_stim.csv,RLVersionC.csv,"Realational Version C","Relational, read only version C",REVENGE,EVEN,Study2,F,122,104,Study,User,-,,Study/JOL,"Study Phase2",5846,,,-1,-1,,,,1
5e71a892634ba70d7272e498,s2t8byg018,"Deep vs Shallow",1,229,2020-07-08T14:45:15-07:00,6.6266579627991,3,versionC_stim.csv,RLVersionC.csv,"Realational Version C","Relational, read only version C",CLOTHES,CAKE,Study2,U,166,132,Study,User,-,,Study/JOL,"Study Phase2",6170,,,-1,-1,,,,1
5e71a892634ba70d7272e498,s2t8byg018,"Deep vs Shallow",1,230,2020-07-08T14:45:19-07:00,4.4624798297882,3,versionC_stim.csv,RLVersionC.csv,"Realational Version C","Relational, read only version C",STRAWBERRY,FRUIT,Study2,F,124,101,Study,User,-,,Study/JOL,"Study Phase2",3999,,,-1,-1,,,,1
5e71a892634ba70d7272e498,s2t8byg018,"Deep vs Shallow",1,231,2020-07-08T14:45:25-07:00,5.8058230876923,3,versionC_stim.csv,RLVersionC.csv,"Realational Version C","Relational, read only version C",SCISSORS,SHEARS,Study2,B,112,143,Study,User,-,,Study/JOL,"Study Phase2",3676,,,-1,-1,,,,1
5e71a892634ba70d7272e498,s2t8byg018,"Deep vs Shallow",1,232,2020-07-08T14:45:28-07:00,3.3452079296112,3,versionC_stim.csv,RLVersionC.csv,"Realational Version C","Relational, read only version C",COFFIN,DEAD,Study2,F,128,124,Study,User,-,,Study/JOL,"Study Phase2",2863,,,-1,-1,,,,1
5e71a892634ba70d7272e498,s2t8byg018,"Deep vs Shallow",1,233,2020-07-08T14:45:33-07:00,5.2787179946899,3,versionC_stim.csv,RLVersionC.csv,"Realational Version C","Relational, read only version C",LIE,TRUTH,Study2,S,148,141,Study,User,-,,Study/JOL,"Study Phase2",4804,,,-1,-1,,,,1
5e71a892634ba70d7272e498,s2t8byg018,"Deep vs Shallow",1,234,2020-07-08T14:45:36-07:00,2.7843670845032,3,versionC_stim.csv,RLVersionC.csv,"Realational Version C","Relational, read only version C",NOISE,LOUD,Study2,S,152,142,Study,User,-,,Study/JOL,"Study Phase2",2307,,,-1,-1,,,,1
5e71a892634ba70d7272e498,s2t8byg018,"Deep vs Shallow",1,235,2020-07-08T14:45:44-07:00,7.3561410903931,3,versionC_stim.csv,RLVersionC.csv,"Realational Version C","Relational, read only version C",ELECTION,MAZE,Study2,U,159,140,Study,User,-,,Study/JOL,"Study Phase2",5793,,,-1,-1,,,,1
5e71a892634ba70d7272e498,s2t8byg018,"Deep vs Shallow",1,236,2020-07-08T14:45:48-07:00,4.9070630073547,3,versionC_stim.csv,RLVersionC.csv,"Realational Version C","Relational, read only version C",JAR,MASON,Study2,S,138,125,Study,User,-,,Study/JOL,"Study Phase2",4441,,,-1,-1,,,,1
5e71a892634ba70d7272e498,s2t8byg018,"Deep vs Shallow",1,237,2020-07-08T14:45:53-07:00,4.1727578639984,3,versionC_stim.csv,RLVersionC.csv,"Realational Version C","Relational, read only version C",COLD,CHILL,Study2,B,114,148,Study,User,-,,Study/JOL,"Study Phase2",3690,,,-1,-1,,,,1
5e71a892634ba70d7272e498,s2t8byg018,"Deep vs Shallow",1,238,2020-07-08T14:46:03-07:00,9.9840340614319,3,versionC_stim.csv,RLVersionC.csv,"Realational Version C","Relational, read only version C",MAROON,JUSTICE,Study2,U,156,113,Study,User,-,,Study/JOL,"Study Phase2",9021,,,-1,-1,,,,1
5e71a892634ba70d7272e498,s2t8byg018,"Deep vs Shallow",1,239,2020-07-08T14:46:07-07:00,4.3699181079865,3,versionC_stim.csv,RLVersionC.csv,"Realational Version C","Relational, read only version C",PAPER,DOCUMENT,Study2,B,109,165,Study,User,-,,Study/JOL,"Study Phase2",3873,,,-1,-1,,,,1
5e71a892634ba70d7272e498,s2t8byg018,"Deep vs Shallow",1,240,2020-07-08T14:46:14-07:00,6.6208579540253,3,versionC_stim.csv,RLVersionC.csv,"Realational Version C","Relational, read only version C",OUNCE,BOTH,Study2,U,172,139,Study,User,-,,Study/JOL,"Study Phase2",6168,,,-1,-1,,,,1
5e71a892634ba70d7272e498,s2t8byg018,"Deep vs Shallow",1,241,2020-07-08T14:46:20-07:00,6.2538118362427,3,versionC_stim.csv,RLVersionC.csv,"Realational Version C","Relational, read only version C",STEAK,GIVE,Study2,U,158,172,Study,User,-,,Study/JOL,"Study Phase2",5780,,,-1,-1,,,,1
5e71a892634ba70d7272e498,s2t8byg018,"Deep vs Shallow",1,242,2020-07-08T14:46:27-07:00,7.1881899833679,3,versionC_stim.csv,RLVersionC.csv,"Realational Version C","Relational, read only version C",NAP,SLEEP,Study2,F,134,136,Study,User,-,,Study/JOL,"Study Phase2",6685,,,-1,-1,,,,1
5e71a892634ba70d7272e498,s2t8byg018,"Deep vs Shallow",1,243,2020-07-08T14:46:34-07:00,7.389139175415,3,versionC_stim.csv,RLVersionC.csv,"Realational Version C","Relational, read only version C",OBTAIN,MEAT,Study2,U,161,106,Study,User,-,,Study/JOL,"Study Phase2",6846,,,-1,-1,,,,1
5e71a892634ba70d7272e498,s2t8byg018,"Deep vs Shallow",1,244,2020-07-08T14:46:40-07:00,5.5684819221497,3,versionC_stim.csv,RLVersionC.csv,"Realational Version C","Relational, read only version C",HAVE,OWN,Study2,S,153,123,Study,User,-,,Study/JOL,"Study Phase2",5106,,,-1,-1,,,,1
5e71a892634ba70d7272e498,s2t8byg018,"Deep vs Shallow",1,245,2020-07-08T14:46:46-07:00,6.4154100418091,3,versionC_stim.csv,RLVersionC.csv,"Realational Version C","Relational, read only version C",END,ADJOURN,Study2,B,101,173,Study,User,-,,Study/JOL,"Study Phase2",5947,,,-1,-1,,,,1
5e71a892634ba70d7272e498,s2t8byg018,"Deep vs Shallow",1,246,2020-07-08T14:46:51-07:00,4.7511909008026,3,versionC_stim.csv,RLVersionC.csv,"Realational Version C","Relational, read only version C",AIRCRAFT,PLANE,Study2,F,129,103,Study,User,-,,Study/JOL,"Study Phase2",4303,,,-1,-1,,,,1
5e71a892634ba70d7272e498,s2t8byg018,"Deep vs Shallow",1,247,2020-07-08T14:46:55-07:00,3.4066240787506,3,versionC_stim.csv,RLVersionC.csv,"Realational Version C","Relational, read only version C",TAN,SUN,Study2,S,155,100,Study,User,-,,Study/JOL,"Study Phase2",2923,,,-1,-1,,,,1
5e71a892634ba70d7272e498,s2t8byg018,"Deep vs Shallow",1,248,2020-07-08T14:47:00-07:00,5.4225668907166,3,versionC_stim.csv,RLVersionC.csv,"Realational Version C","Relational, read only version C",EAT,DINE,Study2,B,111,138,Study,User,-,,Study/JOL,"Study Phase2",4955,,,-1,-1,,,,1
5e71a892634ba70d7272e498,s2t8byg018,"Deep vs Shallow",1,249,2020-07-08T14:47:04-07:00,3.8021841049194,3,versionC_stim.csv,RLVersionC.csv,"Realational Version C","Relational, read only version C",HEAD,SCALP,Study2,B,105,110,Study,User,-,,Study/JOL,"Study Phase2",3331,,,-1,-1,,,,1
5e71a892634ba70d7272e498,s2t8byg018,"Deep vs Shallow",1,250,2020-07-08T14:47:08-07:00,4.6256840229034,3,versionC_stim.csv,RLVersionC.csv,"Realational Version C","Relational, read only version C",CUT,CHOP,Study2,B,107,122,Study,User,-,,Study/JOL,"Study Phase2",4166,,,-1,-1,,,,1
5e71a892634ba70d7272e498,s2t8byg018,"Deep vs Shallow",1,251,2020-07-08T14:47:14-07:00,5.0810890197754,3,versionC_stim.csv,RLVersionC.csv,"Realational Version C","Relational, read only version C",FAVORITE,BEST,Study2,F,125,149,Study,User,-,,Study/JOL,"Study Phase2",4601,,,-1,-1,,,,1
5e71a892634ba70d7272e498,s2t8byg018,"Deep vs Shallow",1,252,2020-07-08T14:47:26-07:00,12.609449863434,3,versionC_stim.csv,RLVersionC.csv,"Realational Version C","Relational, read only version C",BANKER,MONEY,Study2,F,132,112,Study,User,-,,Study/JOL,"Study Phase2",12051,,,-1,-1,,,,1
5e71a892634ba70d7272e498,s2t8byg018,"Deep vs Shallow",1,253,2020-07-08T14:47:31-07:00,4.5117030143738,3,versionC_stim.csv,RLVersionC.csv,"Realational Version C","Relational, read only version C",WINDSHIELD,CAR,Study2,F,117,159,Study,User,-,,Study/JOL,"Study Phase2",4033,,,-1,-1,,,,1
5e71a892634ba70d7272e498,s2t8byg018,"Deep vs Shallow",1,254,2020-07-08T14:47:35-07:00,4.6644151210785,3,versionC_stim.csv,RLVersionC.csv,"Realational Version C","Relational, read only version C",PENGUIN,BIRD,Study2,F,119,129,Study,User,-,,Study/JOL,"Study Phase2",4188,,,-1,-1,,,,1
5e71a892634ba70d7272e498,s2t8byg018,"Deep vs Shallow",1,255,2020-07-08T14:47:41-07:00,5.879420042038,3,versionC_stim.csv,RLVersionC.csv,"Realational Version C","Relational, read only version C",WAX,CANDLE,Study2,S,139,137,Study,User,-,,Study/JOL,"Study Phase2",4299,,,-1,-1,,,,1
5e71a892634ba70d7272e498,s2t8byg018,"Deep vs Shallow",1,256,2020-07-08T14:47:51-07:00,9.8124549388885,3,versionC_stim.csv,RLVersionC.csv,"Realational Version C","Relational, read only version C",BANG,FUZZY,Study2,U,168,111,Study,User,-,,Study/JOL,"Study Phase2",9337,,,-1,-1,,,,1
5e71a892634ba70d7272e498,s2t8byg018,"Deep vs Shallow",1,257,2020-07-08T14:47:58-07:00,6.786493062973,3,versionC_stim.csv,RLVersionC.csv,"Realational Version C","Relational, read only version C",TRASH,LITTER,Study2,B,103,121,Study,User,-,,Study/JOL,"Study Phase2",5285,,,-1,-1,,,,1
5e71a892634ba70d7272e498,s2t8byg018,"Deep vs Shallow",1,258,2020-07-08T14:48:05-07:00,7.65984582901,3,versionC_stim.csv,RLVersionC.csv,"Realational Version C","Relational, read only version C",BREAKABLE,GLASS,Study2,F,127,164,Study,User,-,,Study/JOL,"Study Phase2",6474,,,-1,-1,,,,1
5e71a892634ba70d7272e498,s2t8byg018,"Deep vs Shallow",1,259,2020-07-08T14:48:13-07:00,7.7121930122375,3,versionC_stim.csv,RLVersionC.csv,"Realational Version C","Relational, read only version C",RED,CHERRY,Study2,B,104,114,Study,User,-,,Study/JOL,"Study Phase2",7231,,,-1,-1,,,,1
5e71a892634ba70d7272e498,s2t8byg018,"Deep vs Shallow",1,260,2020-07-08T14:48:15-07:00,2.2995710372925,3,versionC_stim.csv,RLVersionC.csv,"Realational Version C","Relational, read only version C",SARDINE,FISH,Study2,F,130,115,Study,User,-,,Study/JOL,"Study Phase2",1781,,,-1,-1,,,,1
5e71a892634ba70d7272e498,s2t8byg018,"Deep vs Shallow",1,261,2020-07-08T14:48:19-07:00,3.8789870738983,3,versionC_stim.csv,RLVersionC.csv,"Realational Version C","Relational, read only version C",CHARM,VEHICLE,Study2,U,160,128,Study,User,-,,Study/JOL,"Study Phase2",3324,,,-1,-1,,,,1
5e71a892634ba70d7272e498,s2t8byg018,"Deep vs Shallow",1,262,2020-07-08T14:48:23-07:00,4.12841796875,3,versionC_stim.csv,RLVersionC.csv,"Realational Version C","Relational, read only version C",LOVE,AFFECTION,Study2,B,115,118,Study,User,-,,Study/JOL,"Study Phase2",3653,,,-1,-1,,,,1
5e71a892634ba70d7272e498,s2t8byg018,"Deep vs Shallow",1,263,2020-07-08T14:48:26-07:00,2.7521319389343,3,versionC_stim.csv,RLVersionC.csv,"Realational Version C","Relational, read only version C",TRUTHFUL,HONEST,Study2,F,133,146,Study,User,-,,Study/JOL,"Study Phase2",2295,,,-1,-1,,,,1
5e71a892634ba70d7272e498,s2t8byg018,"Deep vs Shallow",1,264,2020-07-08T14:48:30-07:00,3.6219551563263,3,versionC_stim.csv,RLVersionC.csv,"Realational Version C","Relational, read only version C",DRINK,WATER,Study2,S,143,99,Study,User,-,,Study/JOL,"Study Phase2",3072,,,-1,-1,,,,1
5e71a892634ba70d7272e498,s2t8byg018,"Deep vs Shallow",1,265,2020-07-08T14:48:37-07:00,6.7886469364166,3,versionC_stim.csv,RLVersionC.csv,"Realational Version C","Relational, read only version C",LONG,EXTENSION,Study2,B,96,157,Study,User,-,,Study/JOL,"Study Phase2",6321,,,-1,-1,,,,1
5e71a892634ba70d7272e498,s2t8byg018,"Deep vs Shallow",1,266,2020-07-08T14:48:40-07:00,2.9617259502411,3,versionC_stim.csv,RLVersionC.csv,"Realational Version C","Relational, read only version C",SHAVE,RAZOR,Study2,S,136,144,Study,User,-,,Study/JOL,"Study Phase2",2487,,,-1,-1,,,,1
5e71a892634ba70d7272e498,s2t8byg018,"Deep vs Shallow",1,267,2020-07-08T14:48:44-07:00,3.9824969768524,3,versionC_stim.csv,RLVersionC.csv,"Realational Version C","Relational, read only version C",MYSTERY,DETECTIVE,Study2,B,100,117,Study,User,-,,Study/JOL,"Study Phase2",3404,,,-1,-1,,,,1
5e71a892634ba70d7272e498,s2t8byg018,"Deep vs Shallow",1,268,2020-07-08T14:48:48-07:00,4.8575339317322,3,versionC_stim.csv,RLVersionC.csv,"Realational Version C","Relational, read only version C",LONELY,ALONE,Study2,S,145,97,Study,User,-,,Study/JOL,"Study Phase2",4393,,,-1,-1,,,,1
5e71a892634ba70d7272e498,s2t8byg018,"Deep vs Shallow",1,269,2020-07-08T14:48:54-07:00,6.0273380279541,3,versionC_stim.csv,RLVersionC.csv,"Realational Version C","Relational, read only version C",HATE,NAME,Study2,U,167,130,Study,User,-,,Study/JOL,"Study Phase2",5558,,,-1,-1,,,,1
5e71a892634ba70d7272e498,s2t8byg018,"Deep vs Shallow",1,270,2020-07-08T14:49:01-07:00,6.1770241260529,3,versionC_stim.csv,RLVersionC.csv,"Realational Version C","Relational, read only version C",CAR,DRIVER,Study2,B,106,145,Study,User,-,,Study/JOL,"Study Phase2",5701,,,-1,-1,,,,1
5e71a892634ba70d7272e498,s2t8byg018,"Deep vs Shallow",1,271,2020-07-08T14:49:08-07:00,7.6805939674377,3,versionC_stim.csv,RLVersionC.csv,"Realational Version C","Relational, read only version C",SPOOKY,OCTOBER,BUFFER4,Buffer,180,180,Study,User,-,,Study/JOL,BUFFER4,7171,,,-1,-1,,,,1
5e71a892634ba70d7272e498,s2t8byg018,"Deep vs Shallow",1,272,2020-07-08T14:49:13-07:00,4.5734949111938,3,versionC_stim.csv,RLVersionC.csv,"Realational Version C","Relational, read only version C",YEAR,MONTH,BUFFER4,Buffer,177,178,Study,User,-,,Study/JOL,BUFFER4,4103,,,-1,-1,,,,1
5e71a892634ba70d7272e498,s2t8byg018,"Deep vs Shallow",1,273,2020-07-08T14:49:16-07:00,3.2878761291504,3,versionC_stim.csv,RLVersionC.csv,"Realational Version C","Relational, read only version C",SHED,TOOL,BUFFER4,Buffer,178,179,Study,User,-,,Study/JOL,BUFFER4,2826,,,-1,-1,,,,1
5e71a892634ba70d7272e498,s2t8byg018,"Deep vs Shallow",1,274,2020-07-08T14:49:21-07:00,4.3014149665833,3,versionC_stim.csv,RLVersionC.csv,"Realational Version C","Relational, read only version C",WEAKS,DAYS,BUFFER4,Buffer,176,177,Study,User,-,,Study/JOL,BUFFER4,3823,,,-1,-1,,,,1
5e71a892634ba70d7272e498,s2t8byg018,"Deep vs Shallow",1,275,2020-07-08T14:49:24-07:00,3.9911689758301,3,versionC_stim.csv,RLVersionC.csv,"Realational Version C","Relational, read only version C",MARCH,SPRING,BUFFER4,Buffer,179,181,Study,User,-,,Study/JOL,BUFFER4,3520,,,-1,-1,,,,1
5e71a892634ba70d7272e498,s2t8byg018,"Deep vs Shallow",1,276,2020-07-08T14:49:28-07:00,3.3692409992218,3,versionC_stim.csv,RLVersionC.csv,"Realational Version C","Relational, read only version C",,,,,,0,Instruct,User,-,"You have completed this section. Please press Enter.",Filler_Instruction,Instruct5,2900,,,-1,-1,,,,1
5e71a892634ba70d7272e498,s2t8byg018,"Deep vs Shallow",1,277,2020-07-08T14:49:40-07:00,12.578650951385,3,versionC_stim.csv,RLVersionC.csv,"Realational Version C","Relational, read only version C",,,,,,0,FreeRecall,-,10,"What were you supposed to focus on while you studied each pair? (Hint: Think back to the instructions). Type your answer in the space below.",,CHECK3,12015,"think about the similarities ",0,3462,8093,0,0,,1
5e71a892634ba70d7272e498,s2t8byg018,"Deep vs Shallow",1,278,2020-07-08T14:49:48-07:00,7.4559459686279,3,versionC_stim.csv,RLVersionC.csv,"Realational Version C","Relational, read only version C",,,,,,0,Instruct,User,-,"You have completed this section. Please press Enter.",Filler_Instruction,Instruct5,5956,,,-1,-1,,,,1
5e71a892634ba70d7272e498,s2t8byg018,"Deep vs Shallow",1,279,2020-07-08T14:51:49-07:00,120.77918410301,3,versionC_stim.csv,RLVersionC.csv,"Realational Version C","Relational, read only version C",,,,,,0,FreeRecall,120,120,"Please list the 50 US states in reverse alphabetical order (z - a). The task will automatically advance to the next screen after two minutes.",,Filler2,120002,"wyoming washington vermont utah texas rhode island oregon new hampshire maryland ",0,9550,105491,0,0,,0.993
5e71a892634ba70d7272e498,s2t8byg018,"Deep vs Shallow",1,280,2020-07-08T14:52:00-07:00,11.757164001465,3,versionC_stim.csv,RLVersionC.csv,"Realational Version C","Relational, read only version C",,,,,,0,Instruct,-,10,"You will now be presented with the first word from each of the previously studied item pairs. Please type the missing word. If you do not know the word, you may guess or press Enter to skip forward to the next pair.",,Instruct6,11107,,,-1,-1,,,,1
5e71a892634ba70d7272e498,s2t8byg018,"Deep vs Shallow",1,281,2020-07-08T14:52:09-07:00,8.4781799316406,3,versionC_stim.csv,RLVersionC.csv,"Realational Version C","Relational, read only version C",SHAVE,RAZOR,Study2,S,136,144,Test,User,-,,Recall,Recall2,6984,razor,100,5590,6141,1,1,,1
5e71a892634ba70d7272e498,s2t8byg018,"Deep vs Shallow",1,282,2020-07-08T14:52:15-07:00,6.2298929691315,3,versionC_stim.csv,RLVersionC.csv,"Realational Version C","Relational, read only version C",SCAR,MAIN,Study2,U,175,158,Test,User,-,,Recall,Recall2,5266,main,100,4381,4557,1,1,,1
5e71a892634ba70d7272e498,s2t8byg018,"Deep vs Shallow",1,283,2020-07-08T14:52:19-07:00,4.0319790840149,3,versionC_stim.csv,RLVersionC.csv,"Realational Version C","Relational, read only version C",THIMBLE,THREAD,Study2,F,121,119,Test,User,-,,Recall,Recall2,3539,thread,100,1827,2259,1,1,,1
5e71a892634ba70d7272e498,s2t8byg018,"Deep vs Shallow",1,284,2020-07-08T14:52:24-07:00,4.5710608959198,3,versionC_stim.csv,RLVersionC.csv,"Realational Version C","Relational, read only version C",REVENGE,EVEN,Study2,F,122,104,Test,User,-,,Recall,Recall2,4102,even,100,2146,3274,1,1,,1
5e71a892634ba70d7272e498,s2t8byg018,"Deep vs Shallow",1,285,2020-07-08T14:52:27-07:00,3.4419941902161,3,versionC_stim.csv,RLVersionC.csv,"Realational Version C","Relational, read only version C",TRASH,LITTER,Study2,B,103,121,Test,User,-,,Recall,Recall2,2973,litter,100,1593,2425,1,1,,1
5e71a892634ba70d7272e498,s2t8byg018,"Deep vs Shallow",1,286,2020-07-08T14:52:35-07:00,7.5832719802856,3,versionC_stim.csv,RLVersionC.csv,"Realational Version C","Relational, read only version C",DRINK,WATER,Study2,S,143,99,Test,User,-,,Recall,Recall2,7099,,0,-1,-1,0,0,,1
5e71a892634ba70d7272e498,s2t8byg018,"Deep vs Shallow",1,287,2020-07-08T14:52:51-07:00,15.751477003098,3,versionC_stim.csv,RLVersionC.csv,"Realational Version C","Relational, read only version C",SCISSORS,SHEARS,Study2,B,112,143,Test,User,-,,Recall,Recall2,15184,,0,9935,10069,0,0,,1
5e71a892634ba70d7272e498,s2t8byg018,"Deep vs Shallow",1,288,2020-07-08T14:53:01-07:00,9.9982438087463,3,versionC_stim.csv,RLVersionC.csv,"Realational Version C","Relational, read only version C",JOKE,KEYS,Study2,U,165,176,Test,User,-,,Recall,Recall2,9439,,0,-1,-1,0,0,,1
5e71a892634ba70d7272e498,s2t8byg018,"Deep vs Shallow",1,289,2020-07-08T14:53:05-07:00,4.4548251628876,3,versionC_stim.csv,RLVersionC.csv,"Realational Version C","Relational, read only version C",BREAKABLE,GLASS,Study2,F,127,164,Test,User,-,,Recall,Recall2,3923,glass,100,2778,3353,1,1,,1
5e71a892634ba70d7272e498,s2t8byg018,"Deep vs Shallow",1,290,2020-07-08T14:53:09-07:00,3.7230188846588,3,versionC_stim.csv,RLVersionC.csv,"Realational Version C","Relational, read only version C",VILLAIN,BAD,Study2,F,118,131,Test,User,-,,Recall,Recall2,3229,bad,100,2390,2573,1,1,,1
5e71a892634ba70d7272e498,s2t8byg018,"Deep vs Shallow",1,291,2020-07-08T14:53:12-07:00,3.2055730819702,3,versionC_stim.csv,RLVersionC.csv,"Realational Version C","Relational, read only version C",EQUAL,RIGHTS,Study2,S,137,133,Test,User,-,,Recall,Recall2,2710,rights,100,1493,1996,1,1,,1
5e71a892634ba70d7272e498,s2t8byg018,"Deep vs Shallow",1,292,2020-07-08T14:53:21-07:00,9.1528248786926,3,versionC_stim.csv,RLVersionC.csv,"Realational Version C","Relational, read only version C",CHARM,VEHICLE,Study2,U,160,128,Test,User,-,,Recall,Recall2,8556,,0,-1,-1,0,0,,1
5e71a892634ba70d7272e498,s2t8byg018,"Deep vs Shallow",1,293,2020-07-08T14:53:30-07:00,8.9916110038757,3,versionC_stim.csv,RLVersionC.csv,"Realational Version C","Relational, read only version C",COLD,CHILL,Study2,B,114,148,Test,User,-,,Recall,Recall2,8508,ice,25,7044,7284,0,0,,1
5e71a892634ba70d7272e498,s2t8byg018,"Deep vs Shallow",1,294,2020-07-08T14:53:37-07:00,7.2211360931396,3,versionC_stim.csv,RLVersionC.csv,"Realational Version C","Relational, read only version C",PLANT,CACTUS,Study2,B,98,98,Test,User,-,,Recall,Recall2,6731,,0,-1,-1,0,0,,1
5e71a892634ba70d7272e498,s2t8byg018,"Deep vs Shallow",1,295,2020-07-08T14:53:53-07:00,15.871012926102,3,versionC_stim.csv,RLVersionC.csv,"Realational Version C","Relational, read only version C",OBTAIN,MEAT,Study2,U,161,106,Test,User,-,,Recall,Recall2,15280,,0,-1,-1,0,0,,1
5e71a892634ba70d7272e498,s2t8byg018,"Deep vs Shallow",1,296,2020-07-08T14:53:58-07:00,5.146977186203,3,versionC_stim.csv,RLVersionC.csv,"Realational Version C","Relational, read only version C",BRAWL,FIGHT,Study2,F,135,161,Test,User,-,,Recall,Recall2,4644,fight,100,2567,3751,1,1,,1
5e71a892634ba70d7272e498,s2t8byg018,"Deep vs Shallow",1,297,2020-07-08T14:54:03-07:00,5.150661945343,3,versionC_stim.csv,RLVersionC.csv,"Realational Version C","Relational, read only version C",SMELL,INCENSE,Study2,B,110,160,Test,User,-,,Recall,Recall2,4641,insence,57.142857142857,1686,2686,0,0,,1
5e71a892634ba70d7272e498,s2t8byg018,"Deep vs Shallow",1,298,2020-07-08T14:54:12-07:00,8.4647109508514,3,versionC_stim.csv,RLVersionC.csv,"Realational Version C","Relational, read only version C",CLEAR,MOAT,Study2,U,169,171,Test,User,-,,Recall,Recall2,7988,sight,22.222222222222,6773,7188,0,0,,1
5e71a892634ba70d7272e498,s2t8byg018,"Deep vs Shallow",1,299,2020-07-08T14:54:21-07:00,8.9302639961243,3,versionC_stim.csv,RLVersionC.csv,"Realational Version C","Relational, read only version C",AIRCRAFT,PLANE,Study2,F,129,103,Test,User,-,,Recall,Recall2,8427,airplane,76.923076923077,1538,7065,0,1,,1
5e71a892634ba70d7272e498,s2t8byg018,"Deep vs Shallow",1,300,2020-07-08T14:54:26-07:00,5.0632860660553,3,versionC_stim.csv,RLVersionC.csv,"Realational Version C","Relational, read only version C",ACTRESS,STAR,Study2,F,120,105,Test,User,-,,Recall,Recall2,4543,star,100,1464,2048,1,1,,1
5e71a892634ba70d7272e498,s2t8byg018,"Deep vs Shallow",1,301,2020-07-08T14:54:33-07:00,6.926589012146,3,versionC_stim.csv,RLVersionC.csv,"Realational Version C","Relational, read only version C",END,ADJOURN,Study2,B,101,173,Test,User,-,,Recall,Recall2,6445,begin,16.666666666667,4442,5593,0,0,,1
5e71a892634ba70d7272e498,s2t8byg018,"Deep vs Shallow",1,302,2020-07-08T14:54:37-07:00,4.1180138587952,3,versionC_stim.csv,RLVersionC.csv,"Realational Version C","Relational, read only version C",COFFIN,DEAD,Study2,F,128,124,Test,User,-,,Recall,Recall2,3371,death,66.666666666667,1466,2009,0,0,,1
5e71a892634ba70d7272e498,s2t8byg018,"Deep vs Shallow",1,303,2020-07-08T14:54:45-07:00,8.2654550075531,3,versionC_stim.csv,RLVersionC.csv,"Realational Version C","Relational, read only version C",RED,CHERRY,Study2,B,104,114,Test,User,-,,Recall,Recall2,7754,cherry,100,3150,6894,1,1,,1
5e71a892634ba70d7272e498,s2t8byg018,"Deep vs Shallow",1,304,2020-07-08T14:54:49-07:00,3.8278529644012,3,versionC_stim.csv,RLVersionC.csv,"Realational Version C","Relational, read only version C",ELECTION,MAZE,Study2,U,159,140,Test,User,-,,Recall,Recall2,3341,maze,100,1880,2408,1,1,,1
5e71a892634ba70d7272e498,s2t8byg018,"Deep vs Shallow",1,305,2020-07-08T14:55:06-07:00,17.077834129333,3,versionC_stim.csv,RLVersionC.csv,"Realational Version C","Relational, read only version C",MYSTERY,DETECTIVE,Study2,B,100,117,Test,User,-,,Recall,Recall2,16490,investigate,30,14575,15749,0,0,,1
5e71a892634ba70d7272e498,s2t8byg018,"Deep vs Shallow",1,306,2020-07-08T14:55:14-07:00,7.9823679924011,3,versionC_stim.csv,RLVersionC.csv,"Realational Version C","Relational, read only version C",TEMPER,TANTRUM,Study2,S,154,167,Test,User,-,,Recall,Recall2,7414,tantrum,100,2722,6561,1,1,,1
5e71a892634ba70d7272e498,s2t8byg018,"Deep vs Shallow",1,307,2020-07-08T14:55:30-07:00,15.958091020584,3,versionC_stim.csv,RLVersionC.csv,"Realational Version C","Relational, read only version C",ABLE,CRACKLE,Study2,U,162,154,Test,User,-,,Recall,Recall2,15376,,0,-1,-1,0,0,,1
5e71a892634ba70d7272e498,s2t8byg018,"Deep vs Shallow",1,308,2020-07-08T14:55:38-07:00,7.9010939598083,3,versionC_stim.csv,RLVersionC.csv,"Realational Version C","Relational, read only version C",TRUTHFUL,HONEST,Study2,F,133,146,Test,User,-,,Recall,Recall2,7416,,0,-1,-1,0,0,,1
5e71a892634ba70d7272e498,s2t8byg018,"Deep vs Shallow",1,309,2020-07-08T14:55:51-07:00,12.552401065826,3,versionC_stim.csv,RLVersionC.csv,"Realational Version C","Relational, read only version C",CAR,DRIVER,Study2,B,106,145,Test,User,-,,Recall,Recall2,11938,,0,-1,-1,0,0,,1
5e71a892634ba70d7272e498,s2t8byg018,"Deep vs Shallow",1,310,2020-07-08T14:55:56-07:00,5.6262240409851,3,versionC_stim.csv,RLVersionC.csv,"Realational Version C","Relational, read only version C",BANKER,MONEY,Study2,F,132,112,Test,User,-,,Recall,Recall2,5115,money,100,3673,4088,1,1,,1
5e71a892634ba70d7272e498,s2t8byg018,"Deep vs Shallow",1,311,2020-07-08T14:56:01-07:00,4.8976049423218,3,versionC_stim.csv,RLVersionC.csv,"Realational Version C","Relational, read only version C",LONELY,ALONE,Study2,S,145,97,Test,User,-,,Recall,Recall2,4427,alone,100,3220,3580,1,1,,1
5e71a892634ba70d7272e498,s2t8byg018,"Deep vs Shallow",1,312,2020-07-08T14:56:07-07:00,5.7260839939117,3,versionC_stim.csv,RLVersionC.csv,"Realational Version C","Relational, read only version C",HEAD,SCALP,Study2,B,105,110,Test,User,-,,Recall,Recall2,5222,foot,0,4218,4482,0,0,,1
5e71a892634ba70d7272e498,s2t8byg018,"Deep vs Shallow",1,313,2020-07-08T14:56:11-07:00,4.4844958782196,3,versionC_stim.csv,RLVersionC.csv,"Realational Version C","Relational, read only version C",FIGHT,FEUD,Study2,B,113,155,Test,User,-,,Recall,Recall2,3853,brawl,0,2330,2914,0,0,,1
5e71a892634ba70d7272e498,s2t8byg018,"Deep vs Shallow",1,314,2020-07-08T14:56:15-07:00,3.2906730175018,3,versionC_stim.csv,RLVersionC.csv,"Realational Version C","Relational, read only version C",JAR,MASON,Study2,S,138,125,Test,User,-,,Recall,Recall2,2768,mason,100,1452,1788,1,1,,1
5e71a892634ba70d7272e498,s2t8byg018,"Deep vs Shallow",1,315,2020-07-08T14:56:18-07:00,3.3138520717621,3,versionC_stim.csv,RLVersionC.csv,"Realational Version C","Relational, read only version C",DONKEY,MULE,Study2,B,108,175,Test,User,-,,Recall,Recall2,2847,mule,100,1626,2026,1,1,,1
5e71a892634ba70d7272e498,s2t8byg018,"Deep vs Shallow",1,316,2020-07-08T14:56:32-07:00,13.908668041229,3,versionC_stim.csv,RLVersionC.csv,"Realational Version C","Relational, read only version C",BANG,FUZZY,Study2,U,168,111,Test,User,-,,Recall,Recall2,13286,fluffy,54.545454545455,11808,12302,0,0,,1
5e71a892634ba70d7272e498,s2t8byg018,"Deep vs Shallow",1,317,2020-07-08T14:56:38-07:00,6.4108009338379,3,versionC_stim.csv,RLVersionC.csv,"Realational Version C","Relational, read only version C",MAROON,JUSTICE,Study2,U,156,113,Test,User,-,,Recall,Recall2,5871,,0,-1,-1,0,0,,1
5e71a892634ba70d7272e498,s2t8byg018,"Deep vs Shallow",1,318,2020-07-08T14:56:50-07:00,11.664730072021,3,versionC_stim.csv,RLVersionC.csv,"Realational Version C","Relational, read only version C",PAPER,DOCUMENT,Study2,B,109,165,Test,User,-,,Recall,Recall2,11068,report,28.571428571429,9827,10418,0,0,,1
5e71a892634ba70d7272e498,s2t8byg018,"Deep vs Shallow",1,319,2020-07-08T14:56:55-07:00,5.1597878932953,3,versionC_stim.csv,RLVersionC.csv,"Realational Version C","Relational, read only version C",FAVORITE,BEST,Study2,F,125,149,Test,User,-,,Recall,Recall2,4570,best,100,3476,3779,1,1,,1
5e71a892634ba70d7272e498,s2t8byg018,"Deep vs Shallow",1,320,2020-07-08T14:57:05-07:00,9.6021420955658,3,versionC_stim.csv,RLVersionC.csv,"Realational Version C","Relational, read only version C",CLOTHES,CAKE,Study2,U,166,132,Test,User,-,,Recall,Recall2,9107,wear,25,7637,7972,0,0,,1
5e71a892634ba70d7272e498,s2t8byg018,"Deep vs Shallow",1,321,2020-07-08T14:57:10-07:00,5.5226130485535,3,versionC_stim.csv,RLVersionC.csv,"Realational Version C","Relational, read only version C",DOG,FURRY,Study2,B,102,162,Test,User,-,,Recall,Recall2,5050,,0,-1,-1,0,0,,1
5e71a892634ba70d7272e498,s2t8byg018,"Deep vs Shallow",1,322,2020-07-08T14:57:15-07:00,4.4315497875214,3,versionC_stim.csv,RLVersionC.csv,"Realational Version C","Relational, read only version C",TICK,FLEA,Study2,S,151,109,Test,User,-,,Recall,Recall2,3958,flea,100,2822,3125,1,1,,1
5e71a892634ba70d7272e498,s2t8byg018,"Deep vs Shallow",1,323,2020-07-08T14:57:18-07:00,3.5369391441345,3,versionC_stim.csv,RLVersionC.csv,"Realational Version C","Relational, read only version C",AWAY,GONE,Study2,S,142,174,Test,User,-,,Recall,Recall2,3074,gone,100,1512,1784,1,1,,1
5e71a892634ba70d7272e498,s2t8byg018,"Deep vs Shallow",1,324,2020-07-08T14:57:24-07:00,5.8846969604492,3,versionC_stim.csv,RLVersionC.csv,"Realational Version C","Relational, read only version C",FICTION,LISTEN,Study2,U,164,153,Test,User,-,,Recall,Recall2,4386,listen,100,3070,3566,1,1,,1
5e71a892634ba70d7272e498,s2t8byg018,"Deep vs Shallow",1,325,2020-07-08T14:57:29-07:00,4.9722290039062,3,versionC_stim.csv,RLVersionC.csv,"Realational Version C","Relational, read only version C",FLIP,TURN,Study2,F,116,134,Test,User,-,,Recall,Recall2,3644,turn,100,2494,2710,1,1,,1
5e71a892634ba70d7272e498,s2t8byg018,"Deep vs Shallow",1,326,2020-07-08T14:57:32-07:00,2.6125729084015,3,versionC_stim.csv,RLVersionC.csv,"Realational Version C","Relational, read only version C",PANTHER,CAT,Study2,F,126,166,Test,User,-,,Recall,Recall2,2132,cat,100,1159,1478,1,1,,1
5e71a892634ba70d7272e498,s2t8byg018,"Deep vs Shallow",1,327,2020-07-08T14:57:35-07:00,3.6337401866913,3,versionC_stim.csv,RLVersionC.csv,"Realational Version C","Relational, read only version C",LEAGUE,BASEBALL,Study2,F,131,147,Test,User,-,,Recall,Recall2,3054,baseball,100,1569,2288,1,1,,1
5e71a892634ba70d7272e498,s2t8byg018,"Deep vs Shallow",1,328,2020-07-08T14:57:41-07:00,5.7076499462128,3,versionC_stim.csv,RLVersionC.csv,"Realational Version C","Relational, read only version C",EAT,DINE,Study2,B,111,138,Test,User,-,,Recall,Recall2,3463,dine,100,1805,2277,1,1,,1
5e71a892634ba70d7272e498,s2t8byg018,"Deep vs Shallow",1,329,2020-07-08T14:57:49-07:00,8.0906510353088,3,versionC_stim.csv,RLVersionC.csv,"Realational Version C","Relational, read only version C",LIE,TRUTH,Study2,S,148,141,Test,User,-,,Recall,Recall2,7610,,0,-1,-1,0,0,,1
5e71a892634ba70d7272e498,s2t8byg018,"Deep vs Shallow",1,330,2020-07-08T14:57:52-07:00,2.9958138465881,3,versionC_stim.csv,RLVersionC.csv,"Realational Version C","Relational, read only version C",WET,DRY,Study2,S,146,102,Test,User,-,,Recall,Recall2,2529,dry,100,1248,1655,1,1,,1
5e71a892634ba70d7272e498,s2t8byg018,"Deep vs Shallow",1,331,2020-07-08T14:58:03-07:00,10.99329996109,3,versionC_stim.csv,RLVersionC.csv,"Realational Version C","Relational, read only version C",TOIL,LEASE,Study2,U,170,151,Test,User,-,,Recall,Recall2,10418,work,0,8933,9485,0,0,,1
5e71a892634ba70d7272e498,s2t8byg018,"Deep vs Shallow",1,332,2020-07-08T14:58:07-07:00,3.9185810089111,3,versionC_stim.csv,RLVersionC.csv,"Realational Version C","Relational, read only version C",WINDSHIELD,CAR,Study2,F,117,159,Test,User,-,,Recall,Recall2,3420,vehicle,20,1669,2516,0,0,,1
5e71a892634ba70d7272e498,s2t8byg018,"Deep vs Shallow",1,333,2020-07-08T14:58:10-07:00,3.5620031356812,3,versionC_stim.csv,RLVersionC.csv,"Realational Version C","Relational, read only version C",BRACELET,WRIST,Study2,S,140,120,Test,User,-,,Recall,Recall2,3086,wrist,100,1875,2322,1,1,,1
5e71a892634ba70d7272e498,s2t8byg018,"Deep vs Shallow",1,334,2020-07-08T14:58:16-07:00,5.6074268817902,3,versionC_stim.csv,RLVersionC.csv,"Realational Version C","Relational, read only version C",WAX,CANDLE,Study2,S,139,137,Test,User,-,,Recall,Recall2,5127,candle,100,3902,4413,1,1,,1
5e71a892634ba70d7272e498,s2t8byg018,"Deep vs Shallow",1,335,2020-07-08T14:58:21-07:00,4.6441960334778,3,versionC_stim.csv,RLVersionC.csv,"Realational Version C","Relational, read only version C",PENGUIN,BIRD,Study2,F,119,129,Test,User,-,,Recall,Recall2,4157,bird,100,1188,3405,1,1,,1
5e71a892634ba70d7272e498,s2t8byg018,"Deep vs Shallow",1,336,2020-07-08T14:58:26-07:00,5.5490169525146,3,versionC_stim.csv,RLVersionC.csv,"Realational Version C","Relational, read only version C",SEATBELT,SAFETY,Study2,S,147,169,Test,User,-,,Recall,Recall2,5077,safety,100,2556,4315,1,1,,1
5e71a892634ba70d7272e498,s2t8byg018,"Deep vs Shallow",1,337,2020-07-08T14:58:29-07:00,3.1623821258545,3,versionC_stim.csv,RLVersionC.csv,"Realational Version C","Relational, read only version C",REEL,ROD,Study2,S,150,126,Test,User,-,,Recall,Recall2,2681,rod,100,1543,1927,1,1,,1
5e71a892634ba70d7272e498,s2t8byg018,"Deep vs Shallow",1,338,2020-07-08T14:58:40-07:00,10.368805885315,3,versionC_stim.csv,RLVersionC.csv,"Realational Version C","Relational, read only version C",Morning,TEMPERATURE,Study2,U,173,127,Test,User,-,,Recall,Recall2,9680,temperature,100,6595,8443,1,1,,1
5e71a892634ba70d7272e498,s2t8byg018,"Deep vs Shallow",1,339,2020-07-08T14:58:43-07:00,3.2882189750671,3,versionC_stim.csv,RLVersionC.csv,"Realational Version C","Relational, read only version C",LONG,EXTENSION,Study2,B,96,157,Test,User,-,,Recall,Recall2,2766,,0,-1,-1,0,0,,1
5e71a892634ba70d7272e498,s2t8byg018,"Deep vs Shallow",1,340,2020-07-08T14:58:48-07:00,5.2451500892639,3,versionC_stim.csv,RLVersionC.csv,"Realational Version C","Relational, read only version C",STRAWBERRY,FRUIT,Study2,F,124,101,Test,User,-,,Recall,Recall2,3165,fruit,100,1967,2431,1,1,,1
5e71a892634ba70d7272e498,s2t8byg018,"Deep vs Shallow",1,341,2020-07-08T14:58:54-07:00,5.4086270332336,3,versionC_stim.csv,RLVersionC.csv,"Realational Version C","Relational, read only version C",CLOTH,STRETCH,Study2,U,157,107,Test,User,-,,Recall,Recall2,4923,stretchy,93.333333333333,2431,4023,0,1,,1
5e71a892634ba70d7272e498,s2t8byg018,"Deep vs Shallow",1,342,2020-07-08T14:59:00-07:00,6.0698049068451,3,versionC_stim.csv,RLVersionC.csv,"Realational Version C","Relational, read only version C",GROUND,EARTH,Study2,S,144,108,Test,User,-,,Recall,Recall2,5550,grass,20,1716,3268,0,0,,1
5e71a892634ba70d7272e498,s2t8byg018,"Deep vs Shallow",1,343,2020-07-08T14:59:04-07:00,4.3177900314331,3,versionC_stim.csv,RLVersionC.csv,"Realational Version C","Relational, read only version C",BALLOON,POP,Study2,F,123,152,Test,User,-,,Recall,Recall2,3835,pop,100,2750,2973,1,1,,1
5e71a892634ba70d7272e498,s2t8byg018,"Deep vs Shallow",1,344,2020-07-08T14:59:10-07:00,5.4993190765381,3,versionC_stim.csv,RLVersionC.csv,"Realational Version C","Relational, read only version C",CHILDREN,MIRROR,Study2,U,174,156,Test,User,-,,Recall,Recall2,5000,mirror,100,3641,4264,1,1,,1
5e71a892634ba70d7272e498,s2t8byg018,"Deep vs Shallow",1,345,2020-07-08T14:59:17-07:00,7.1698389053345,3,versionC_stim.csv,RLVersionC.csv,"Realational Version C","Relational, read only version C",CUT,CHOP,Study2,B,107,122,Test,User,-,,Recall,Recall2,6673,,0,-1,-1,0,0,,1
5e71a892634ba70d7272e498,s2t8byg018,"Deep vs Shallow",1,346,2020-07-08T14:59:20-07:00,3.2326769828796,3,versionC_stim.csv,RLVersionC.csv,"Realational Version C","Relational, read only version C",NAP,SLEEP,Study2,F,134,136,Test,User,-,,Recall,Recall2,2719,sleep,100,1584,1960,1,1,,1
