Username,ID,ExperimentName,Session,Trial,Date,TimeDif,"Condition Number","Stimuli File","Order File","Condition Description","Condition Notes",Stimuli*Cue,Stimuli*Answer,Stimuli*Shuffle,"Stimuli*Stimuli Notes",Stimuli*Value,Procedure*Item,"Procedure*Trial Type","Procedure*Max Time","Procedure*Min Time",Procedure*Text,"Procedure*Procedure Notes",Procedure*Shuffle,Response*RT,Response*Response,Response*Accuracy,Response*RTfirst,Response*RTlast,Response*strictAcc,Response*lenientAcc,Response*focus,Response*Focus
5eac2099b273a00513d31d9f,qxc0upwq2z,"Deep vs Shallow",1,1,2020-07-08T14:28:20-07:00,13.185618877411,1,versionA_stim.csv,RLVersionA.csv,"Relational Version A","Relational, read only version A",,,,,,0,Instruct,-,10,"In this section, you will be presented with a series of word pairs. Please study both items in the pair.",,Instruct13,12709,,,-1,-1,,,,1
5eac2099b273a00513d31d9f,qxc0upwq2z,"Deep vs Shallow",1,2,2020-07-08T14:30:09-07:00,109.68788194656,1,versionA_stim.csv,RLVersionA.csv,"Relational Version A","Relational, read only version A",,,,,,0,Instruct,-,15,"As you study, please think about how the two concepts are RELATED to each other. For example, if you see the pair TURTLE-CAT, think about how both are alive, they are both animals, and both can be kept as pets.",,Instruct19,78654,,,-1,-1,,,,1
5eac2099b273a00513d31d9f,qxc0upwq2z,"Deep vs Shallow",1,3,2020-07-08T14:33:28-07:00,198.80544400215,1,versionA_stim.csv,RLVersionA.csv,"Relational Version A","Relational, read only version A",,,,,,0,FreeRecall,-,10,"What you should think about as you study each item pair? Type your response in the box below.",,CHECK1,65449,"I should think that how can be the given 2 word pairs can be relate with each other through a common idea. ",0,15823,62388,0,0,,0.984
5eac2099b273a00513d31d9f,qxc0upwq2z,"Deep vs Shallow",1,4,2020-07-08T14:36:22-07:00,174.1601061821,1,versionA_stim.csv,RLVersionA.csv,"Relational Version A","Relational, read only version A",,,,,,0,Instruct,User,-,"You will now begin the experiment. Press ENTER when you are ready to begin.",,Instruct000,2748,,,-1,-1,,,,1
5eac2099b273a00513d31d9f,qxc0upwq2z,"Deep vs Shallow",1,5,2020-07-08T14:36:37-07:00,14.416479825974,1,versionA_stim.csv,RLVersionA.csv,"Relational Version A","Relational, read only version A",PEANUT,BUTTER,BUFFER1,Buffer,3,2,Study,User,-,,Study/JOL,BUFFER,4900,,,-1,-1,,,,1
5eac2099b273a00513d31d9f,qxc0upwq2z,"Deep vs Shallow",1,6,2020-07-08T14:37:48-07:00,71.148046016693,1,versionA_stim.csv,RLVersionA.csv,"Relational Version A","Relational, read only version A",SPACE,JAM,BUFFER1,Buffer,5,5,Study,User,-,,Study/JOL,BUFFER,1494,,,-1,-1,,,,1
5eac2099b273a00513d31d9f,qxc0upwq2z,"Deep vs Shallow",1,7,2020-07-08T14:37:55-07:00,7.5375201702118,1,versionA_stim.csv,RLVersionA.csv,"Relational Version A","Relational, read only version A",BASEBALL,CATCHER,BUFFER1,Buffer,2,4,Study,User,-,,Study/JOL,BUFFER,7194,,,-1,-1,,,,1
5eac2099b273a00513d31d9f,qxc0upwq2z,"Deep vs Shallow",1,8,2020-07-08T14:37:59-07:00,3.4082889556885,1,versionA_stim.csv,RLVersionA.csv,"Relational Version A","Relational, read only version A",SCARE,HIDE,BUFFER1,Buffer,4,3,Study,User,-,,Study/JOL,BUFFER,2812,,,-1,-1,,,,1
5eac2099b273a00513d31d9f,qxc0upwq2z,"Deep vs Shallow",1,9,2020-07-08T14:38:02-07:00,2.9625108242035,1,versionA_stim.csv,RLVersionA.csv,"Relational Version A","Relational, read only version A",TREES,GREEN,BUFFER1,Buffer,1,6,Study,User,-,,Study/JOL,BUFFER,1404,,,-1,-1,,,,1
5eac2099b273a00513d31d9f,qxc0upwq2z,"Deep vs Shallow",1,10,2020-07-08T14:38:04-07:00,2.398469209671,1,versionA_stim.csv,RLVersionA.csv,"Relational Version A","Relational, read only version A",DUE,ASSIGNMENT,Study1,S,46,76,Study,User,-,,Study/JOL,"Study Phase",1840,,,-1,-1,,,,1
5eac2099b273a00513d31d9f,qxc0upwq2z,"Deep vs Shallow",1,11,2020-07-08T14:38:12-07:00,7.586749792099,1,versionA_stim.csv,RLVersionA.csv,"Relational Version A","Relational, read only version A",DISCOVER,FLOOR,Study1,U,71,73,Study,User,-,,Study/JOL,"Study Phase",7096,,,-1,-1,,,,1
5eac2099b273a00513d31d9f,qxc0upwq2z,"Deep vs Shallow",1,12,2020-07-08T14:38:15-07:00,2.7983222007751,1,versionA_stim.csv,RLVersionA.csv,"Relational Version A","Relational, read only version A",WINE,CHEESE,Study1,S,57,53,Study,User,-,,Study/JOL,"Study Phase",2475,,,-1,-1,,,,1
5eac2099b273a00513d31d9f,qxc0upwq2z,"Deep vs Shallow",1,13,2020-07-08T14:38:16-07:00,1.7625539302826,1,versionA_stim.csv,RLVersionA.csv,"Relational Version A","Relational, read only version A",KING,VASE,Study1,U,85,54,Study,User,-,,Study/JOL,"Study Phase",1432,,,-1,-1,,,,1
5eac2099b273a00513d31d9f,qxc0upwq2z,"Deep vs Shallow",1,14,2020-07-08T14:38:21-07:00,4.4024729728699,1,versionA_stim.csv,RLVersionA.csv,"Relational Version A","Relational, read only version A",BEGIN,END,Study1,S,54,71,Study,User,-,,Study/JOL,"Study Phase",3071,,,-1,-1,,,,1
5eac2099b273a00513d31d9f,qxc0upwq2z,"Deep vs Shallow",1,15,2020-07-08T14:38:23-07:00,1.9785039424896,1,versionA_stim.csv,RLVersionA.csv,"Relational Version A","Relational, read only version A",CREDIT,CARD,Study1,F,23,57,Study,User,-,,Study/JOL,"Study Phase",1593,,,-1,-1,,,,1
5eac2099b273a00513d31d9f,qxc0upwq2z,"Deep vs Shallow",1,16,2020-07-08T14:38:28-07:00,5.070219039917,1,versionA_stim.csv,RLVersionA.csv,"Relational Version A","Relational, read only version A",PAW,DOG,Study1,F,15,78,Study,User,-,,Study/JOL,"Study Phase",4738,,,-1,-1,,,,1
5eac2099b273a00513d31d9f,qxc0upwq2z,"Deep vs Shallow",1,17,2020-07-08T14:38:32-07:00,4.552258014679,1,versionA_stim.csv,RLVersionA.csv,"Relational Version A","Relational, read only version A",BRIDGE,WATER,Study1,F,18,27,Study,User,-,,Study/JOL,"Study Phase",3231,,,-1,-1,,,,1
5eac2099b273a00513d31d9f,qxc0upwq2z,"Deep vs Shallow",1,18,2020-07-08T14:38:34-07:00,1.1401119232178,1,versionA_stim.csv,RLVersionA.csv,"Relational Version A","Relational, read only version A",EDITOR,NEWS,Study1,F,10,41,Study,User,-,,Study/JOL,"Study Phase",812,,,-1,-1,,,,1
5eac2099b273a00513d31d9f,qxc0upwq2z,"Deep vs Shallow",1,19,2020-07-08T14:38:38-07:00,4.4862041473389,1,versionA_stim.csv,RLVersionA.csv,"Relational Version A","Relational, read only version A",DUMP,WASTE,Study1,S,49,65,Study,User,-,,Study/JOL,"Study Phase",4136,,,-1,-1,,,,1
5eac2099b273a00513d31d9f,qxc0upwq2z,"Deep vs Shallow",1,20,2020-07-08T14:38:42-07:00,3.8834929466248,1,versionA_stim.csv,RLVersionA.csv,"Relational Version A","Relational, read only version A",ORCHID,FLOWER,Study1,F,24,33,Study,User,-,,Study/JOL,"Study Phase",3548,,,-1,-1,,,,1
5eac2099b273a00513d31d9f,qxc0upwq2z,"Deep vs Shallow",1,21,2020-07-08T14:38:44-07:00,2.4333388805389,1,versionA_stim.csv,RLVersionA.csv,"Relational Version A","Relational, read only version A",BABY,CHILD,Study1,S,64,39,Study,User,-,,Study/JOL,"Study Phase",2103,,,-1,-1,,,,1
5eac2099b273a00513d31d9f,qxc0upwq2z,"Deep vs Shallow",1,22,2020-07-08T14:38:46-07:00,1.4037191867828,1,versionA_stim.csv,RLVersionA.csv,"Relational Version A","Relational, read only version A",LOCATION,SITE,Study1,S,48,43,Study,User,-,,Study/JOL,"Study Phase",1080,,,-1,-1,,,,1
5eac2099b273a00513d31d9f,qxc0upwq2z,"Deep vs Shallow",1,23,2020-07-08T14:38:48-07:00,2.3795809745789,1,versionA_stim.csv,RLVersionA.csv,"Relational Version A","Relational, read only version A",TRIAL,JURY,Study1,S,50,69,Study,User,-,,Study/JOL,"Study Phase",2060,,,-1,-1,,,,1
5eac2099b273a00513d31d9f,qxc0upwq2z,"Deep vs Shallow",1,24,2020-07-08T14:39:01-07:00,12.542543888092,1,versionA_stim.csv,RLVersionA.csv,"Relational Version A","Relational, read only version A",KIDNEY,LIVER,Study1,S,53,24,Study,User,-,,Study/JOL,"Study Phase",12178,,,-1,-1,,,,1
5eac2099b273a00513d31d9f,qxc0upwq2z,"Deep vs Shallow",1,25,2020-07-08T14:39:03-07:00,2.7646400928497,1,versionA_stim.csv,RLVersionA.csv,"Relational Version A","Relational, read only version A",HERD,COW,Study1,F,22,37,Study,User,-,,Study/JOL,"Study Phase",2437,,,-1,-1,,,,1
5eac2099b273a00513d31d9f,qxc0upwq2z,"Deep vs Shallow",1,26,2020-07-08T14:39:07-07:00,3.4761869907379,1,versionA_stim.csv,RLVersionA.csv,"Relational Version A","Relational, read only version A",HYGIENE,CLEAN,Study1,F,17,31,Study,User,-,,Study/JOL,"Study Phase",3137,,,-1,-1,,,,1
5eac2099b273a00513d31d9f,qxc0upwq2z,"Deep vs Shallow",1,27,2020-07-08T14:39:12-07:00,4.5877950191498,1,versionA_stim.csv,RLVersionA.csv,"Relational Version A","Relational, read only version A",WORK,CHORE,Study1,B,39,14,Study,User,-,,Study/JOL,"Study Phase",4237,,,-1,-1,,,,1
5eac2099b273a00513d31d9f,qxc0upwq2z,"Deep vs Shallow",1,28,2020-07-08T14:39:13-07:00,1.6674280166626,1,versionA_stim.csv,RLVersionA.csv,"Relational Version A","Relational, read only version A",BALL,RACKET,Study1,B,38,22,Study,User,-,,Study/JOL,"Study Phase",1340,,,-1,-1,,,,1
5eac2099b273a00513d31d9f,qxc0upwq2z,"Deep vs Shallow",1,29,2020-07-08T14:39:15-07:00,1.4665789604187,1,versionA_stim.csv,RLVersionA.csv,"Relational Version A","Relational, read only version A",ARCHITECTURE,DESIGN,Study1,S,51,34,Study,User,-,,Study/JOL,"Study Phase",1145,,,-1,-1,,,,1
5eac2099b273a00513d31d9f,qxc0upwq2z,"Deep vs Shallow",1,30,2020-07-08T14:39:18-07:00,2.8678870201111,1,versionA_stim.csv,RLVersionA.csv,"Relational Version A","Relational, read only version A",LAW,ATTORNEY,Study1,B,34,56,Study,User,-,,Study/JOL,"Study Phase",2541,,,-1,-1,,,,1
5eac2099b273a00513d31d9f,qxc0upwq2z,"Deep vs Shallow",1,31,2020-07-08T14:39:19-07:00,1.6784310340881,1,versionA_stim.csv,RLVersionA.csv,"Relational Version A","Relational, read only version A",SWAN,BIRD,Study1,F,14,67,Study,User,-,,Study/JOL,"Study Phase",1339,,,-1,-1,,,,1
5eac2099b273a00513d31d9f,qxc0upwq2z,"Deep vs Shallow",1,32,2020-07-08T14:39:21-07:00,1.9504828453064,1,versionA_stim.csv,RLVersionA.csv,"Relational Version A","Relational, read only version A",BITTER,COLD,Study1,F,12,16,Study,User,-,,Study/JOL,"Study Phase",608,,,-1,-1,,,,1
5eac2099b273a00513d31d9f,qxc0upwq2z,"Deep vs Shallow",1,33,2020-07-08T14:39:22-07:00,1.1132681369781,1,versionA_stim.csv,RLVersionA.csv,"Relational Version A","Relational, read only version A",MEANING,DEFINITION,Study1,S,62,52,Study,User,-,,Study/JOL,"Study Phase",739,,,-1,-1,,,,1
5eac2099b273a00513d31d9f,qxc0upwq2z,"Deep vs Shallow",1,34,2020-07-08T14:39:24-07:00,2.2059898376465,1,versionA_stim.csv,RLVersionA.csv,"Relational Version A","Relational, read only version A",DEBATE,SIGHT,Study1,U,73,49,Study,User,-,,Study/JOL,"Study Phase",1876,,,-1,-1,,,,1
5eac2099b273a00513d31d9f,qxc0upwq2z,"Deep vs Shallow",1,35,2020-07-08T14:39:26-07:00,1.8006610870361,1,versionA_stim.csv,RLVersionA.csv,"Relational Version A","Relational, read only version A",SOON,BELT,Study1,U,70,36,Study,User,-,,Study/JOL,"Study Phase",1489,,,-1,-1,,,,1
5eac2099b273a00513d31d9f,qxc0upwq2z,"Deep vs Shallow",1,36,2020-07-08T14:39:31-07:00,4.9227089881897,1,versionA_stim.csv,RLVersionA.csv,"Relational Version A","Relational, read only version A",DIETARY,SACKING,Study1,U,67,29,Study,User,-,,Study/JOL,"Study Phase",4598,,,-1,-1,,,,1
5eac2099b273a00513d31d9f,qxc0upwq2z,"Deep vs Shallow",1,37,2020-07-08T14:39:34-07:00,2.9228479862213,1,versionA_stim.csv,RLVersionA.csv,"Relational Version A","Relational, read only version A",ALLOW,TUCK,Study1,U,78,84,Study,User,-,,Study/JOL,"Study Phase",2586,,,-1,-1,,,,1
5eac2099b273a00513d31d9f,qxc0upwq2z,"Deep vs Shallow",1,38,2020-07-08T14:39:37-07:00,2.8091249465942,1,versionA_stim.csv,RLVersionA.csv,"Relational Version A","Relational, read only version A",DISCUSSION,TALK,Study1,F,21,59,Study,User,-,,Study/JOL,"Study Phase",2476,,,-1,-1,,,,1
5eac2099b273a00513d31d9f,qxc0upwq2z,"Deep vs Shallow",1,39,2020-07-08T14:39:40-07:00,2.7398130893707,1,versionA_stim.csv,RLVersionA.csv,"Relational Version A","Relational, read only version A",HAPPY,CAR,Study1,U,77,46,Study,User,-,,Study/JOL,"Study Phase",2406,,,-1,-1,,,,1
5eac2099b273a00513d31d9f,qxc0upwq2z,"Deep vs Shallow",1,40,2020-07-08T14:39:44-07:00,4.0334589481354,1,versionA_stim.csv,RLVersionA.csv,"Relational Version A","Relational, read only version A",GEOLOGY,ROCK,Study1,F,19,18,Study,User,-,,Study/JOL,"Study Phase",3702,,,-1,-1,,,,1
5eac2099b273a00513d31d9f,qxc0upwq2z,"Deep vs Shallow",1,41,2020-07-08T14:39:48-07:00,4.1801731586456,1,versionA_stim.csv,RLVersionA.csv,"Relational Version A","Relational, read only version A",CLOTHES,ATTIRE,Study1,B,43,10,Study,User,-,,Study/JOL,"Study Phase",3859,,,-1,-1,,,,1
5eac2099b273a00513d31d9f,qxc0upwq2z,"Deep vs Shallow",1,42,2020-07-08T14:39:51-07:00,2.7877879142761,1,versionA_stim.csv,RLVersionA.csv,"Relational Version A","Relational, read only version A",BATHROOM,TOILET,Study1,S,58,35,Study,User,-,,Study/JOL,"Study Phase",2453,,,-1,-1,,,,1
5eac2099b273a00513d31d9f,qxc0upwq2z,"Deep vs Shallow",1,43,2020-07-08T14:39:55-07:00,3.9809200763702,1,versionA_stim.csv,RLVersionA.csv,"Relational Version A","Relational, read only version A",SLEEP,DROWSY,Study1,B,41,11,Study,User,-,,Study/JOL,"Study Phase",3648,,,-1,-1,,,,1
5eac2099b273a00513d31d9f,qxc0upwq2z,"Deep vs Shallow",1,44,2020-07-08T14:39:59-07:00,3.8810958862305,1,versionA_stim.csv,RLVersionA.csv,"Relational Version A","Relational, read only version A",,,,,,0,Instruct,-,3,"Remember to focus on how the two items are similiar while you study!",,CHECK2,3551,,,-1,-1,,,,1
5eac2099b273a00513d31d9f,qxc0upwq2z,"Deep vs Shallow",1,45,2020-07-08T14:40:02-07:00,3.52064204216,1,versionA_stim.csv,RLVersionA.csv,"Relational Version A","Relational, read only version A",STRONG,ACCIDENT,Study1,U,80,15,Study,User,-,,Study/JOL,"Study Phase",3193,,,-1,-1,,,,1
5eac2099b273a00513d31d9f,qxc0upwq2z,"Deep vs Shallow",1,46,2020-07-08T14:40:05-07:00,2.4771180152893,1,versionA_stim.csv,RLVersionA.csv,"Relational Version A","Relational, read only version A",DEATH,BUSINESS,Study1,U,72,82,Study,User,-,,Study/JOL,"Study Phase",2151,,,-1,-1,,,,1
5eac2099b273a00513d31d9f,qxc0upwq2z,"Deep vs Shallow",1,47,2020-07-08T14:40:07-07:00,2.6878039836884,1,versionA_stim.csv,RLVersionA.csv,"Relational Version A","Relational, read only version A",SUGAR,RIDDLE,Study1,U,81,26,Study,User,-,,Study/JOL,"Study Phase",2347,,,-1,-1,,,,1
5eac2099b273a00513d31d9f,qxc0upwq2z,"Deep vs Shallow",1,48,2020-07-08T14:40:10-07:00,2.8859419822693,1,versionA_stim.csv,RLVersionA.csv,"Relational Version A","Relational, read only version A",PARK,HUNGRY,Study1,U,68,47,Study,User,-,,Study/JOL,"Study Phase",2557,,,-1,-1,,,,1
5eac2099b273a00513d31d9f,qxc0upwq2z,"Deep vs Shallow",1,49,2020-07-08T14:40:13-07:00,3.2006189823151,1,versionA_stim.csv,RLVersionA.csv,"Relational Version A","Relational, read only version A",DIGESTION,STOMACH,Study1,F,7,7,Study,User,-,,Study/JOL,"Study Phase",2858,,,-1,-1,,,,1
5eac2099b273a00513d31d9f,qxc0upwq2z,"Deep vs Shallow",1,50,2020-07-08T14:40:16-07:00,2.6013691425323,1,versionA_stim.csv,RLVersionA.csv,"Relational Version A","Relational, read only version A",SHOE,FOOT,Study1,S,60,83,Study,User,-,,Study/JOL,"Study Phase",2269,,,-1,-1,,,,1
5eac2099b273a00513d31d9f,qxc0upwq2z,"Deep vs Shallow",1,51,2020-07-08T14:40:20-07:00,4.1867828369141,1,versionA_stim.csv,RLVersionA.csv,"Relational Version A","Relational, read only version A",ART,LION,Study1,U,79,61,Study,User,-,,Study/JOL,"Study Phase",3861,,,-1,-1,,,,1
5eac2099b273a00513d31d9f,qxc0upwq2z,"Deep vs Shallow",1,52,2020-07-08T14:40:24-07:00,4.3656649589539,1,versionA_stim.csv,RLVersionA.csv,"Relational Version A","Relational, read only version A",HONEY,BEE,Study1,S,63,58,Study,User,-,,Study/JOL,"Study Phase",4038,,,-1,-1,,,,1
5eac2099b273a00513d31d9f,qxc0upwq2z,"Deep vs Shallow",1,53,2020-07-08T14:40:27-07:00,2.6470620632172,1,versionA_stim.csv,RLVersionA.csv,"Relational Version A","Relational, read only version A",WAY,OUT,Study1,F,16,62,Study,User,-,,Study/JOL,"Study Phase",2327,,,-1,-1,,,,1
5eac2099b273a00513d31d9f,qxc0upwq2z,"Deep vs Shallow",1,54,2020-07-08T14:40:29-07:00,2.3397469520569,1,versionA_stim.csv,RLVersionA.csv,"Relational Version A","Relational, read only version A",BLOW,WIND,Study1,S,55,28,Study,User,-,,Study/JOL,"Study Phase",2006,,,-1,-1,,,,1
5eac2099b273a00513d31d9f,qxc0upwq2z,"Deep vs Shallow",1,55,2020-07-08T14:40:35-07:00,5.2277321815491,1,versionA_stim.csv,RLVersionA.csv,"Relational Version A","Relational, read only version A",ROOT,PLANT,Study1,F,13,63,Study,User,-,,Study/JOL,"Study Phase",4897,,,-1,-1,,,,1
5eac2099b273a00513d31d9f,qxc0upwq2z,"Deep vs Shallow",1,56,2020-07-08T14:40:38-07:00,3.5003659725189,1,versionA_stim.csv,RLVersionA.csv,"Relational Version A","Relational, read only version A",HUNGER,FAMINE,Study1,B,40,9,Study,User,-,,Study/JOL,"Study Phase",3179,,,-1,-1,,,,1
5eac2099b273a00513d31d9f,qxc0upwq2z,"Deep vs Shallow",1,57,2020-07-08T14:40:41-07:00,2.6064028739929,1,versionA_stim.csv,RLVersionA.csv,"Relational Version A","Relational, read only version A",HEIGHT,GROWTH,Study1,B,30,81,Study,User,-,,Study/JOL,"Study Phase",2275,,,-1,-1,,,,1
5eac2099b273a00513d31d9f,qxc0upwq2z,"Deep vs Shallow",1,58,2020-07-08T14:40:43-07:00,2.2585160732269,1,versionA_stim.csv,RLVersionA.csv,"Relational Version A","Relational, read only version A",CIRCLE,ROUND,Study1,S,65,40,Study,User,-,,Study/JOL,"Study Phase",1927,,,-1,-1,,,,1
5eac2099b273a00513d31d9f,qxc0upwq2z,"Deep vs Shallow",1,59,2020-07-08T14:40:45-07:00,2.2434899806976,1,versionA_stim.csv,RLVersionA.csv,"Relational Version A","Relational, read only version A",LETTUCE,SALAD,Study1,S,59,85,Study,User,-,,Study/JOL,"Study Phase",1890,,,-1,-1,,,,1
5eac2099b273a00513d31d9f,qxc0upwq2z,"Deep vs Shallow",1,60,2020-07-08T14:40:47-07:00,2.0385730266571,1,versionA_stim.csv,RLVersionA.csv,"Relational Version A","Relational, read only version A",HOT,CHILI,Study1,B,37,44,Study,User,-,,Study/JOL,"Study Phase",1713,,,-1,-1,,,,1
5eac2099b273a00513d31d9f,qxc0upwq2z,"Deep vs Shallow",1,61,2020-07-08T14:40:49-07:00,2.070631980896,1,versionA_stim.csv,RLVersionA.csv,"Relational Version A","Relational, read only version A",NUMBER,AMOUNT,Study1,S,47,19,Study,User,-,,Study/JOL,"Study Phase",1693,,,-1,-1,,,,1
5eac2099b273a00513d31d9f,qxc0upwq2z,"Deep vs Shallow",1,62,2020-07-08T14:40:52-07:00,2.2311480045319,1,versionA_stim.csv,RLVersionA.csv,"Relational Version A","Relational, read only version A",BUG,WASP,Study1,B,32,38,Study,User,-,,Study/JOL,"Study Phase",1908,,,-1,-1,,,,1
5eac2099b273a00513d31d9f,qxc0upwq2z,"Deep vs Shallow",1,63,2020-07-08T14:40:55-07:00,3.1362018585205,1,versionA_stim.csv,RLVersionA.csv,"Relational Version A","Relational, read only version A",ARTERY,BRONZE,Study1,U,74,48,Study,User,-,,Study/JOL,"Study Phase",2819,,,-1,-1,,,,1
5eac2099b273a00513d31d9f,qxc0upwq2z,"Deep vs Shallow",1,64,2020-07-08T14:40:56-07:00,1.7375910282135,1,versionA_stim.csv,RLVersionA.csv,"Relational Version A","Relational, read only version A",CHISEL,HAMMER,Study1,F,9,30,Study,User,-,,Study/JOL,"Study Phase",1412,,,-1,-1,,,,1
5eac2099b273a00513d31d9f,qxc0upwq2z,"Deep vs Shallow",1,65,2020-07-08T14:40:59-07:00,2.4521579742432,1,versionA_stim.csv,RLVersionA.csv,"Relational Version A","Relational, read only version A",GRILL,BAR,Study1,S,52,21,Study,User,-,,Study/JOL,"Study Phase",2124,,,-1,-1,,,,1
5eac2099b273a00513d31d9f,qxc0upwq2z,"Deep vs Shallow",1,66,2020-07-08T14:41:01-07:00,2.0078930854797,1,versionA_stim.csv,RLVersionA.csv,"Relational Version A","Relational, read only version A",MACHINE,POSITION,Study1,U,76,70,Study,User,-,,Study/JOL,"Study Phase",1682,,,-1,-1,,,,1
5eac2099b273a00513d31d9f,qxc0upwq2z,"Deep vs Shallow",1,67,2020-07-08T14:41:03-07:00,2.2868769168854,1,versionA_stim.csv,RLVersionA.csv,"Relational Version A","Relational, read only version A",CASH,WOULD,Study1,U,83,55,Study,User,-,,Study/JOL,"Study Phase",1966,,,-1,-1,,,,1
5eac2099b273a00513d31d9f,qxc0upwq2z,"Deep vs Shallow",1,68,2020-07-08T14:41:05-07:00,1.9525871276855,1,versionA_stim.csv,RLVersionA.csv,"Relational Version A","Relational, read only version A",TUNA,FISH,Study1,F,25,72,Study,User,-,,Study/JOL,"Study Phase",1628,,,-1,-1,,,,1
5eac2099b273a00513d31d9f,qxc0upwq2z,"Deep vs Shallow",1,69,2020-07-08T14:41:07-07:00,2.0210139751434,1,versionA_stim.csv,RLVersionA.csv,"Relational Version A","Relational, read only version A",WAGE,MONEY,Study1,F,8,12,Study,User,-,,Study/JOL,"Study Phase",1693,,,-1,-1,,,,1
5eac2099b273a00513d31d9f,qxc0upwq2z,"Deep vs Shallow",1,70,2020-07-08T14:41:10-07:00,2.8765320777893,1,versionA_stim.csv,RLVersionA.csv,"Relational Version A","Relational, read only version A",PUSHER,CLUTTER,Study1,U,66,75,Study,User,-,,Study/JOL,"Study Phase",2547,,,-1,-1,,,,1
5eac2099b273a00513d31d9f,qxc0upwq2z,"Deep vs Shallow",1,71,2020-07-08T14:41:12-07:00,2.1626749038696,1,versionA_stim.csv,RLVersionA.csv,"Relational Version A","Relational, read only version A",FULL,ENOUGH,Study1,B,26,74,Study,User,-,,Study/JOL,"Study Phase",1797,,,-1,-1,,,,1
5eac2099b273a00513d31d9f,qxc0upwq2z,"Deep vs Shallow",1,72,2020-07-08T14:41:15-07:00,2.4591269493103,1,versionA_stim.csv,RLVersionA.csv,"Relational Version A","Relational, read only version A",SENTENCE,WORD,Study1,B,31,23,Study,User,-,,Study/JOL,"Study Phase",2064,,,-1,-1,,,,1
5eac2099b273a00513d31d9f,qxc0upwq2z,"Deep vs Shallow",1,73,2020-07-08T14:41:19-07:00,4.8047730922699,1,versionA_stim.csv,RLVersionA.csv,"Relational Version A","Relational, read only version A",HIDE,SICK,Study1,U,84,60,Study,User,-,,Study/JOL,"Study Phase",4477,,,-1,-1,,,,1
5eac2099b273a00513d31d9f,qxc0upwq2z,"Deep vs Shallow",1,74,2020-07-08T14:41:21-07:00,1.9466080665588,1,versionA_stim.csv,RLVersionA.csv,"Relational Version A","Relational, read only version A",FIRE,BLAZE,Study1,B,45,51,Study,User,-,,Study/JOL,"Study Phase",1618,,,-1,-1,,,,1
5eac2099b273a00513d31d9f,qxc0upwq2z,"Deep vs Shallow",1,75,2020-07-08T14:41:24-07:00,2.7745559215546,1,versionA_stim.csv,RLVersionA.csv,"Relational Version A","Relational, read only version A",KEY,LATCH,Study1,B,36,45,Study,User,-,,Study/JOL,"Study Phase",2443,,,-1,-1,,,,1
5eac2099b273a00513d31d9f,qxc0upwq2z,"Deep vs Shallow",1,76,2020-07-08T14:41:26-07:00,1.8954830169678,1,versionA_stim.csv,RLVersionA.csv,"Relational Version A","Relational, read only version A",DARK,CAVE,Study1,B,28,79,Study,User,-,,Study/JOL,"Study Phase",1568,,,-1,-1,,,,1
5eac2099b273a00513d31d9f,qxc0upwq2z,"Deep vs Shallow",1,77,2020-07-08T14:41:30-07:00,3.896518945694,1,versionA_stim.csv,RLVersionA.csv,"Relational Version A","Relational, read only version A",DELINQUENT,BAD,Study1,F,6,86,Study,User,-,,Study/JOL,"Study Phase",3565,,,-1,-1,,,,1
5eac2099b273a00513d31d9f,qxc0upwq2z,"Deep vs Shallow",1,78,2020-07-08T14:41:32-07:00,2.0179431438446,1,versionA_stim.csv,RLVersionA.csv,"Relational Version A","Relational, read only version A",FIX,HAND,Study1,U,75,66,Study,User,-,,Study/JOL,"Study Phase",1685,,,-1,-1,,,,1
5eac2099b273a00513d31d9f,qxc0upwq2z,"Deep vs Shallow",1,79,2020-07-08T14:41:34-07:00,2.4440979957581,1,versionA_stim.csv,RLVersionA.csv,"Relational Version A","Relational, read only version A",PAST,FUTURE,Study1,S,61,8,Study,User,-,,Study/JOL,"Study Phase",2097,,,-1,-1,,,,1
5eac2099b273a00513d31d9f,qxc0upwq2z,"Deep vs Shallow",1,80,2020-07-08T14:41:38-07:00,3.3277549743652,1,versionA_stim.csv,RLVersionA.csv,"Relational Version A","Relational, read only version A",HORNET,STING,Study1,F,11,25,Study,User,-,,Study/JOL,"Study Phase",2995,,,-1,-1,,,,1
5eac2099b273a00513d31d9f,qxc0upwq2z,"Deep vs Shallow",1,81,2020-07-08T14:41:40-07:00,2.0634160041809,1,versionA_stim.csv,RLVersionA.csv,"Relational Version A","Relational, read only version A",TAKE,SEIZE,Study1,B,29,80,Study,User,-,,Study/JOL,"Study Phase",1735,,,-1,-1,,,,1
5eac2099b273a00513d31d9f,qxc0upwq2z,"Deep vs Shallow",1,82,2020-07-08T14:41:42-07:00,1.8077218532562,1,versionA_stim.csv,RLVersionA.csv,"Relational Version A","Relational, read only version A",REVOLUTION,WAR,Study1,F,20,68,Study,User,-,,Study/JOL,"Study Phase",1483,,,-1,-1,,,,1
5eac2099b273a00513d31d9f,qxc0upwq2z,"Deep vs Shallow",1,83,2020-07-08T14:41:44-07:00,2.4986491203308,1,versionA_stim.csv,RLVersionA.csv,"Relational Version A","Relational, read only version A",VALLEY,ADD,Study1,U,82,77,Study,User,-,,Study/JOL,"Study Phase",2153,,,-1,-1,,,,1
5eac2099b273a00513d31d9f,qxc0upwq2z,"Deep vs Shallow",1,84,2020-07-08T14:41:48-07:00,3.4763579368591,1,versionA_stim.csv,RLVersionA.csv,"Relational Version A","Relational, read only version A",LIFT,WOMAN,Study1,U,69,64,Study,User,-,,Study/JOL,"Study Phase",3121,,,-1,-1,,,,1
5eac2099b273a00513d31d9f,qxc0upwq2z,"Deep vs Shallow",1,85,2020-07-08T14:41:50-07:00,2.029522895813,1,versionA_stim.csv,RLVersionA.csv,"Relational Version A","Relational, read only version A",SMELL,STENCH,Study1,B,42,50,Study,User,-,,Study/JOL,"Study Phase",1687,,,-1,-1,,,,1
5eac2099b273a00513d31d9f,qxc0upwq2z,"Deep vs Shallow",1,86,2020-07-08T14:41:53-07:00,2.8340880870819,1,versionA_stim.csv,RLVersionA.csv,"Relational Version A","Relational, read only version A",GREAT,FANTASTIC,Study1,B,35,13,Study,User,-,,Study/JOL,"Study Phase",2512,,,-1,-1,,,,1
5eac2099b273a00513d31d9f,qxc0upwq2z,"Deep vs Shallow",1,87,2020-07-08T14:41:55-07:00,2.9120199680328,1,versionA_stim.csv,RLVersionA.csv,"Relational Version A","Relational, read only version A",PLANE,PILOT,Study1,B,44,32,Study,User,-,,Study/JOL,"Study Phase",2569,,,-1,-1,,,,1
5eac2099b273a00513d31d9f,qxc0upwq2z,"Deep vs Shallow",1,88,2020-07-08T14:41:58-07:00,2.6735501289368,1,versionA_stim.csv,RLVersionA.csv,"Relational Version A","Relational, read only version A",DRINK,SIP,Study1,B,27,20,Study,User,-,,Study/JOL,"Study Phase",2339,,,-1,-1,,,,1
5eac2099b273a00513d31d9f,qxc0upwq2z,"Deep vs Shallow",1,89,2020-07-08T14:42:00-07:00,2.3571109771729,1,versionA_stim.csv,RLVersionA.csv,"Relational Version A","Relational, read only version A",MATH,DIVISION,Study1,B,33,42,Study,User,-,,Study/JOL,"Study Phase",2025,,,-1,-1,,,,1
5eac2099b273a00513d31d9f,qxc0upwq2z,"Deep vs Shallow",1,90,2020-07-08T14:42:03-07:00,2.3405900001526,1,versionA_stim.csv,RLVersionA.csv,"Relational Version A","Relational, read only version A",POP,SODA,Study1,S,56,17,Study,User,-,,Study/JOL,"Study Phase",2019,,,-1,-1,,,,1
5eac2099b273a00513d31d9f,qxc0upwq2z,"Deep vs Shallow",1,91,2020-07-08T14:42:05-07:00,2.1719160079956,1,versionA_stim.csv,RLVersionA.csv,"Relational Version A","Relational, read only version A",MALT,CHOCOLATE,BUFFER2,Buffer,88,91,Study,User,-,,Study/JOL,BUFFER2,1828,,,-1,-1,,,,1
5eac2099b273a00513d31d9f,qxc0upwq2z,"Deep vs Shallow",1,92,2020-07-08T14:42:07-07:00,2.0935888290405,1,versionA_stim.csv,RLVersionA.csv,"Relational Version A","Relational, read only version A",GEESE,GOOSE,BUFFER2,Buffer,86,87,Study,User,-,,Study/JOL,BUFFER2,1768,,,-1,-1,,,,1
5eac2099b273a00513d31d9f,qxc0upwq2z,"Deep vs Shallow",1,93,2020-07-08T14:42:09-07:00,1.9433951377869,1,versionA_stim.csv,RLVersionA.csv,"Relational Version A","Relational, read only version A",THING,STUFF,BUFFER2,Buffer,90,89,Study,User,-,,Study/JOL,BUFFER2,1609,,,-1,-1,,,,1
5eac2099b273a00513d31d9f,qxc0upwq2z,"Deep vs Shallow",1,94,2020-07-08T14:42:12-07:00,2.7363419532776,1,versionA_stim.csv,RLVersionA.csv,"Relational Version A","Relational, read only version A",SHERRIF,POLICE,BUFFER2,Buffer,87,90,Study,User,-,,Study/JOL,BUFFER2,2415,,,-1,-1,,,,1
5eac2099b273a00513d31d9f,qxc0upwq2z,"Deep vs Shallow",1,95,2020-07-08T14:42:14-07:00,2.3664429187775,1,versionA_stim.csv,RLVersionA.csv,"Relational Version A","Relational, read only version A",MOON,SPACE,BUFFER2,Buffer,89,88,Study,User,-,,Study/JOL,BUFFER2,2037,,,-1,-1,,,,1
5eac2099b273a00513d31d9f,qxc0upwq2z,"Deep vs Shallow",1,96,2020-07-08T14:42:19-07:00,4.8330972194672,1,versionA_stim.csv,RLVersionA.csv,"Relational Version A","Relational, read only version A",,,,,,0,Instruct,User,-,"You have completed this section. Please press Enter.",Filler_Instruction,Instruct2,4500,,,-1,-1,,,,1
5eac2099b273a00513d31d9f,qxc0upwq2z,"Deep vs Shallow",1,97,2020-07-08T14:42:23-07:00,3.9439649581909,1,versionA_stim.csv,RLVersionA.csv,"Relational Version A","Relational, read only version A",,,,,,0,Instruct,User,-,"You have completed this section. Please press Enter.",Filler_Instruction,Instruct5,3562,,,-1,-1,,,,1
5eac2099b273a00513d31d9f,qxc0upwq2z,"Deep vs Shallow",1,98,2020-07-08T14:44:52-07:00,149.21415686607,1,versionA_stim.csv,RLVersionA.csv,"Relational Version A","Relational, read only version A",,,,,,0,FreeRecall,-,10,"What were you supposed to focus on while you studied each pair? (Hint: Think back to the instructions). Type your answer in the space below.",,CHECK3,148848,"By seeing the 2 words, I have to see how these 2 words can be related to each other with a common subject; based on the knowledge we have from the day to day real-life scenario.",0,6952,146209,0,0,,1
5eac2099b273a00513d31d9f,qxc0upwq2z,"Deep vs Shallow",1,99,2020-07-08T14:46:53-07:00,120.60837101936,1,versionA_stim.csv,RLVersionA.csv,"Relational Version A","Relational, read only version A",,,,,,0,FreeRecall,120,120,"Please list the 50 US states in alphabetical order. The task will automatically advance to the next screen after two minutes.",,Filler1,120001,"Alabama alaska arizona ",0,17891,62692,0,0,,0.873
5eac2099b273a00513d31d9f,qxc0upwq2z,"Deep vs Shallow",1,100,2020-07-08T14:50:42-07:00,229.12894892693,1,versionA_stim.csv,RLVersionA.csv,"Relational Version A","Relational, read only version A",,,,,,0,Instruct,-,10,"You will now be presented with the first word from each of the previously studied item pairs. Please type the missing word. If you do not know the word, you may guess or press Enter to skip forward to the next pair.",,Instruct3,228526,,,-1,-1,,,,0.954
5eac2099b273a00513d31d9f,qxc0upwq2z,"Deep vs Shallow",1,101,2020-07-08T14:51:18-07:00,36.284014225006,1,versionA_stim.csv,RLVersionA.csv,"Relational Version A","Relational, read only version A",LETTUCE,SALAD,Study1,S,59,85,Test,User,-,,Recall,Recall1,34877,salad,100,23348,33910,1,1,,1
5eac2099b273a00513d31d9f,qxc0upwq2z,"Deep vs Shallow",1,102,2020-07-08T14:51:23-07:00,4.4002628326416,1,versionA_stim.csv,RLVersionA.csv,"Relational Version A","Relational, read only version A",HIDE,SICK,Study1,U,84,60,Test,User,-,,Recall,Recall1,3763,seek,50,2443,2909,0,0,,1
5eac2099b273a00513d31d9f,qxc0upwq2z,"Deep vs Shallow",1,103,2020-07-08T14:51:50-07:00,27.769473075867,1,versionA_stim.csv,RLVersionA.csv,"Relational Version A","Relational, read only version A",LOCATION,SITE,Study1,S,48,43,Test,User,-,,Recall,Recall1,27384,PLACE,22.222222222222,26061,26452,0,0,,1
5eac2099b273a00513d31d9f,qxc0upwq2z,"Deep vs Shallow",1,104,2020-07-08T14:52:00-07:00,9.7967789173126,1,versionA_stim.csv,RLVersionA.csv,"Relational Version A","Relational, read only version A",BUG,WASP,Study1,B,32,38,Test,User,-,,Recall,Recall1,9245,WASP,100,7768,8263,1,1,,1
5eac2099b273a00513d31d9f,qxc0upwq2z,"Deep vs Shallow",1,105,2020-07-08T14:52:27-07:00,26.52664399147,1,versionA_stim.csv,RLVersionA.csv,"Relational Version A","Relational, read only version A",STRONG,ACCIDENT,Study1,U,80,15,Test,User,-,,Recall,Recall1,26140,ACCIDENT,100,15904,25142,1,1,,1
5eac2099b273a00513d31d9f,qxc0upwq2z,"Deep vs Shallow",1,106,2020-07-08T14:52:40-07:00,13.160890102386,1,versionA_stim.csv,RLVersionA.csv,"Relational Version A","Relational, read only version A",GRILL,BAR,Study1,S,52,21,Test,User,-,,Recall,Recall1,12769,BAR,100,11007,11424,1,1,,1
5eac2099b273a00513d31d9f,qxc0upwq2z,"Deep vs Shallow",1,107,2020-07-08T14:53:01-07:00,21.728309869766,1,versionA_stim.csv,RLVersionA.csv,"Relational Version A","Relational, read only version A",HORNET,STING,Study1,F,11,25,Test,User,-,,Recall,Recall1,21333,STING,100,19147,20175,1,1,,1
5eac2099b273a00513d31d9f,qxc0upwq2z,"Deep vs Shallow",1,108,2020-07-08T14:53:43-07:00,41.52178311348,1,versionA_stim.csv,RLVersionA.csv,"Relational Version A","Relational, read only version A",DISCOVER,FLOOR,Study1,U,71,73,Test,User,-,,Recall,Recall1,40919,INNOVATE,15.384615384615,38076,40030,0,0,,1
5eac2099b273a00513d31d9f,qxc0upwq2z,"Deep vs Shallow",1,109,2020-07-08T14:54:00-07:00,16.983340024948,1,versionA_stim.csv,RLVersionA.csv,"Relational Version A","Relational, read only version A",FIRE,BLAZE,Study1,B,45,51,Test,User,-,,Recall,Recall1,16380,BLAZE,100,13681,14965,1,1,,1
5eac2099b273a00513d31d9f,qxc0upwq2z,"Deep vs Shallow",1,110,2020-07-08T14:54:06-07:00,5.7576808929443,1,versionA_stim.csv,RLVersionA.csv,"Relational Version A","Relational, read only version A",WAY,OUT,Study1,F,16,62,Test,User,-,,Recall,Recall1,5184,OUT,100,3668,4047,1,1,,1
5eac2099b273a00513d31d9f,qxc0upwq2z,"Deep vs Shallow",1,111,2020-07-08T14:54:46-07:00,40.647979974747,1,versionA_stim.csv,RLVersionA.csv,"Relational Version A","Relational, read only version A",EDITOR,NEWS,Study1,F,10,41,Test,User,-,,Recall,Recall1,40242,NEWSPAPER,61.538461538462,35522,38986,0,0,,1
5eac2099b273a00513d31d9f,qxc0upwq2z,"Deep vs Shallow",1,112,2020-07-08T14:55:13-07:00,27.005057096481,1,versionA_stim.csv,RLVersionA.csv,"Relational Version A","Relational, read only version A",SENTENCE,WORD,Study1,B,31,23,Test,User,-,,Recall,Recall1,26596,DEATH,22.222222222222,24349,25075,0,0,,1
5eac2099b273a00513d31d9f,qxc0upwq2z,"Deep vs Shallow",1,113,2020-07-08T14:55:42-07:00,28.810476064682,1,versionA_stim.csv,RLVersionA.csv,"Relational Version A","Relational, read only version A",BITTER,COLD,Study1,F,12,16,Test,User,-,,Recall,Recall1,28194,TRUTH,0,2056,3167,0,0,,1
5eac2099b273a00513d31d9f,qxc0upwq2z,"Deep vs Shallow",1,114,2020-07-08T14:56:31-07:00,48.586482048035,1,versionA_stim.csv,RLVersionA.csv,"Relational Version A","Relational, read only version A",BRIDGE,WATER,Study1,F,18,27,Test,User,-,,Recall,Recall1,47982,WAY,50,3903,4653,0,0,,1
5eac2099b273a00513d31d9f,qxc0upwq2z,"Deep vs Shallow",1,115,2020-07-08T14:56:51-07:00,19.949027776718,1,versionA_stim.csv,RLVersionA.csv,"Relational Version A","Relational, read only version A",ARCHITECTURE,DESIGN,Study1,S,51,34,Test,User,-,,Recall,Recall1,19341,PLAN,20,17199,18359,0,0,,1
5eac2099b273a00513d31d9f,qxc0upwq2z,"Deep vs Shallow",1,116,2020-07-08T14:56:57-07:00,5.8137152194977,1,versionA_stim.csv,RLVersionA.csv,"Relational Version A","Relational, read only version A",ORCHID,FLOWER,Study1,F,24,33,Test,User,-,,Recall,Recall1,5223,TOWER,72.727272727273,2450,3382,0,0,,1
5eac2099b273a00513d31d9f,qxc0upwq2z,"Deep vs Shallow",1,117,2020-07-08T14:57:07-07:00,9.9301578998566,1,versionA_stim.csv,RLVersionA.csv,"Relational Version A","Relational, read only version A",LIFT,WOMAN,Study1,U,69,64,Test,User,-,,Recall,Recall1,9583,WOMAN,100,1635,3166,1,1,,1
5eac2099b273a00513d31d9f,qxc0upwq2z,"Deep vs Shallow",1,118,2020-07-08T14:57:19-07:00,12.11280298233,1,versionA_stim.csv,RLVersionA.csv,"Relational Version A","Relational, read only version A",MACHINE,POSITION,Study1,U,76,70,Test,User,-,,Recall,Recall1,11511,POSITION,100,7652,10538,1,1,,1
5eac2099b273a00513d31d9f,qxc0upwq2z,"Deep vs Shallow",1,119,2020-07-08T14:57:48-07:00,29.497225046158,1,versionA_stim.csv,RLVersionA.csv,"Relational Version A","Relational, read only version A",POP,SODA,Study1,S,56,17,Test,User,-,,Recall,Recall1,29107,SODA,100,1838,28061,1,1,,1
5eac2099b273a00513d31d9f,qxc0upwq2z,"Deep vs Shallow",1,120,2020-07-08T14:58:15-07:00,26.392855882645,1,versionA_stim.csv,RLVersionA.csv,"Relational Version A","Relational, read only version A",CLOTHES,ATTIRE,Study1,B,43,10,Test,User,-,,Recall,Recall1,25772,ATTIRE,100,23202,24733,1,1,,1
5eac2099b273a00513d31d9f,qxc0upwq2z,"Deep vs Shallow",1,121,2020-07-08T14:58:26-07:00,11.31299495697,1,versionA_stim.csv,RLVersionA.csv,"Relational Version A","Relational, read only version A",PARK,HUNGRY,Study1,U,68,47,Test,User,-,,Recall,Recall1,10719,HUNGRY,100,5907,6905,1,1,,1
5eac2099b273a00513d31d9f,qxc0upwq2z,"Deep vs Shallow",1,122,2020-07-08T14:58:50-07:00,23.801088094711,1,versionA_stim.csv,RLVersionA.csv,"Relational Version A","Relational, read only version A",TRIAL,JURY,Study1,S,50,69,Test,User,-,,Recall,Recall1,23214,ERROR,22.222222222222,1426,3640,0,0,,1
5eac2099b273a00513d31d9f,qxc0upwq2z,"Deep vs Shallow",1,123,2020-07-08T14:59:20-07:00,29.958678007126,1,versionA_stim.csv,RLVersionA.csv,"Relational Version A","Relational, read only version A",DUE,ASSIGNMENT,Study1,S,46,76,Test,User,-,,Recall,Recall1,29365,DATE,28.571428571429,1902,2530,0,0,,1
5eac2099b273a00513d31d9f,qxc0upwq2z,"Deep vs Shallow",1,124,2020-07-08T15:00:49-07:00,89.711803913116,1,versionA_stim.csv,RLVersionA.csv,"Relational Version A","Relational, read only version A",ALLOW,TUCK,Study1,U,78,84,Test,User,-,,Recall,Recall1,89101,TUCK,100,87282,87954,1,1,,1
5eac2099b273a00513d31d9f,qxc0upwq2z,"Deep vs Shallow",1,125,2020-07-08T15:01:06-07:00,17.180951118469,1,versionA_stim.csv,RLVersionA.csv,"Relational Version A","Relational, read only version A",DIGESTION,STOMACH,Study1,F,7,7,Test,User,-,,Recall,Recall1,16565,STOMACH,100,9505,15544,1,1,,1
5eac2099b273a00513d31d9f,qxc0upwq2z,"Deep vs Shallow",1,126,2020-07-08T15:01:25-07:00,18.728137016296,1,versionA_stim.csv,RLVersionA.csv,"Relational Version A","Relational, read only version A",ARTERY,BRONZE,Study1,U,74,48,Test,User,-,,Recall,Recall1,17137,BRONZE,100,12621,16173,1,1,,1
5eac2099b273a00513d31d9f,qxc0upwq2z,"Deep vs Shallow",1,127,2020-07-08T15:01:58-07:00,32.990107059479,1,versionA_stim.csv,RLVersionA.csv,"Relational Version A","Relational, read only version A",BATHROOM,TOILET,Study1,S,58,35,Test,User,-,,Recall,Recall1,32371,SHOWER,33.333333333333,26750,30733,0,0,,1
5eac2099b273a00513d31d9f,qxc0upwq2z,"Deep vs Shallow",1,128,2020-07-08T15:02:48-07:00,50.003673791885,1,versionA_stim.csv,RLVersionA.csv,"Relational Version A","Relational, read only version A",CREDIT,CARD,Study1,F,23,57,Test,User,-,,Recall,Recall1,49382,WITHDRAW,16.666666666667,36842,46913,0,0,,1
5eac2099b273a00513d31d9f,qxc0upwq2z,"Deep vs Shallow",1,129,2020-07-08T15:03:51-07:00,62.544996023178,1,versionA_stim.csv,RLVersionA.csv,"Relational Version A","Relational, read only version A",DRINK,SIP,Study1,B,27,20,Test,User,-,,Recall,Recall1,61949,JUICE,25,59135,60932,0,0,,1
5eac2099b273a00513d31d9f,qxc0upwq2z,"Deep vs Shallow",1,130,2020-07-08T15:04:06-07:00,15.026086091995,1,versionA_stim.csv,RLVersionA.csv,"Relational Version A","Relational, read only version A",HYGIENE,CLEAN,Study1,F,17,31,Test,User,-,,Recall,Recall1,14422,CLEAN,100,11658,12833,1,1,,1
5eac2099b273a00513d31d9f,qxc0upwq2z,"Deep vs Shallow",1,131,2020-07-08T15:05:32-07:00,85.804100036621,1,versionA_stim.csv,RLVersionA.csv,"Relational Version A","Relational, read only version A",GREAT,FANTASTIC,Study1,B,35,13,Test,User,-,,Recall,Recall1,85208,FANTASTIC,100,59763,76804,1,1,,1
5eac2099b273a00513d31d9f,qxc0upwq2z,"Deep vs Shallow",1,132,2020-07-08T15:05:43-07:00,11.818659067154,1,versionA_stim.csv,RLVersionA.csv,"Relational Version A","Relational, read only version A",KIDNEY,LIVER,Study1,S,53,24,Test,User,-,,Recall,Recall1,10147,LIVER,100,9026,9442,1,1,,1
5eac2099b273a00513d31d9f,qxc0upwq2z,"Deep vs Shallow",1,133,2020-07-08T15:06:13-07:00,30.092365980148,1,versionA_stim.csv,RLVersionA.csv,"Relational Version A","Relational, read only version A",LAW,ATTORNEY,Study1,B,34,56,Test,User,-,,Recall,Recall1,29449,ORDER,46.153846153846,4113,4664,0,0,,1
5eac2099b273a00513d31d9f,qxc0upwq2z,"Deep vs Shallow",1,134,2020-07-08T15:06:24-07:00,10.429293870926,1,versionA_stim.csv,RLVersionA.csv,"Relational Version A","Relational, read only version A",DARK,CAVE,Study1,B,28,79,Test,User,-,,Recall,Recall1,10009,CAVE,100,8886,9226,1,1,,1
5eac2099b273a00513d31d9f,qxc0upwq2z,"Deep vs Shallow",1,135,2020-07-08T15:06:31-07:00,7.0757639408112,1,versionA_stim.csv,RLVersionA.csv,"Relational Version A","Relational, read only version A",PLANE,PILOT,Study1,B,44,32,Test,User,-,,Recall,Recall1,6510,PILOT,100,5062,5785,1,1,,1
5eac2099b273a00513d31d9f,qxc0upwq2z,"Deep vs Shallow",1,136,2020-07-08T15:07:03-07:00,32.157726049423,1,versionA_stim.csv,RLVersionA.csv,"Relational Version A","Relational, read only version A",SLEEP,DROWSY,Study1,B,41,11,Test,User,-,,Recall,Recall1,31761,BED,22.222222222222,27382,27525,0,0,,1
5eac2099b273a00513d31d9f,qxc0upwq2z,"Deep vs Shallow",1,137,2020-07-08T15:07:07-07:00,3.7850999832153,1,versionA_stim.csv,RLVersionA.csv,"Relational Version A","Relational, read only version A",TUNA,FISH,Study1,F,25,72,Test,User,-,,Recall,Recall1,3223,FISH,100,2010,2340,1,1,,1
5eac2099b273a00513d31d9f,qxc0upwq2z,"Deep vs Shallow",1,138,2020-07-08T15:07:33-07:00,26.310347080231,1,versionA_stim.csv,RLVersionA.csv,"Relational Version A","Relational, read only version A",SOON,BELT,Study1,U,70,36,Test,User,-,,Recall,Recall1,25922,LATE,50,24897,25176,0,0,,1
5eac2099b273a00513d31d9f,qxc0upwq2z,"Deep vs Shallow",1,139,2020-07-08T15:07:47-07:00,13.429569959641,1,versionA_stim.csv,RLVersionA.csv,"Relational Version A","Relational, read only version A",SUGAR,RIDDLE,Study1,U,81,26,Test,User,-,,Recall,Recall1,12835,RIDDLE,100,11239,12033,1,1,,1
5eac2099b273a00513d31d9f,qxc0upwq2z,"Deep vs Shallow",1,140,2020-07-08T15:08:00-07:00,12.898371934891,1,versionA_stim.csv,RLVersionA.csv,"Relational Version A","Relational, read only version A",DIETARY,SACKING,Study1,U,67,29,Test,User,-,,Recall,Recall1,12297,SACKING,100,10443,11360,1,1,,1
5eac2099b273a00513d31d9f,qxc0upwq2z,"Deep vs Shallow",1,141,2020-07-08T15:08:51-07:00,51.21911907196,1,versionA_stim.csv,RLVersionA.csv,"Relational Version A","Relational, read only version A",KING,VASE,Study1,U,85,54,Test,User,-,,Recall,Recall1,50614,QUEEN,22.222222222222,42632,49703,0,0,,1
5eac2099b273a00513d31d9f,qxc0upwq2z,"Deep vs Shallow",1,142,2020-07-08T15:09:02-07:00,10.935797929764,1,versionA_stim.csv,RLVersionA.csv,"Relational Version A","Relational, read only version A",HONEY,BEE,Study1,S,63,58,Test,User,-,,Recall,Recall1,10338,BEE,100,1678,1930,1,1,,1
5eac2099b273a00513d31d9f,qxc0upwq2z,"Deep vs Shallow",1,143,2020-07-08T15:09:42-07:00,39.789873123169,1,versionA_stim.csv,RLVersionA.csv,"Relational Version A","Relational, read only version A",GEOLOGY,ROCK,Study1,F,19,18,Test,User,-,,Recall,Recall1,39168,ROCK,100,20294,21531,1,1,,1
5eac2099b273a00513d31d9f,qxc0upwq2z,"Deep vs Shallow",1,144,2020-07-08T15:10:34-07:00,52.042949914932,1,versionA_stim.csv,RLVersionA.csv,"Relational Version A","Relational, read only version A",DELINQUENT,BAD,Study1,F,6,86,Test,User,-,,Recall,Recall1,50429,CRIMINAL,18.181818181818,47638,49549,0,0,,1
5eac2099b273a00513d31d9f,qxc0upwq2z,"Deep vs Shallow",1,145,2020-07-08T15:11:09-07:00,35.467841148376,1,versionA_stim.csv,RLVersionA.csv,"Relational Version A","Relational, read only version A",WINE,CHEESE,Study1,S,57,53,Test,User,-,,Recall,Recall1,34520,CHEESE,100,6454,9978,1,1,,1
5eac2099b273a00513d31d9f,qxc0upwq2z,"Deep vs Shallow",1,146,2020-07-08T15:11:34-07:00,24.572747945786,1,versionA_stim.csv,RLVersionA.csv,"Relational Version A","Relational, read only version A",DEATH,BUSINESS,Study1,U,72,82,Test,User,-,,Recall,Recall1,23732,BUSINESS,100,20487,22684,1,1,,1
5eac2099b273a00513d31d9f,qxc0upwq2z,"Deep vs Shallow",1,147,2020-07-08T15:11:58-07:00,24.199266910553,1,versionA_stim.csv,RLVersionA.csv,"Relational Version A","Relational, read only version A",DUMP,WASTE,Study1,S,49,65,Test,User,-,,Recall,Recall1,23490,YARD,22.222222222222,20802,22222,0,0,,1
5eac2099b273a00513d31d9f,qxc0upwq2z,"Deep vs Shallow",1,148,2020-07-08T15:12:44-07:00,46.343739032745,1,versionA_stim.csv,RLVersionA.csv,"Relational Version A","Relational, read only version A",MEANING,DEFINITION,Study1,S,62,52,Test,User,-,,Recall,Recall1,45747,SIMILAR,23.529411764706,41892,44294,0,0,,1
5eac2099b273a00513d31d9f,qxc0upwq2z,"Deep vs Shallow",1,149,2020-07-08T15:13:11-07:00,26.561132907867,1,versionA_stim.csv,RLVersionA.csv,"Relational Version A","Relational, read only version A",TAKE,SEIZE,Study1,B,29,80,Test,User,-,,Recall,Recall1,25809,SEIZE,100,23132,24810,1,1,,1
5eac2099b273a00513d31d9f,qxc0upwq2z,"Deep vs Shallow",1,150,2020-07-08T15:13:31-07:00,20.196672201157,1,versionA_stim.csv,RLVersionA.csv,"Relational Version A","Relational, read only version A",CHISEL,HAMMER,Study1,F,9,30,Test,User,-,,Recall,Recall1,19377,HAMMER,100,16022,17649,1,1,,1
5eac2099b273a00513d31d9f,qxc0upwq2z,"Deep vs Shallow",1,151,2020-07-08T15:13:49-07:00,18.068266868591,1,versionA_stim.csv,RLVersionA.csv,"Relational Version A","Relational, read only version A",NUMBER,AMOUNT,Study1,S,47,19,Test,User,-,,Recall,Recall1,17417,AMOUNT,100,12153,15997,1,1,,1
5eac2099b273a00513d31d9f,qxc0upwq2z,"Deep vs Shallow",1,152,2020-07-08T15:13:57-07:00,8.3826401233673,1,versionA_stim.csv,RLVersionA.csv,"Relational Version A","Relational, read only version A",WORK,CHORE,Study1,B,39,14,Test,User,-,,Recall,Recall1,7817,CHORE,100,3977,6800,1,1,,1
5eac2099b273a00513d31d9f,qxc0upwq2z,"Deep vs Shallow",1,153,2020-07-08T15:14:10-07:00,12.549501895905,1,versionA_stim.csv,RLVersionA.csv,"Relational Version A","Relational, read only version A",PAST,FUTURE,Study1,S,61,8,Test,User,-,,Recall,Recall1,12159,HUNGRY,33.333333333333,10134,11112,0,0,,1
5eac2099b273a00513d31d9f,qxc0upwq2z,"Deep vs Shallow",1,154,2020-07-08T15:14:40-07:00,30.443557977676,1,versionA_stim.csv,RLVersionA.csv,"Relational Version A","Relational, read only version A",CIRCLE,ROUND,Study1,S,65,40,Test,User,-,,Recall,Recall1,30050,ROUND,100,24044,27693,1,1,,1
5eac2099b273a00513d31d9f,qxc0upwq2z,"Deep vs Shallow",1,155,2020-07-08T15:14:50-07:00,10.112094163895,1,versionA_stim.csv,RLVersionA.csv,"Relational Version A","Relational, read only version A",HOT,CHILI,Study1,B,37,44,Test,User,-,,Recall,Recall1,9490,CHILI,100,6325,8467,1,1,,1
5eac2099b273a00513d31d9f,qxc0upwq2z,"Deep vs Shallow",1,156,2020-07-08T15:15:26-07:00,35.950863838196,1,versionA_stim.csv,RLVersionA.csv,"Relational Version A","Relational, read only version A",BABY,CHILD,Study1,S,64,39,Test,User,-,,Recall,Recall1,34323,INFANT,18.181818181818,4202,6730,0,0,,1
5eac2099b273a00513d31d9f,qxc0upwq2z,"Deep vs Shallow",1,157,2020-07-08T15:15:39-07:00,12.918734073639,1,versionA_stim.csv,RLVersionA.csv,"Relational Version A","Relational, read only version A",CASH,WOULD,Study1,U,83,55,Test,User,-,,Recall,Recall1,12317,WOULD,100,5084,6298,1,1,,1
5eac2099b273a00513d31d9f,qxc0upwq2z,"Deep vs Shallow",1,158,2020-07-08T15:15:48-07:00,8.4936668872833,1,versionA_stim.csv,RLVersionA.csv,"Relational Version A","Relational, read only version A",HEIGHT,GROWTH,Study1,B,30,81,Test,User,-,,Recall,Recall1,7923,GROWTH,100,3212,6686,1,1,,1
5eac2099b273a00513d31d9f,qxc0upwq2z,"Deep vs Shallow",1,159,2020-07-08T15:16:46-07:00,58.397569179535,1,versionA_stim.csv,RLVersionA.csv,"Relational Version A","Relational, read only version A",BALL,RACKET,Study1,B,38,22,Test,User,-,,Recall,Recall1,58015,ROUND,18.181818181818,48284,48919,0,0,,1
5eac2099b273a00513d31d9f,qxc0upwq2z,"Deep vs Shallow",1,160,2020-07-08T15:16:53-07:00,7.1440010070801,1,versionA_stim.csv,RLVersionA.csv,"Relational Version A","Relational, read only version A",ART,LION,Study1,U,79,61,Test,User,-,,Recall,Recall1,6788,LION,100,5444,5836,1,1,,1
5eac2099b273a00513d31d9f,qxc0upwq2z,"Deep vs Shallow",1,161,2020-07-08T15:17:19-07:00,25.70468378067,1,versionA_stim.csv,RLVersionA.csv,"Relational Version A","Relational, read only version A",PAW,DOG,Study1,F,15,78,Test,User,-,,Recall,Recall1,25325,NAIL,0,23588,24429,0,0,,1
5eac2099b273a00513d31d9f,qxc0upwq2z,"Deep vs Shallow",1,162,2020-07-08T15:17:43-07:00,24.119612216949,1,versionA_stim.csv,RLVersionA.csv,"Relational Version A","Relational, read only version A",PUSHER,CLUTTER,Study1,U,66,75,Test,User,-,,Recall,Recall1,23734,CLUTTER,100,19303,20722,1,1,,1
5eac2099b273a00513d31d9f,qxc0upwq2z,"Deep vs Shallow",1,163,2020-07-08T15:18:11-07:00,28.078616857529,1,versionA_stim.csv,RLVersionA.csv,"Relational Version A","Relational, read only version A",DISCUSSION,TALK,Study1,F,21,59,Test,User,-,,Recall,Recall1,27464,TALK,100,25463,26352,1,1,,1
5eac2099b273a00513d31d9f,qxc0upwq2z,"Deep vs Shallow",1,164,2020-07-08T15:18:25-07:00,13.79473900795,1,versionA_stim.csv,RLVersionA.csv,"Relational Version A","Relational, read only version A",KEY,LATCH,Study1,B,36,45,Test,User,-,,Recall,Recall1,13048,LATCH,100,10268,12052,1,1,,1
5eac2099b273a00513d31d9f,qxc0upwq2z,"Deep vs Shallow",1,165,2020-07-08T15:18:47-07:00,22.234064102173,1,versionA_stim.csv,RLVersionA.csv,"Relational Version A","Relational, read only version A",WAGE,MONEY,Study1,F,8,12,Test,User,-,,Recall,Recall1,21620,MONEY,100,1804,20584,1,1,,1
5eac2099b273a00513d31d9f,qxc0upwq2z,"Deep vs Shallow",1,166,2020-07-08T15:18:53-07:00,5.8289539813995,1,versionA_stim.csv,RLVersionA.csv,"Relational Version A","Relational, read only version A",REVOLUTION,WAR,Study1,F,20,68,Test,User,-,,Recall,Recall1,5262,WAR,100,3820,4195,1,1,,1
5eac2099b273a00513d31d9f,qxc0upwq2z,"Deep vs Shallow",1,167,2020-07-08T15:19:52-07:00,59.033061981201,1,versionA_stim.csv,RLVersionA.csv,"Relational Version A","Relational, read only version A",DEBATE,SIGHT,Study1,U,73,49,Test,User,-,,Recall,Recall1,57632,WINNER,18.181818181818,55041,56195,0,0,,1
5eac2099b273a00513d31d9f,qxc0upwq2z,"Deep vs Shallow",1,168,2020-07-08T15:20:24-07:00,31.372616052628,1,versionA_stim.csv,RLVersionA.csv,"Relational Version A","Relational, read only version A",MATH,DIVISION,Study1,B,33,42,Test,User,-,,Recall,Recall1,30951,DIVISON,93.333333333333,27971,30098,0,1,,1
5eac2099b273a00513d31d9f,qxc0upwq2z,"Deep vs Shallow",1,169,2020-07-08T15:20:49-07:00,25.903949022293,1,versionA_stim.csv,RLVersionA.csv,"Relational Version A","Relational, read only version A",HUNGER,FAMINE,Study1,B,40,9,Test,User,-,,Recall,Recall1,25311,FAMINE,100,19470,22505,1,1,,1
5eac2099b273a00513d31d9f,qxc0upwq2z,"Deep vs Shallow",1,170,2020-07-08T15:21:05-07:00,15.587740898132,1,versionA_stim.csv,RLVersionA.csv,"Relational Version A","Relational, read only version A",VALLEY,ADD,Study1,U,82,77,Test,User,-,,Recall,Recall1,14987,ADD,100,13355,13579,1,1,,1
5eac2099b273a00513d31d9f,qxc0upwq2z,"Deep vs Shallow",1,171,2020-07-08T15:21:42-07:00,36.821604967117,1,versionA_stim.csv,RLVersionA.csv,"Relational Version A","Relational, read only version A",BLOW,WIND,Study1,S,55,28,Test,User,-,,Recall,Recall1,36227,WIND,100,33958,35092,1,1,,1
5eac2099b273a00513d31d9f,qxc0upwq2z,"Deep vs Shallow",1,172,2020-07-08T15:22:16-07:00,33.963948965073,1,versionA_stim.csv,RLVersionA.csv,"Relational Version A","Relational, read only version A",BEGIN,END,Study1,S,54,71,Test,User,-,,Recall,Recall1,33359,JOURNEY,20,29470,31873,0,0,,1
5eac2099b273a00513d31d9f,qxc0upwq2z,"Deep vs Shallow",1,173,2020-07-08T15:22:31-07:00,15.302174091339,1,versionA_stim.csv,RLVersionA.csv,"Relational Version A","Relational, read only version A",SHOE,FOOT,Study1,S,60,83,Test,User,-,,Recall,Recall1,14649,FOOT,100,11383,12036,1,1,,1
5eac2099b273a00513d31d9f,qxc0upwq2z,"Deep vs Shallow",1,174,2020-07-08T15:22:58-07:00,26.418791055679,1,versionA_stim.csv,RLVersionA.csv,"Relational Version A","Relational, read only version A",SMELL,STENCH,Study1,B,42,50,Test,User,-,,Recall,Recall1,25816,STENCH,100,21097,24446,1,1,,1
5eac2099b273a00513d31d9f,qxc0upwq2z,"Deep vs Shallow",1,175,2020-07-08T15:23:26-07:00,28.747085809708,1,versionA_stim.csv,RLVersionA.csv,"Relational Version A","Relational, read only version A",HAPPY,CAR,Study1,U,77,46,Test,User,-,,Recall,Recall1,28147,CAR,100,26218,26910,1,1,,1
5eac2099b273a00513d31d9f,qxc0upwq2z,"Deep vs Shallow",1,176,2020-07-08T15:24:35-07:00,69.161063194275,1,versionA_stim.csv,RLVersionA.csv,"Relational Version A","Relational, read only version A",HERD,COW,Study1,F,22,37,Test,User,-,,Recall,Recall1,68301,SHEEP,0,54299,66763,0,0,,0.984
5eac2099b273a00513d31d9f,qxc0upwq2z,"Deep vs Shallow",1,177,2020-07-08T15:25:23-07:00,47.318945884705,1,versionA_stim.csv,RLVersionA.csv,"Relational Version A","Relational, read only version A",SWAN,BIRD,Study1,F,14,67,Test,User,-,,Recall,Recall1,45667,WATER,22.222222222222,43068,44528,0,0,,1
5eac2099b273a00513d31d9f,qxc0upwq2z,"Deep vs Shallow",1,178,2020-07-08T15:25:42-07:00,19.395532131195,1,versionA_stim.csv,RLVersionA.csv,"Relational Version A","Relational, read only version A",FULL,ENOUGH,Study1,B,26,74,Test,User,-,,Recall,Recall1,18785,ENOUGH,100,16482,17771,1,1,,1
5eac2099b273a00513d31d9f,qxc0upwq2z,"Deep vs Shallow",1,179,2020-07-08T15:26:06-07:00,23.406109809875,1,versionA_stim.csv,RLVersionA.csv,"Relational Version A","Relational, read only version A",ROOT,PLANT,Study1,F,13,63,Test,User,-,,Recall,Recall1,22806,PLANT,100,20130,21721,1,1,,1
5eac2099b273a00513d31d9f,qxc0upwq2z,"Deep vs Shallow",1,180,2020-07-08T15:26:24-07:00,18.175840139389,1,versionA_stim.csv,RLVersionA.csv,"Relational Version A","Relational, read only version A",FIX,HAND,Study1,U,75,66,Test,User,-,,Recall,Recall1,17566,HAND,100,15403,16564,1,1,,1
5eac2099b273a00513d31d9f,qxc0upwq2z,"Deep vs Shallow",1,181,2020-07-08T15:26:44-07:00,20.683202028275,1,versionA_stim.csv,RLVersionA.csv,"Relational Version A","Relational, read only version A",,,,,,0,Instruct,-,10,"You will now be presented with a new set of word pairs. Please study each pair. Remember that your memory will be tested! When finished, press Enter to move to the next pair.",Initial_Instruct,Instruct4,20077,,,-1,-1,,,,1
5eac2099b273a00513d31d9f,qxc0upwq2z,"Deep vs Shallow",1,182,2020-07-08T15:27:07-07:00,22.141304016113,1,versionA_stim.csv,RLVersionA.csv,"Relational Version A","Relational, read only version A",,,,,,0,Instruct,-,15,"As you study, please think about how the two concepts are RELATED to each other. For example, if you see the pair TURTLE-CAT, think about how both are alive, they are both animals, and both can be kept as pets.",,Instruct20,21546,,,-1,-1,,,,1
5eac2099b273a00513d31d9f,qxc0upwq2z,"Deep vs Shallow",1,183,2020-07-08T15:28:08-07:00,61.909545898438,1,versionA_stim.csv,RLVersionA.csv,"Relational Version A","Relational, read only version A",,,,,,0,FreeRecall,-,10,"What you should think about as you study each item pair? Type your response in the box below.",,CHECK4,61306,"I have to think that how the given 2 words can be related to each other based on my knowledge gathered from the real-life scenario.",0,4071,58770,0,0,,1
5eac2099b273a00513d31d9f,qxc0upwq2z,"Deep vs Shallow",1,184,2020-07-08T15:28:13-07:00,4.6310589313507,1,versionA_stim.csv,RLVersionA.csv,"Relational Version A","Relational, read only version A",,,,,,0,Instruct,User,-,"Press Enter when you are readty to begin",,Instruct11,4072,,,-1,-1,,,,1
5eac2099b273a00513d31d9f,qxc0upwq2z,"Deep vs Shallow",1,185,2020-07-08T15:28:18-07:00,4.8504390716553,1,versionA_stim.csv,RLVersionA.csv,"Relational Version A","Relational, read only version A",CAMP,ADVENTURE,BUFFER3,Buffer,95,95,Study,User,-,,Study/JOL,BUFFER3,4508,,,-1,-1,,,,1
5eac2099b273a00513d31d9f,qxc0upwq2z,"Deep vs Shallow",1,186,2020-07-08T15:28:21-07:00,2.8552010059357,1,versionA_stim.csv,RLVersionA.csv,"Relational Version A","Relational, read only version A",ICE,FROZEN,BUFFER3,Buffer,94,93,Study,User,-,,Study/JOL,BUFFER3,2509,,,-1,-1,,,,1
5eac2099b273a00513d31d9f,qxc0upwq2z,"Deep vs Shallow",1,187,2020-07-08T15:28:23-07:00,2.6592628955841,1,versionA_stim.csv,RLVersionA.csv,"Relational Version A","Relational, read only version A",SHRIMP,FISH,BUFFER3,Buffer,93,96,Study,User,-,,Study/JOL,BUFFER3,2320,,,-1,-1,,,,1
5eac2099b273a00513d31d9f,qxc0upwq2z,"Deep vs Shallow",1,188,2020-07-08T15:28:27-07:00,3.5930690765381,1,versionA_stim.csv,RLVersionA.csv,"Relational Version A","Relational, read only version A",CARROT,POTATO,BUFFER3,Buffer,91,92,Study,User,-,,Study/JOL,BUFFER3,3264,,,-1,-1,,,,1
5eac2099b273a00513d31d9f,qxc0upwq2z,"Deep vs Shallow",1,189,2020-07-08T15:28:31-07:00,3.6234180927277,1,versionA_stim.csv,RLVersionA.csv,"Relational Version A","Relational, read only version A",NOODLE,STRING,BUFFER3,Buffer,92,94,Study,User,-,,Study/JOL,BUFFER3,3274,,,-1,-1,,,,1
5eac2099b273a00513d31d9f,qxc0upwq2z,"Deep vs Shallow",1,190,2020-07-08T15:28:33-07:00,2.7697939872742,1,versionA_stim.csv,RLVersionA.csv,"Relational Version A","Relational, read only version A",INCENSE,SMELL,Study2,F,110,172,Study,User,-,,Study/JOL,"Study Phase2",2434,,,-1,-1,,,,1
5eac2099b273a00513d31d9f,qxc0upwq2z,"Deep vs Shallow",1,191,2020-07-08T15:28:36-07:00,2.176570892334,1,versionA_stim.csv,RLVersionA.csv,"Relational Version A","Relational, read only version A",THREAD,THIMBLE,Study2,B,121,155,Study,User,-,,Study/JOL,"Study Phase2",1830,,,-1,-1,,,,1
5eac2099b273a00513d31d9f,qxc0upwq2z,"Deep vs Shallow",1,192,2020-07-08T15:28:38-07:00,2.2649450302124,1,versionA_stim.csv,RLVersionA.csv,"Relational Version A","Relational, read only version A",ADJOURN,END,Study2,F,101,130,Study,User,-,,Study/JOL,"Study Phase2",1887,,,-1,-1,,,,1
5eac2099b273a00513d31d9f,qxc0upwq2z,"Deep vs Shallow",1,193,2020-07-08T15:28:40-07:00,2.1665661334991,1,versionA_stim.csv,RLVersionA.csv,"Relational Version A","Relational, read only version A",LOUD,NOISE,Study2,S,152,142,Study,User,-,,Study/JOL,"Study Phase2",1813,,,-1,-1,,,,1
5eac2099b273a00513d31d9f,qxc0upwq2z,"Deep vs Shallow",1,194,2020-07-08T15:28:42-07:00,1.7363409996033,1,versionA_stim.csv,RLVersionA.csv,"Relational Version A","Relational, read only version A",EVEN,REVENGE,Study2,B,122,127,Study,User,-,,Study/JOL,"Study Phase2",1407,,,-1,-1,,,,1
5eac2099b273a00513d31d9f,qxc0upwq2z,"Deep vs Shallow",1,195,2020-07-08T15:28:45-07:00,3.359493970871,1,versionA_stim.csv,RLVersionA.csv,"Relational Version A","Relational, read only version A",LEASE,TOIL,Study2,U,170,171,Study,User,-,,Study/JOL,"Study Phase2",2026,,,-1,-1,,,,1
5eac2099b273a00513d31d9f,qxc0upwq2z,"Deep vs Shallow",1,196,2020-07-08T15:28:47-07:00,1.8241419792175,1,versionA_stim.csv,RLVersionA.csv,"Relational Version A","Relational, read only version A",TURN,FLIP,Study2,B,116,164,Study,User,-,,Study/JOL,"Study Phase2",1439,,,-1,-1,,,,1
5eac2099b273a00513d31d9f,qxc0upwq2z,"Deep vs Shallow",1,197,2020-07-08T15:28:49-07:00,1.8178088665009,1,versionA_stim.csv,RLVersionA.csv,"Relational Version A","Relational, read only version A",SLEEP,NAP,Study2,B,134,140,Study,User,-,,Study/JOL,"Study Phase2",1479,,,-1,-1,,,,1
5eac2099b273a00513d31d9f,qxc0upwq2z,"Deep vs Shallow",1,198,2020-07-08T15:28:51-07:00,1.8234541416168,1,versionA_stim.csv,RLVersionA.csv,"Relational Version A","Relational, read only version A",FRUIT,STRAWBERRY,Study2,B,124,137,Study,User,-,,Study/JOL,"Study Phase2",1494,,,-1,-1,,,,1
5eac2099b273a00513d31d9f,qxc0upwq2z,"Deep vs Shallow",1,199,2020-07-08T15:28:53-07:00,1.9400718212128,1,versionA_stim.csv,RLVersionA.csv,"Relational Version A","Relational, read only version A",CRACKLE,ABLE,Study2,U,162,115,Study,User,-,,Study/JOL,"Study Phase2",1609,,,-1,-1,,,,1
5eac2099b273a00513d31d9f,qxc0upwq2z,"Deep vs Shallow",1,200,2020-07-08T15:28:56-07:00,3.8902060985565,1,versionA_stim.csv,RLVersionA.csv,"Relational Version A","Relational, read only version A",BASEBALL,LEAGUE,Study2,B,131,133,Study,User,-,,Study/JOL,"Study Phase2",3524,,,-1,-1,,,,1
5eac2099b273a00513d31d9f,qxc0upwq2z,"Deep vs Shallow",1,201,2020-07-08T15:28:58-07:00,1.8255689144135,1,versionA_stim.csv,RLVersionA.csv,"Relational Version A","Relational, read only version A",BIRD,PENGUIN,Study2,B,119,129,Study,User,-,,Study/JOL,"Study Phase2",1490,,,-1,-1,,,,1
5eac2099b273a00513d31d9f,qxc0upwq2z,"Deep vs Shallow",1,202,2020-07-08T15:29:00-07:00,2.2011032104492,1,versionA_stim.csv,RLVersionA.csv,"Relational Version A","Relational, read only version A",STRETCH,CLOTH,Study2,U,157,160,Study,User,-,,Study/JOL,"Study Phase2",1845,,,-1,-1,,,,1
5eac2099b273a00513d31d9f,qxc0upwq2z,"Deep vs Shallow",1,203,2020-07-08T15:29:02-07:00,1.9608809947968,1,versionA_stim.csv,RLVersionA.csv,"Relational Version A","Relational, read only version A",LOAN,SIGN,Study2,U,171,161,Study,User,-,,Study/JOL,"Study Phase2",1624,,,-1,-1,,,,1
5eac2099b273a00513d31d9f,qxc0upwq2z,"Deep vs Shallow",1,204,2020-07-08T15:29:05-07:00,2.0838668346405,1,versionA_stim.csv,RLVersionA.csv,"Relational Version A","Relational, read only version A",WATER,DRINK,Study2,S,143,100,Study,User,-,,Study/JOL,"Study Phase2",1732,,,-1,-1,,,,1
5eac2099b273a00513d31d9f,qxc0upwq2z,"Deep vs Shallow",1,205,2020-07-08T15:29:06-07:00,1.9556560516357,1,versionA_stim.csv,RLVersionA.csv,"Relational Version A","Relational, read only version A",MAZE,ELECTION,Study2,U,159,123,Study,User,-,,Study/JOL,"Study Phase2",1619,,,-1,-1,,,,1
5eac2099b273a00513d31d9f,qxc0upwq2z,"Deep vs Shallow",1,206,2020-07-08T15:29:08-07:00,1.8910489082336,1,versionA_stim.csv,RLVersionA.csv,"Relational Version A","Relational, read only version A",MOAT,CLEAR,Study2,U,169,159,Study,User,-,,Study/JOL,"Study Phase2",1563,,,-1,-1,,,,1
5eac2099b273a00513d31d9f,qxc0upwq2z,"Deep vs Shallow",1,207,2020-07-08T15:29:13-07:00,4.7538781166077,1,versionA_stim.csv,RLVersionA.csv,"Relational Version A","Relational, read only version A",CANDLE,WAX,Study2,S,139,121,Study,User,-,,Study/JOL,"Study Phase2",4379,,,-1,-1,,,,1
5eac2099b273a00513d31d9f,qxc0upwq2z,"Deep vs Shallow",1,208,2020-07-08T15:29:15-07:00,1.5712900161743,1,versionA_stim.csv,RLVersionA.csv,"Relational Version A","Relational, read only version A",FEUD,FIGHT,Study2,F,113,175,Study,User,-,,Study/JOL,"Study Phase2",1231,,,-1,-1,,,,1
5eac2099b273a00513d31d9f,qxc0upwq2z,"Deep vs Shallow",1,209,2020-07-08T15:29:16-07:00,1.4844169616699,1,versionA_stim.csv,RLVersionA.csv,"Relational Version A","Relational, read only version A",FUZZY,BANG,Study2,U,168,116,Study,User,-,,Study/JOL,"Study Phase2",1144,,,-1,-1,,,,1
5eac2099b273a00513d31d9f,qxc0upwq2z,"Deep vs Shallow",1,210,2020-07-08T15:29:18-07:00,1.7685830593109,1,versionA_stim.csv,RLVersionA.csv,"Relational Version A","Relational, read only version A",CLUE,GAME,Study2,F,97,139,Study,User,-,,Study/JOL,"Study Phase2",1418,,,-1,-1,,,,1
5eac2099b273a00513d31d9f,qxc0upwq2z,"Deep vs Shallow",1,211,2020-07-08T15:29:21-07:00,2.7234008312225,1,versionA_stim.csv,RLVersionA.csv,"Relational Version A","Relational, read only version A",JUSTICE,MAROON,Study2,U,156,105,Study,User,-,,Study/JOL,"Study Phase2",1368,,,-1,-1,,,,1
5eac2099b273a00513d31d9f,qxc0upwq2z,"Deep vs Shallow",1,212,2020-07-08T15:29:25-07:00,3.9164152145386,1,versionA_stim.csv,RLVersionA.csv,"Relational Version A","Relational, read only version A",MULE,DONKEY,Study2,F,108,169,Study,User,-,,Study/JOL,"Study Phase2",2428,,,-1,-1,,,,1
5eac2099b273a00513d31d9f,qxc0upwq2z,"Deep vs Shallow",1,213,2020-07-08T15:30:45-07:00,80.573504924774,1,versionA_stim.csv,RLVersionA.csv,"Relational Version A","Relational, read only version A",SUN,TAN,Study2,S,155,102,Study,User,-,,Study/JOL,"Study Phase2",80204,,,-1,-1,,,,1
5eac2099b273a00513d31d9f,qxc0upwq2z,"Deep vs Shallow",1,214,2020-07-08T15:30:47-07:00,1.5591690540314,1,versionA_stim.csv,RLVersionA.csv,"Relational Version A","Relational, read only version A",SHEARS,SCISSORS,Study2,F,112,108,Study,User,-,,Study/JOL,"Study Phase2",1213,,,-1,-1,,,,1
5eac2099b273a00513d31d9f,qxc0upwq2z,"Deep vs Shallow",1,215,2020-07-08T15:30:51-07:00,4.2096109390259,1,versionA_stim.csv,RLVersionA.csv,"Relational Version A","Relational, read only version A",STAR,ACTRESS,Study2,B,120,135,Study,User,-,,Study/JOL,"Study Phase2",3868,,,-1,-1,,,,1
5eac2099b273a00513d31d9f,qxc0upwq2z,"Deep vs Shallow",1,216,2020-07-08T15:30:53-07:00,1.6875689029694,1,versionA_stim.csv,RLVersionA.csv,"Relational Version A","Relational, read only version A",OWN,HAVE,Study2,S,153,168,Study,User,-,,Study/JOL,"Study Phase2",1335,,,-1,-1,,,,1
5eac2099b273a00513d31d9f,qxc0upwq2z,"Deep vs Shallow",1,217,2020-07-08T15:30:54-07:00,1.2786331176758,1,versionA_stim.csv,RLVersionA.csv,"Relational Version A","Relational, read only version A",BEST,FAVORITE,Study2,B,125,173,Study,User,-,,Study/JOL,"Study Phase2",930,,,-1,-1,,,,1
5eac2099b273a00513d31d9f,qxc0upwq2z,"Deep vs Shallow",1,218,2020-07-08T15:30:55-07:00,1.4148318767548,1,versionA_stim.csv,RLVersionA.csv,"Relational Version A","Relational, read only version A",MONEY,BANKER,Study2,B,132,106,Study,User,-,,Study/JOL,"Study Phase2",1058,,,-1,-1,,,,1
5eac2099b273a00513d31d9f,qxc0upwq2z,"Deep vs Shallow",1,219,2020-07-08T15:30:57-07:00,1.4824740886688,1,versionA_stim.csv,RLVersionA.csv,"Relational Version A","Relational, read only version A",PHONE,COMMUNICATION,Study2,S,149,113,Study,User,-,,Study/JOL,"Study Phase2",1123,,,-1,-1,,,,1
5eac2099b273a00513d31d9f,qxc0upwq2z,"Deep vs Shallow",1,220,2020-07-08T15:30:58-07:00,1.5106539726257,1,versionA_stim.csv,RLVersionA.csv,"Relational Version A","Relational, read only version A",NAME,HATE,Study2,U,167,114,Study,User,-,,Study/JOL,"Study Phase2",1163,,,-1,-1,,,,1
5eac2099b273a00513d31d9f,qxc0upwq2z,"Deep vs Shallow",1,221,2020-07-08T15:31:00-07:00,1.2804110050201,1,versionA_stim.csv,RLVersionA.csv,"Relational Version A","Relational, read only version A",GONE,AWAY,Study2,S,142,136,Study,User,-,,Study/JOL,"Study Phase2",934,,,-1,-1,,,,1
5eac2099b273a00513d31d9f,qxc0upwq2z,"Deep vs Shallow",1,222,2020-07-08T15:31:01-07:00,1.3746619224548,1,versionA_stim.csv,RLVersionA.csv,"Relational Version A","Relational, read only version A",CAT,PANTHER,Study2,B,126,165,Study,User,-,,Study/JOL,"Study Phase2",1034,,,-1,-1,,,,1
5eac2099b273a00513d31d9f,qxc0upwq2z,"Deep vs Shallow",1,223,2020-07-08T15:31:02-07:00,1.3052279949188,1,versionA_stim.csv,RLVersionA.csv,"Relational Version A","Relational, read only version A",CACTUS,PLANT,Study2,F,98,109,Study,User,-,,Study/JOL,"Study Phase2",960,,,-1,-1,,,,1
5eac2099b273a00513d31d9f,qxc0upwq2z,"Deep vs Shallow",1,224,2020-07-08T15:32:44-07:00,101.38503503799,1,versionA_stim.csv,RLVersionA.csv,"Relational Version A","Relational, read only version A",,,,,,0,Instruct,-,3,"Remember to focus on how the two items are similiar while you study!",,CHECK5,101001,,,-1,-1,,,,1
5eac2099b273a00513d31d9f,qxc0upwq2z,"Deep vs Shallow",1,225,2020-07-08T15:32:54-07:00,10.435801029205,1,versionA_stim.csv,RLVersionA.csv,"Relational Version A","Relational, read only version A",DEAD,COFFIN,Study2,B,128,99,Study,User,-,,Study/JOL,"Study Phase2",9842,,,-1,-1,,,,1
5eac2099b273a00513d31d9f,qxc0upwq2z,"Deep vs Shallow",1,226,2020-07-08T15:32:56-07:00,1.6993269920349,1,versionA_stim.csv,RLVersionA.csv,"Relational Version A","Relational, read only version A",MIRROR,CHILDREN,Study2,U,174,97,Study,User,-,,Study/JOL,"Study Phase2",1145,,,-1,-1,,,,1
5eac2099b273a00513d31d9f,qxc0upwq2z,"Deep vs Shallow",1,227,2020-07-08T15:32:57-07:00,1.5025849342346,1,versionA_stim.csv,RLVersionA.csv,"Relational Version A","Relational, read only version A",CHOP,CUT,Study2,F,107,149,Study,User,-,,Study/JOL,"Study Phase2",1168,,,-1,-1,,,,1
5eac2099b273a00513d31d9f,qxc0upwq2z,"Deep vs Shallow",1,228,2020-07-08T15:32:59-07:00,1.4824590682983,1,versionA_stim.csv,RLVersionA.csv,"Relational Version A","Relational, read only version A",EARTH,GROUND,Study2,S,144,103,Study,User,-,,Study/JOL,"Study Phase2",1146,,,-1,-1,,,,1
5eac2099b273a00513d31d9f,qxc0upwq2z,"Deep vs Shallow",1,229,2020-07-08T15:33:01-07:00,1.9845070838928,1,versionA_stim.csv,RLVersionA.csv,"Relational Version A","Relational, read only version A",VEHICLE,CHARM,Study2,U,160,176,Study,User,-,,Study/JOL,"Study Phase2",1652,,,-1,-1,,,,1
5eac2099b273a00513d31d9f,qxc0upwq2z,"Deep vs Shallow",1,230,2020-07-08T15:33:02-07:00,1.4652729034424,1,versionA_stim.csv,RLVersionA.csv,"Relational Version A","Relational, read only version A",ROD,REEL,Study2,S,150,174,Study,User,-,,Study/JOL,"Study Phase2",1130,,,-1,-1,,,,1
5eac2099b273a00513d31d9f,qxc0upwq2z,"Deep vs Shallow",1,231,2020-07-08T15:33:05-07:00,2.6428141593933,1,versionA_stim.csv,RLVersionA.csv,"Relational Version A","Relational, read only version A",CHERRY,RED,Study2,F,104,126,Study,User,-,,Study/JOL,"Study Phase2",1242,,,-1,-1,,,,1
5eac2099b273a00513d31d9f,qxc0upwq2z,"Deep vs Shallow",1,232,2020-07-08T15:33:07-07:00,1.8080129623413,1,versionA_stim.csv,RLVersionA.csv,"Relational Version A","Relational, read only version A",ALONE,LONELY,Study2,S,145,107,Study,User,-,,Study/JOL,"Study Phase2",1464,,,-1,-1,,,,1
5eac2099b273a00513d31d9f,qxc0upwq2z,"Deep vs Shallow",1,233,2020-07-08T15:33:08-07:00,1.4829578399658,1,versionA_stim.csv,RLVersionA.csv,"Relational Version A","Relational, read only version A",MASON,JAR,Study2,S,138,158,Study,User,-,,Study/JOL,"Study Phase2",1141,,,-1,-1,,,,1
5eac2099b273a00513d31d9f,qxc0upwq2z,"Deep vs Shallow",1,234,2020-07-08T15:33:10-07:00,1.9675719738007,1,versionA_stim.csv,RLVersionA.csv,"Relational Version A","Relational, read only version A",POP,BALLOON,Study2,B,123,153,Study,User,-,,Study/JOL,"Study Phase2",1610,,,-1,-1,,,,1
5eac2099b273a00513d31d9f,qxc0upwq2z,"Deep vs Shallow",1,235,2020-07-08T15:33:12-07:00,1.6641261577606,1,versionA_stim.csv,RLVersionA.csv,"Relational Version A","Relational, read only version A",BAD,VILLAIN,Study2,B,118,150,Study,User,-,,Study/JOL,"Study Phase2",1077,,,-1,-1,,,,1
5eac2099b273a00513d31d9f,qxc0upwq2z,"Deep vs Shallow",1,236,2020-07-08T15:33:14-07:00,2.1524569988251,1,versionA_stim.csv,RLVersionA.csv,"Relational Version A","Relational, read only version A",GIVE,STEAK,Study2,U,158,125,Study,User,-,,Study/JOL,"Study Phase2",1627,,,-1,-1,,,,1
5eac2099b273a00513d31d9f,qxc0upwq2z,"Deep vs Shallow",1,237,2020-07-08T15:33:15-07:00,1.5310459136963,1,versionA_stim.csv,RLVersionA.csv,"Relational Version A","Relational, read only version A",DOCUMENT,PAPER,Study2,F,109,104,Study,User,-,,Study/JOL,"Study Phase2",1184,,,-1,-1,,,,1
5eac2099b273a00513d31d9f,qxc0upwq2z,"Deep vs Shallow",1,238,2020-07-08T15:33:17-07:00,1.6430230140686,1,versionA_stim.csv,RLVersionA.csv,"Relational Version A","Relational, read only version A",FLEA,TICK,Study2,S,151,98,Study,User,-,,Study/JOL,"Study Phase2",1297,,,-1,-1,,,,1
5eac2099b273a00513d31d9f,qxc0upwq2z,"Deep vs Shallow",1,239,2020-07-08T15:33:19-07:00,1.5459530353546,1,versionA_stim.csv,RLVersionA.csv,"Relational Version A","Relational, read only version A",DRIVER,CAR,Study2,F,106,145,Study,User,-,,Study/JOL,"Study Phase2",1205,,,-1,-1,,,,1
5eac2099b273a00513d31d9f,qxc0upwq2z,"Deep vs Shallow",1,240,2020-07-08T15:33:20-07:00,1.4207599163055,1,versionA_stim.csv,RLVersionA.csv,"Relational Version A","Relational, read only version A",CHILL,COLD,Study2,F,114,141,Study,User,-,,Study/JOL,"Study Phase2",1081,,,-1,-1,,,,1
5eac2099b273a00513d31d9f,qxc0upwq2z,"Deep vs Shallow",1,241,2020-07-08T15:33:21-07:00,1.4011001586914,1,versionA_stim.csv,RLVersionA.csv,"Relational Version A","Relational, read only version A",KEYS,JOKE,Study2,U,165,162,Study,User,-,,Study/JOL,"Study Phase2",1044,,,-1,-1,,,,1
5eac2099b273a00513d31d9f,qxc0upwq2z,"Deep vs Shallow",1,242,2020-07-08T15:33:23-07:00,1.4213378429413,1,versionA_stim.csv,RLVersionA.csv,"Relational Version A","Relational, read only version A",CAKE,CLOTHES,Study2,U,166,154,Study,User,-,,Study/JOL,"Study Phase2",1084,,,-1,-1,,,,1
5eac2099b273a00513d31d9f,qxc0upwq2z,"Deep vs Shallow",1,243,2020-07-08T15:33:27-07:00,3.7319550514221,1,versionA_stim.csv,RLVersionA.csv,"Relational Version A","Relational, read only version A",SCALP,HEAD,Study2,F,105,146,Study,User,-,,Study/JOL,"Study Phase2",3334,,,-1,-1,,,,1
5eac2099b273a00513d31d9f,qxc0upwq2z,"Deep vs Shallow",1,244,2020-07-08T15:33:29-07:00,2.2880320549011,1,versionA_stim.csv,RLVersionA.csv,"Relational Version A","Relational, read only version A",GLASS,BREAKABLE,Study2,B,127,170,Study,User,-,,Study/JOL,"Study Phase2",1106,,,-1,-1,,,,1
5eac2099b273a00513d31d9f,qxc0upwq2z,"Deep vs Shallow",1,245,2020-07-08T15:33:31-07:00,1.6179530620575,1,versionA_stim.csv,RLVersionA.csv,"Relational Version A","Relational, read only version A",WRIST,BRACELET,Study2,S,140,167,Study,User,-,,Study/JOL,"Study Phase2",1258,,,-1,-1,,,,1
5eac2099b273a00513d31d9f,qxc0upwq2z,"Deep vs Shallow",1,246,2020-07-08T15:33:32-07:00,1.5410358905792,1,versionA_stim.csv,RLVersionA.csv,"Relational Version A","Relational, read only version A",AFFECTION,LOVE,Study2,F,115,120,Study,User,-,,Study/JOL,"Study Phase2",1189,,,-1,-1,,,,1
5eac2099b273a00513d31d9f,qxc0upwq2z,"Deep vs Shallow",1,247,2020-07-08T15:33:34-07:00,1.7362899780273,1,versionA_stim.csv,RLVersionA.csv,"Relational Version A","Relational, read only version A",SHOELACE,TIE,Study2,F,99,166,Study,User,-,,Study/JOL,"Study Phase2",1378,,,-1,-1,,,,1
5eac2099b273a00513d31d9f,qxc0upwq2z,"Deep vs Shallow",1,248,2020-07-08T15:33:35-07:00,1.528058052063,1,versionA_stim.csv,RLVersionA.csv,"Relational Version A","Relational, read only version A",HONEST,TRUTHFUL,Study2,B,133,118,Study,User,-,,Study/JOL,"Study Phase2",1175,,,-1,-1,,,,1
5eac2099b273a00513d31d9f,qxc0upwq2z,"Deep vs Shallow",1,249,2020-07-08T15:33:37-07:00,1.4122738838196,1,versionA_stim.csv,RLVersionA.csv,"Relational Version A","Relational, read only version A",BOTH,OUNCE,Study2,U,172,124,Study,User,-,,Study/JOL,"Study Phase2",1057,,,-1,-1,,,,1
5eac2099b273a00513d31d9f,qxc0upwq2z,"Deep vs Shallow",1,250,2020-07-08T15:33:38-07:00,1.4041681289673,1,versionA_stim.csv,RLVersionA.csv,"Relational Version A","Relational, read only version A",TANTRUM,TEMPER,Study2,S,154,138,Study,User,-,,Study/JOL,"Study Phase2",1051,,,-1,-1,,,,1
5eac2099b273a00513d31d9f,qxc0upwq2z,"Deep vs Shallow",1,251,2020-07-08T15:33:40-07:00,1.6565959453583,1,versionA_stim.csv,RLVersionA.csv,"Relational Version A","Relational, read only version A",DETECTIVE,MYSTERY,Study2,F,100,134,Study,User,-,,Study/JOL,"Study Phase2",1305,,,-1,-1,,,,1
5eac2099b273a00513d31d9f,qxc0upwq2z,"Deep vs Shallow",1,252,2020-07-08T15:33:41-07:00,1.4215531349182,1,versionA_stim.csv,RLVersionA.csv,"Relational Version A","Relational, read only version A",DINE,EAT,Study2,F,111,110,Study,User,-,,Study/JOL,"Study Phase2",1071,,,-1,-1,,,,1
5eac2099b273a00513d31d9f,qxc0upwq2z,"Deep vs Shallow",1,253,2020-07-08T15:33:43-07:00,1.3834729194641,1,versionA_stim.csv,RLVersionA.csv,"Relational Version A","Relational, read only version A",ELEMENT,CARBON,Study2,S,141,132,Study,User,-,,Study/JOL,"Study Phase2",1026,,,-1,-1,,,,1
5eac2099b273a00513d31d9f,qxc0upwq2z,"Deep vs Shallow",1,254,2020-07-08T15:33:44-07:00,1.4447429180145,1,versionA_stim.csv,RLVersionA.csv,"Relational Version A","Relational, read only version A",MEAT,OBTAIN,Study2,U,161,156,Study,User,-,,Study/JOL,"Study Phase2",1093,,,-1,-1,,,,1
5eac2099b273a00513d31d9f,qxc0upwq2z,"Deep vs Shallow",1,255,2020-07-08T15:33:46-07:00,1.4947400093079,1,versionA_stim.csv,RLVersionA.csv,"Relational Version A","Relational, read only version A",EXTENSION,LONG,Study2,F,96,147,Study,User,-,,Study/JOL,"Study Phase2",1145,,,-1,-1,,,,1
5eac2099b273a00513d31d9f,qxc0upwq2z,"Deep vs Shallow",1,256,2020-07-08T15:33:47-07:00,1.3708980083466,1,versionA_stim.csv,RLVersionA.csv,"Relational Version A","Relational, read only version A",FISH,SARDINE,Study2,B,130,157,Study,User,-,,Study/JOL,"Study Phase2",1026,,,-1,-1,,,,1
5eac2099b273a00513d31d9f,qxc0upwq2z,"Deep vs Shallow",1,257,2020-07-08T15:33:48-07:00,1.3890030384064,1,versionA_stim.csv,RLVersionA.csv,"Relational Version A","Relational, read only version A",RAZOR,SHAVE,Study2,S,136,151,Study,User,-,,Study/JOL,"Study Phase2",1038,,,-1,-1,,,,1
5eac2099b273a00513d31d9f,qxc0upwq2z,"Deep vs Shallow",1,258,2020-07-08T15:33:51-07:00,3.0050859451294,1,versionA_stim.csv,RLVersionA.csv,"Relational Version A","Relational, read only version A",LISTEN,FICTION,Study2,U,164,101,Study,User,-,,Study/JOL,"Study Phase2",2619,,,-1,-1,,,,1
5eac2099b273a00513d31d9f,qxc0upwq2z,"Deep vs Shallow",1,259,2020-07-08T15:33:53-07:00,1.2662391662598,1,versionA_stim.csv,RLVersionA.csv,"Relational Version A","Relational, read only version A",SAFETY,SEATBELT,Study2,S,147,128,Study,User,-,,Study/JOL,"Study Phase2",919,,,-1,-1,,,,1
5eac2099b273a00513d31d9f,qxc0upwq2z,"Deep vs Shallow",1,260,2020-07-08T15:33:54-07:00,1.3280158042908,1,versionA_stim.csv,RLVersionA.csv,"Relational Version A","Relational, read only version A",LITTER,TRASH,Study2,F,103,163,Study,User,-,,Study/JOL,"Study Phase2",991,,,-1,-1,,,,1
5eac2099b273a00513d31d9f,qxc0upwq2z,"Deep vs Shallow",1,261,2020-07-08T15:33:55-07:00,1.3480870723724,1,versionA_stim.csv,RLVersionA.csv,"Relational Version A","Relational, read only version A",Shell,SHAKE,Study2,U,163,112,Study,User,-,,Study/JOL,"Study Phase2",999,,,-1,-1,,,,1
5eac2099b273a00513d31d9f,qxc0upwq2z,"Deep vs Shallow",1,262,2020-07-08T15:33:57-07:00,1.3946959972382,1,versionA_stim.csv,RLVersionA.csv,"Relational Version A","Relational, read only version A",PLANE,AIRCRAFT,Study2,B,129,122,Study,User,-,,Study/JOL,"Study Phase2",1055,,,-1,-1,,,,1
5eac2099b273a00513d31d9f,qxc0upwq2z,"Deep vs Shallow",1,263,2020-07-08T15:33:58-07:00,1.633013010025,1,versionA_stim.csv,RLVersionA.csv,"Relational Version A","Relational, read only version A",FIGHT,BRAWL,Study2,B,135,152,Study,User,-,,Study/JOL,"Study Phase2",1283,,,-1,-1,,,,1
5eac2099b273a00513d31d9f,qxc0upwq2z,"Deep vs Shallow",1,264,2020-07-08T15:34:00-07:00,1.3133809566498,1,versionA_stim.csv,RLVersionA.csv,"Relational Version A","Relational, read only version A",CAR,WINDSHIELD,Study2,B,117,148,Study,User,-,,Study/JOL,"Study Phase2",939,,,-1,-1,,,,1
5eac2099b273a00513d31d9f,qxc0upwq2z,"Deep vs Shallow",1,265,2020-07-08T15:34:01-07:00,1.3661530017853,1,versionA_stim.csv,RLVersionA.csv,"Relational Version A","Relational, read only version A",DRY,WET,Study2,S,146,111,Study,User,-,,Study/JOL,"Study Phase2",1022,,,-1,-1,,,,1
5eac2099b273a00513d31d9f,qxc0upwq2z,"Deep vs Shallow",1,266,2020-07-08T15:34:02-07:00,1.4647541046143,1,versionA_stim.csv,RLVersionA.csv,"Relational Version A","Relational, read only version A",FURRY,DOG,Study2,F,102,131,Study,User,-,,Study/JOL,"Study Phase2",1120,,,-1,-1,,,,1
5eac2099b273a00513d31d9f,qxc0upwq2z,"Deep vs Shallow",1,267,2020-07-08T15:34:04-07:00,1.3009300231934,1,versionA_stim.csv,RLVersionA.csv,"Relational Version A","Relational, read only version A",TRUTH,LIE,Study2,S,148,144,Study,User,-,,Study/JOL,"Study Phase2",950,,,-1,-1,,,,1
5eac2099b273a00513d31d9f,qxc0upwq2z,"Deep vs Shallow",1,268,2020-07-08T15:34:05-07:00,1.4747648239136,1,versionA_stim.csv,RLVersionA.csv,"Relational Version A","Relational, read only version A",TEMPERATURE,Morning,Study2,U,173,117,Study,User,-,,Study/JOL,"Study Phase2",1136,,,-1,-1,,,,1
5eac2099b273a00513d31d9f,qxc0upwq2z,"Deep vs Shallow",1,269,2020-07-08T15:34:06-07:00,1.2499961853027,1,versionA_stim.csv,RLVersionA.csv,"Relational Version A","Relational, read only version A",MAIN,SCAR,Study2,U,175,119,Study,User,-,,Study/JOL,"Study Phase2",904,,,-1,-1,,,,1
5eac2099b273a00513d31d9f,qxc0upwq2z,"Deep vs Shallow",1,270,2020-07-08T15:34:08-07:00,1.488303899765,1,versionA_stim.csv,RLVersionA.csv,"Relational Version A","Relational, read only version A",RIGHTS,EQUAL,Study2,S,137,143,Study,User,-,,Study/JOL,"Study Phase2",1141,,,-1,-1,,,,1
5eac2099b273a00513d31d9f,qxc0upwq2z,"Deep vs Shallow",1,271,2020-07-08T15:34:10-07:00,2.0413339138031,1,versionA_stim.csv,RLVersionA.csv,"Relational Version A","Relational, read only version A",SPRING,MARCH,BUFFER4,Buffer,179,177,Study,User,-,,Study/JOL,BUFFER4,1694,,,-1,-1,,,,1
5eac2099b273a00513d31d9f,qxc0upwq2z,"Deep vs Shallow",1,272,2020-07-08T15:34:11-07:00,1.4792761802673,1,versionA_stim.csv,RLVersionA.csv,"Relational Version A","Relational, read only version A",TOOL,SHED,BUFFER4,Buffer,178,180,Study,User,-,,Study/JOL,BUFFER4,1135,,,-1,-1,,,,1
5eac2099b273a00513d31d9f,qxc0upwq2z,"Deep vs Shallow",1,273,2020-07-08T15:34:13-07:00,1.3356938362122,1,versionA_stim.csv,RLVersionA.csv,"Relational Version A","Relational, read only version A",MONTH,YEAR,BUFFER4,Buffer,177,178,Study,User,-,,Study/JOL,BUFFER4,978,,,-1,-1,,,,1
5eac2099b273a00513d31d9f,qxc0upwq2z,"Deep vs Shallow",1,274,2020-07-08T15:34:15-07:00,1.9243941307068,1,versionA_stim.csv,RLVersionA.csv,"Relational Version A","Relational, read only version A",OCTOBER,SPOOKY,BUFFER4,Buffer,180,181,Study,User,-,,Study/JOL,BUFFER4,1581,,,-1,-1,,,,1
5eac2099b273a00513d31d9f,qxc0upwq2z,"Deep vs Shallow",1,275,2020-07-08T15:34:16-07:00,1.543524980545,1,versionA_stim.csv,RLVersionA.csv,"Relational Version A","Relational, read only version A",DAYS,WEAKS,BUFFER4,Buffer,176,179,Study,User,-,,Study/JOL,BUFFER4,1203,,,-1,-1,,,,1
5eac2099b273a00513d31d9f,qxc0upwq2z,"Deep vs Shallow",1,276,2020-07-08T15:36:07-07:00,110.6517598629,1,versionA_stim.csv,RLVersionA.csv,"Relational Version A","Relational, read only version A",,,,,,0,Instruct,User,-,"You have completed this section. Please press Enter.",Filler_Instruction,Instruct5,110278,,,-1,-1,,,,0.826
5eac2099b273a00513d31d9f,qxc0upwq2z,"Deep vs Shallow",1,277,2020-07-08T15:37:08-07:00,60.77007317543,1,versionA_stim.csv,RLVersionA.csv,"Relational Version A","Relational, read only version A",,,,,,0,FreeRecall,-,10,"What were you supposed to focus on while you studied each pair? (Hint: Think back to the instructions). Type your answer in the space below.",,CHECK3,60396,"I have to relate the given 2 words by the knowledge I have based on the real-life understanding and experience ",0,2182,50551,0,0,,1
5eac2099b273a00513d31d9f,qxc0upwq2z,"Deep vs Shallow",1,278,2020-07-08T15:37:10-07:00,2.1637630462646,1,versionA_stim.csv,RLVersionA.csv,"Relational Version A","Relational, read only version A",,,,,,0,Instruct,User,-,"You have completed this section. Please press Enter.",Filler_Instruction,Instruct5,1571,,,-1,-1,,,,1
5eac2099b273a00513d31d9f,qxc0upwq2z,"Deep vs Shallow",1,279,2020-07-08T15:39:10-07:00,120.37545800209,1,versionA_stim.csv,RLVersionA.csv,"Relational Version A","Relational, read only version A",,,,,,0,FreeRecall,120,120,"Please list the 50 US states in reverse alphabetical order (z - a). The task will automatically advance to the next screen after two minutes.",,Filler2,120001,"wyoming wisconsin washington virginia vermount utah texas tennessee south dakota saouth carolina pennsyl",0,51340,119646,0,0,,0.795
5eac2099b273a00513d31d9f,qxc0upwq2z,"Deep vs Shallow",1,280,2020-07-08T15:39:24-07:00,13.295692920685,1,versionA_stim.csv,RLVersionA.csv,"Relational Version A","Relational, read only version A",,,,,,0,Instruct,-,10,"You will now be presented with the first word from each of the previously studied item pairs. Please type the missing word. If you do not know the word, you may guess or press Enter to skip forward to the next pair.",,Instruct6,12882,,,-1,-1,,,,1
5eac2099b273a00513d31d9f,qxc0upwq2z,"Deep vs Shallow",1,281,2020-07-08T15:40:00-07:00,36.309011936188,1,versionA_stim.csv,RLVersionA.csv,"Relational Version A","Relational, read only version A",STRETCH,CLOTH,Study2,U,157,160,Test,User,-,,Recall,Recall2,35930,CLOTH,100,30766,35044,1,1,,1
5eac2099b273a00513d31d9f,qxc0upwq2z,"Deep vs Shallow",1,282,2020-07-08T15:40:20-07:00,19.931674003601,1,versionA_stim.csv,RLVersionA.csv,"Relational Version A","Relational, read only version A",CAKE,CLOTHES,Study2,U,166,154,Test,User,-,,Recall,Recall2,19558,CLOTHS,92.307692307692,15274,16294,0,1,,1
5eac2099b273a00513d31d9f,qxc0upwq2z,"Deep vs Shallow",1,283,2020-07-08T15:40:25-07:00,5.5492269992828,1,versionA_stim.csv,RLVersionA.csv,"Relational Version A","Relational, read only version A",MAIN,SCAR,Study2,U,175,119,Test,User,-,,Recall,Recall2,4969,SCAR,100,3404,3952,1,1,,1
5eac2099b273a00513d31d9f,qxc0upwq2z,"Deep vs Shallow",1,284,2020-07-08T15:41:18-07:00,52.77335190773,1,versionA_stim.csv,RLVersionA.csv,"Relational Version A","Relational, read only version A",CAR,WINDSHIELD,Study2,B,117,148,Test,User,-,,Recall,Recall2,52374,WINDSHIELD,100,48174,50158,1,1,,1
5eac2099b273a00513d31d9f,qxc0upwq2z,"Deep vs Shallow",1,285,2020-07-08T15:41:47-07:00,29.150920152664,1,versionA_stim.csv,RLVersionA.csv,"Relational Version A","Relational, read only version A",MONEY,BANKER,Study2,B,132,106,Test,User,-,,Recall,Recall2,28749,BANKER,100,24805,26309,1,1,,1
5eac2099b273a00513d31d9f,qxc0upwq2z,"Deep vs Shallow",1,286,2020-07-08T15:42:01-07:00,14.007890939713,1,versionA_stim.csv,RLVersionA.csv,"Relational Version A","Relational, read only version A",DINE,EAT,Study2,F,111,110,Test,User,-,,Recall,Recall2,13390,EAT,100,11994,12379,1,1,,1
5eac2099b273a00513d31d9f,qxc0upwq2z,"Deep vs Shallow",1,287,2020-07-08T15:42:15-07:00,14.135608911514,1,versionA_stim.csv,RLVersionA.csv,"Relational Version A","Relational, read only version A",MEAT,OBTAIN,Study2,U,161,156,Test,User,-,,Recall,Recall2,13518,OBTAIN,100,11157,12648,1,1,,1
5eac2099b273a00513d31d9f,qxc0upwq2z,"Deep vs Shallow",1,288,2020-07-08T15:42:31-07:00,15.164218187332,1,versionA_stim.csv,RLVersionA.csv,"Relational Version A","Relational, read only version A",Shell,SHAKE,Study2,U,163,112,Test,User,-,,Recall,Recall2,14551,SHAKE,100,11848,13266,1,1,,1
5eac2099b273a00513d31d9f,qxc0upwq2z,"Deep vs Shallow",1,289,2020-07-08T15:42:46-07:00,15.264348983765,1,versionA_stim.csv,RLVersionA.csv,"Relational Version A","Relational, read only version A",THREAD,THIMBLE,Study2,B,121,155,Test,User,-,,Recall,Recall2,14667,THIMBLE,100,10646,13381,1,1,,1
5eac2099b273a00513d31d9f,qxc0upwq2z,"Deep vs Shallow",1,290,2020-07-08T15:43:17-07:00,31.557783842087,1,versionA_stim.csv,RLVersionA.csv,"Relational Version A","Relational, read only version A",PLANE,AIRCRAFT,Study2,B,129,122,Test,User,-,,Recall,Recall2,30948,AIRCRAFT,100,25260,29631,1,1,,1
5eac2099b273a00513d31d9f,qxc0upwq2z,"Deep vs Shallow",1,291,2020-07-08T15:43:36-07:00,18.79962515831,1,versionA_stim.csv,RLVersionA.csv,"Relational Version A","Relational, read only version A",BAD,VILLAIN,Study2,B,118,150,Test,User,-,,Recall,Recall2,17601,VILLAIN,100,12734,16740,1,1,,1
5eac2099b273a00513d31d9f,qxc0upwq2z,"Deep vs Shallow",1,292,2020-07-08T15:44:18-07:00,41.763034820557,1,versionA_stim.csv,RLVersionA.csv,"Relational Version A","Relational, read only version A",FIGHT,BRAWL,Study2,B,135,152,Test,User,-,,Recall,Recall2,41178,BRAWL,100,37757,39360,1,1,,1
5eac2099b273a00513d31d9f,qxc0upwq2z,"Deep vs Shallow",1,293,2020-07-08T15:44:40-07:00,22.36758518219,1,versionA_stim.csv,RLVersionA.csv,"Relational Version A","Relational, read only version A",WRIST,BRACELET,Study2,S,140,167,Test,User,-,,Recall,Recall2,21722,BRACELET,100,12305,20691,1,1,,1
5eac2099b273a00513d31d9f,qxc0upwq2z,"Deep vs Shallow",1,294,2020-07-08T15:45:10-07:00,30.009001970291,1,versionA_stim.csv,RLVersionA.csv,"Relational Version A","Relational, read only version A",EARTH,GROUND,Study2,S,144,103,Test,User,-,,Recall,Recall2,29403,GROUND,100,25598,28155,1,1,,1
5eac2099b273a00513d31d9f,qxc0upwq2z,"Deep vs Shallow",1,295,2020-07-08T15:45:27-07:00,17.160770893097,1,versionA_stim.csv,RLVersionA.csv,"Relational Version A","Relational, read only version A",LISTEN,FICTION,Study2,U,164,101,Test,User,-,,Recall,Recall2,16559,FICTION,100,11694,13428,1,1,,1
5eac2099b273a00513d31d9f,qxc0upwq2z,"Deep vs Shallow",1,296,2020-07-08T15:45:54-07:00,26.436964035034,1,versionA_stim.csv,RLVersionA.csv,"Relational Version A","Relational, read only version A",CANDLE,WAX,Study2,S,139,121,Test,User,-,,Recall,Recall2,26027,WAX,100,23758,24221,1,1,,1
5eac2099b273a00513d31d9f,qxc0upwq2z,"Deep vs Shallow",1,297,2020-07-08T15:45:58-07:00,4.5905900001526,1,versionA_stim.csv,RLVersionA.csv,"Relational Version A","Relational, read only version A",LOUD,NOISE,Study2,S,152,142,Test,User,-,,Recall,Recall2,4017,NOISE,100,2163,2957,1,1,,1
5eac2099b273a00513d31d9f,qxc0upwq2z,"Deep vs Shallow",1,298,2020-07-08T15:46:36-07:00,37.999526023865,1,versionA_stim.csv,RLVersionA.csv,"Relational Version A","Relational, read only version A",BIRD,PENGUIN,Study2,B,119,129,Test,User,-,,Recall,Recall2,37611,PENGUIN,100,28812,32655,1,1,,1
5eac2099b273a00513d31d9f,qxc0upwq2z,"Deep vs Shallow",1,299,2020-07-08T15:46:49-07:00,12.181430101395,1,versionA_stim.csv,RLVersionA.csv,"Relational Version A","Relational, read only version A",WATER,DRINK,Study2,S,143,100,Test,User,-,,Recall,Recall2,11598,DRINK,100,7592,9625,1,1,,1
5eac2099b273a00513d31d9f,qxc0upwq2z,"Deep vs Shallow",1,300,2020-07-08T15:47:46-07:00,57.574970006943,1,versionA_stim.csv,RLVersionA.csv,"Relational Version A","Relational, read only version A",MOAT,CLEAR,Study2,U,169,159,Test,User,-,,Recall,Recall2,56981,OBTAIN,18.181818181818,54075,55976,0,0,,1
5eac2099b273a00513d31d9f,qxc0upwq2z,"Deep vs Shallow",1,301,2020-07-08T15:48:24-07:00,37.333555936813,1,versionA_stim.csv,RLVersionA.csv,"Relational Version A","Relational, read only version A",FRUIT,STRAWBERRY,Study2,B,124,137,Test,User,-,,Recall,Recall2,36691,STRAWBERRY,100,30569,35305,1,1,,1
5eac2099b273a00513d31d9f,qxc0upwq2z,"Deep vs Shallow",1,302,2020-07-08T15:48:54-07:00,30.488172054291,1,versionA_stim.csv,RLVersionA.csv,"Relational Version A","Relational, read only version A",MAZE,ELECTION,Study2,U,159,123,Test,User,-,,Recall,Recall2,29904,ELECTION,100,12831,23044,1,1,,1
5eac2099b273a00513d31d9f,qxc0upwq2z,"Deep vs Shallow",1,303,2020-07-08T15:49:34-07:00,40.25264787674,1,versionA_stim.csv,RLVersionA.csv,"Relational Version A","Relational, read only version A",RIGHTS,EQUAL,Study2,S,137,143,Test,User,-,,Recall,Recall2,39650,EQUAL,100,34128,38711,1,1,,1
5eac2099b273a00513d31d9f,qxc0upwq2z,"Deep vs Shallow",1,304,2020-07-08T15:49:54-07:00,19.930418968201,1,versionA_stim.csv,RLVersionA.csv,"Relational Version A","Relational, read only version A",DRIVER,CAR,Study2,F,106,145,Test,User,-,,Recall,Recall2,19255,CAR,100,17860,18282,1,1,,1
5eac2099b273a00513d31d9f,qxc0upwq2z,"Deep vs Shallow",1,305,2020-07-08T15:50:12-07:00,18.066307067871,1,versionA_stim.csv,RLVersionA.csv,"Relational Version A","Relational, read only version A",GLASS,BREAKABLE,Study2,B,127,170,Test,User,-,,Recall,Recall2,17476,BREAKABLE,100,12945,16472,1,1,,1
5eac2099b273a00513d31d9f,qxc0upwq2z,"Deep vs Shallow",1,306,2020-07-08T15:50:20-07:00,7.8948481082916,1,versionA_stim.csv,RLVersionA.csv,"Relational Version A","Relational, read only version A",CACTUS,PLANT,Study2,F,98,109,Test,User,-,,Recall,Recall2,7337,PLANT,100,5136,6282,1,1,,1
5eac2099b273a00513d31d9f,qxc0upwq2z,"Deep vs Shallow",1,307,2020-07-08T15:50:32-07:00,12.195073843002,1,versionA_stim.csv,RLVersionA.csv,"Relational Version A","Relational, read only version A",FEUD,FIGHT,Study2,F,113,175,Test,User,-,,Recall,Recall2,11818,FIGHT,100,10164,10898,1,1,,1
5eac2099b273a00513d31d9f,qxc0upwq2z,"Deep vs Shallow",1,308,2020-07-08T15:50:38-07:00,5.9242160320282,1,versionA_stim.csv,RLVersionA.csv,"Relational Version A","Relational, read only version A",CLUE,GAME,Study2,F,97,139,Test,User,-,,Recall,Recall2,5355,GAME,100,3406,4339,1,1,,1
5eac2099b273a00513d31d9f,qxc0upwq2z,"Deep vs Shallow",1,309,2020-07-08T15:51:02-07:00,23.671586990356,1,versionA_stim.csv,RLVersionA.csv,"Relational Version A","Relational, read only version A",CHILL,COLD,Study2,F,114,141,Test,User,-,,Recall,Recall2,23290,COLD,100,21103,22382,1,1,,1
5eac2099b273a00513d31d9f,qxc0upwq2z,"Deep vs Shallow",1,310,2020-07-08T15:51:33-07:00,31.406853914261,1,versionA_stim.csv,RLVersionA.csv,"Relational Version A","Relational, read only version A",SHEARS,SCISSORS,Study2,F,112,108,Test,User,-,,Recall,Recall2,30812,SCISSORS,100,25917,29711,1,1,,1
5eac2099b273a00513d31d9f,qxc0upwq2z,"Deep vs Shallow",1,311,2020-07-08T15:51:58-07:00,24.116108179092,1,versionA_stim.csv,RLVersionA.csv,"Relational Version A","Relational, read only version A",FISH,SARDINE,Study2,B,130,157,Test,User,-,,Recall,Recall2,23513,SARDINE,100,17489,19718,1,1,,1
5eac2099b273a00513d31d9f,qxc0upwq2z,"Deep vs Shallow",1,312,2020-07-08T15:52:02-07:00,4.4443800449371,1,versionA_stim.csv,RLVersionA.csv,"Relational Version A","Relational, read only version A",RAZOR,SHAVE,Study2,S,136,151,Test,User,-,,Recall,Recall2,3883,SHAVE,100,1973,2898,1,1,,1
5eac2099b273a00513d31d9f,qxc0upwq2z,"Deep vs Shallow",1,313,2020-07-08T15:52:30-07:00,28.481850862503,1,versionA_stim.csv,RLVersionA.csv,"Relational Version A","Relational, read only version A",CAT,PANTHER,Study2,B,126,165,Test,User,-,,Recall,Recall2,28081,PANTHER,100,22247,24148,1,1,,1
5eac2099b273a00513d31d9f,qxc0upwq2z,"Deep vs Shallow",1,314,2020-07-08T15:53:02-07:00,31.866945028305,1,versionA_stim.csv,RLVersionA.csv,"Relational Version A","Relational, read only version A",DETECTIVE,MYSTERY,Study2,F,100,134,Test,User,-,,Recall,Recall2,31250,MYSTERY,100,24597,30055,1,1,,1
5eac2099b273a00513d31d9f,qxc0upwq2z,"Deep vs Shallow",1,315,2020-07-08T15:53:27-07:00,24.916038990021,1,versionA_stim.csv,RLVersionA.csv,"Relational Version A","Relational, read only version A",DEAD,COFFIN,Study2,B,128,99,Test,User,-,,Recall,Recall2,23274,COFFINE,92.307692307692,19304,22266,0,1,,1
5eac2099b273a00513d31d9f,qxc0upwq2z,"Deep vs Shallow",1,316,2020-07-08T15:53:43-07:00,16.142148017883,1,versionA_stim.csv,RLVersionA.csv,"Relational Version A","Relational, read only version A",MIRROR,CHILDREN,Study2,U,174,97,Test,User,-,,Recall,Recall2,15511,CHILDREN,100,2956,5047,1,1,,1
5eac2099b273a00513d31d9f,qxc0upwq2z,"Deep vs Shallow",1,317,2020-07-08T15:54:19-07:00,35.859863042831,1,versionA_stim.csv,RLVersionA.csv,"Relational Version A","Relational, read only version A",JUSTICE,MAROON,Study2,U,156,105,Test,User,-,,Recall,Recall2,35261,MAROON,100,31391,34352,1,1,,1
5eac2099b273a00513d31d9f,qxc0upwq2z,"Deep vs Shallow",1,318,2020-07-08T15:54:42-07:00,22.425107955933,1,versionA_stim.csv,RLVersionA.csv,"Relational Version A","Relational, read only version A",ALONE,LONELY,Study2,S,145,107,Test,User,-,,Recall,Recall2,22042,LONELY,100,17424,20396,1,1,,1
5eac2099b273a00513d31d9f,qxc0upwq2z,"Deep vs Shallow",1,319,2020-07-08T15:55:05-07:00,23.162142038345,1,versionA_stim.csv,RLVersionA.csv,"Relational Version A","Relational, read only version A",ELEMENT,CARBON,Study2,S,141,132,Test,User,-,,Recall,Recall2,22516,CARBON,100,17631,19131,1,1,,1
5eac2099b273a00513d31d9f,qxc0upwq2z,"Deep vs Shallow",1,320,2020-07-08T15:55:27-07:00,22.577946901321,1,versionA_stim.csv,RLVersionA.csv,"Relational Version A","Relational, read only version A",VEHICLE,CHARM,Study2,U,160,176,Test,User,-,,Recall,Recall2,21982,CHARM,100,18773,20471,1,1,,1
5eac2099b273a00513d31d9f,qxc0upwq2z,"Deep vs Shallow",1,321,2020-07-08T15:55:59-07:00,31.541630029678,1,versionA_stim.csv,RLVersionA.csv,"Relational Version A","Relational, read only version A",GONE,AWAY,Study2,S,142,136,Test,User,-,,Recall,Recall2,30944,AWAY,100,27826,28601,1,1,,1
5eac2099b273a00513d31d9f,qxc0upwq2z,"Deep vs Shallow",1,322,2020-07-08T15:56:34-07:00,34.847708940506,1,versionA_stim.csv,RLVersionA.csv,"Relational Version A","Relational, read only version A",FLEA,TICK,Study2,S,151,98,Test,User,-,,Recall,Recall2,33249,TICK,100,30729,32157,1,1,,1
5eac2099b273a00513d31d9f,qxc0upwq2z,"Deep vs Shallow",1,323,2020-07-08T15:57:08-07:00,34.049673080444,1,versionA_stim.csv,RLVersionA.csv,"Relational Version A","Relational, read only version A",INCENSE,SMELL,Study2,F,110,172,Test,User,-,,Recall,Recall2,33403,SMELL,100,31846,33083,1,1,,1
5eac2099b273a00513d31d9f,qxc0upwq2z,"Deep vs Shallow",1,324,2020-07-08T16:00:09-07:00,181.11662197113,1,versionA_stim.csv,RLVersionA.csv,"Relational Version A","Relational, read only version A",CHERRY,RED,Study2,F,104,126,Test,User,-,,Recall,Recall2,180507,RED,100,178245,178466,1,1,,1
5eac2099b273a00513d31d9f,qxc0upwq2z,"Deep vs Shallow",1,325,2020-07-08T16:00:24-07:00,14.982610940933,1,versionA_stim.csv,RLVersionA.csv,"Relational Version A","Relational, read only version A",FURRY,DOG,Study2,F,102,131,Test,User,-,,Recall,Recall2,14571,DOG,100,11767,12283,1,1,,1
5eac2099b273a00513d31d9f,qxc0upwq2z,"Deep vs Shallow",1,326,2020-07-08T16:01:59-07:00,95.147572040558,1,versionA_stim.csv,RLVersionA.csv,"Relational Version A","Relational, read only version A",EVEN,REVENGE,Study2,B,122,127,Test,User,-,,Recall,Recall2,94532,REVENGE,100,91297,93102,1,1,,1
5eac2099b273a00513d31d9f,qxc0upwq2z,"Deep vs Shallow",1,327,2020-07-08T16:02:23-07:00,24.405076026917,1,versionA_stim.csv,RLVersionA.csv,"Relational Version A","Relational, read only version A",NAME,HATE,Study2,U,167,114,Test,User,-,,Recall,Recall2,23806,HATE,100,21740,22483,1,1,,1
5eac2099b273a00513d31d9f,qxc0upwq2z,"Deep vs Shallow",1,328,2020-07-08T16:02:38-07:00,14.034647941589,1,versionA_stim.csv,RLVersionA.csv,"Relational Version A","Relational, read only version A",LITTER,TRASH,Study2,F,103,163,Test,User,-,,Recall,Recall2,13442,TRASH,100,9679,10850,1,1,,1
5eac2099b273a00513d31d9f,qxc0upwq2z,"Deep vs Shallow",1,329,2020-07-08T16:12:57-07:00,619.08168005943,1,versionA_stim.csv,RLVersionA.csv,"Relational Version A","Relational, read only version A",KEYS,JOKE,Study2,U,165,162,Test,User,-,,Recall,Recall2,618459,JOKE,100,613479,617281,1,1,,0.924
5eac2099b273a00513d31d9f,qxc0upwq2z,"Deep vs Shallow",1,330,2020-07-08T16:13:11-07:00,13.976920127869,1,versionA_stim.csv,RLVersionA.csv,"Relational Version A","Relational, read only version A",DRY,WET,Study2,S,146,111,Test,User,-,,Recall,Recall2,13603,WET,100,11665,12832,1,1,,1
5eac2099b273a00513d31d9f,qxc0upwq2z,"Deep vs Shallow",1,331,2020-07-08T16:13:21-07:00,10.164860010147,1,versionA_stim.csv,RLVersionA.csv,"Relational Version A","Relational, read only version A",SHOELACE,TIE,Study2,F,99,166,Test,User,-,,Recall,Recall2,9539,TIE,100,7834,8272,1,1,,1
5eac2099b273a00513d31d9f,qxc0upwq2z,"Deep vs Shallow",1,332,2020-07-08T16:13:40-07:00,19.096294879913,1,versionA_stim.csv,RLVersionA.csv,"Relational Version A","Relational, read only version A",SCALP,HEAD,Study2,F,105,146,Test,User,-,,Recall,Recall2,18704,HEAD,100,16214,17858,1,1,,1
5eac2099b273a00513d31d9f,qxc0upwq2z,"Deep vs Shallow",1,333,2020-07-08T16:13:50-07:00,10.20033788681,1,versionA_stim.csv,RLVersionA.csv,"Relational Version A","Relational, read only version A",GIVE,STEAK,Study2,U,158,125,Test,User,-,,Recall,Recall2,9824,STEAK,100,4018,4983,1,1,,1
5eac2099b273a00513d31d9f,qxc0upwq2z,"Deep vs Shallow",1,334,2020-07-08T16:14:44-07:00,54.427332162857,1,versionA_stim.csv,RLVersionA.csv,"Relational Version A","Relational, read only version A",PHONE,COMMUNICATION,Study2,S,149,113,Test,User,-,,Recall,Recall2,53826,COMMUNICATION,100,50309,52871,1,1,,1
5eac2099b273a00513d31d9f,qxc0upwq2z,"Deep vs Shallow",1,335,2020-07-08T16:14:52-07:00,7.3506169319153,1,versionA_stim.csv,RLVersionA.csv,"Relational Version A","Relational, read only version A",FUZZY,BANG,Study2,U,168,116,Test,User,-,,Recall,Recall2,6794,BANG,100,3572,5746,1,1,,1
5eac2099b273a00513d31d9f,qxc0upwq2z,"Deep vs Shallow",1,336,2020-07-08T16:14:58-07:00,6.3898649215698,1,versionA_stim.csv,RLVersionA.csv,"Relational Version A","Relational, read only version A",LOAN,SIGN,Study2,U,171,161,Test,User,-,,Recall,Recall2,6014,SIGN,100,3678,4752,1,1,,1
5eac2099b273a00513d31d9f,qxc0upwq2z,"Deep vs Shallow",1,337,2020-07-08T16:15:33-07:00,34.435464143753,1,versionA_stim.csv,RLVersionA.csv,"Relational Version A","Relational, read only version A",LEASE,TOIL,Study2,U,170,171,Test,User,-,,Recall,Recall2,34040,TOIL,100,32238,32965,1,1,,1
5eac2099b273a00513d31d9f,qxc0upwq2z,"Deep vs Shallow",1,338,2020-07-08T16:15:55-07:00,22.379505872726,1,versionA_stim.csv,RLVersionA.csv,"Relational Version A","Relational, read only version A",TEMPERATURE,Morning,Study2,U,173,117,Test,User,-,,Recall,Recall2,21994,MORNING,100,19325,20657,1,1,,1
5eac2099b273a00513d31d9f,qxc0upwq2z,"Deep vs Shallow",1,339,2020-07-08T16:16:24-07:00,29.248326063156,1,versionA_stim.csv,RLVersionA.csv,"Relational Version A","Relational, read only version A",TURN,FLIP,Study2,B,116,164,Test,User,-,,Recall,Recall2,28628,FLIP,100,26406,27055,1,1,,1
5eac2099b273a00513d31d9f,qxc0upwq2z,"Deep vs Shallow",1,340,2020-07-08T16:16:38-07:00,13.990669965744,1,versionA_stim.csv,RLVersionA.csv,"Relational Version A","Relational, read only version A",BOTH,OUNCE,Study2,U,172,124,Test,User,-,,Recall,Recall2,13387,OUNCE,100,9493,10744,1,1,,1
5eac2099b273a00513d31d9f,qxc0upwq2z,"Deep vs Shallow",1,341,2020-07-08T16:18:31-07:00,112.41779208183,1,versionA_stim.csv,RLVersionA.csv,"Relational Version A","Relational, read only version A",SLEEP,NAP,Study2,B,134,140,Test,User,-,,Recall,Recall2,111805,NAP,100,110010,110770,1,1,,1
5eac2099b273a00513d31d9f,qxc0upwq2z,"Deep vs Shallow",1,342,2020-07-08T16:19:04-07:00,33.375500917435,1,versionA_stim.csv,RLVersionA.csv,"Relational Version A","Relational, read only version A",STAR,ACTRESS,Study2,B,120,135,Test,User,-,,Recall,Recall2,32734,ACTRESS,100,28748,29943,1,1,,1
5eac2099b273a00513d31d9f,qxc0upwq2z,"Deep vs Shallow",1,343,2020-07-08T16:21:14-07:00,130.07773208618,1,versionA_stim.csv,RLVersionA.csv,"Relational Version A","Relational, read only version A",ADJOURN,END,Study2,F,101,130,Test,User,-,,Recall,Recall2,129475,END,100,127335,128241,1,1,,1
