Username,ID,ExperimentName,Session,Trial,Date,TimeDif,"Condition Number","Stimuli File","Order File","Condition Description","Condition Notes",Stimuli*Cue,Stimuli*Answer,Stimuli*Shuffle,"Stimuli*Stimuli Notes",Stimuli*Value,Procedure*Item,"Procedure*Trial Type","Procedure*Max Time","Procedure*Min Time",Procedure*Text,"Procedure*Procedure Notes",Procedure*Shuffle,Response*RT,Response*Response,Response*Accuracy,Response*RTfirst,Response*RTlast,Response*strictAcc,Response*lenientAcc,Response*focus,Response*Focus
5e5d8d190272740aa1029258,x75xm9ac6q,"Deep vs Shallow",1,1,2020-07-08T14:25:28-07:00,17.313019037247,1,versionA_stim.csv,RLVersionA.csv,"Relational Version A","Relational, read only version A",,,,,,0,Instruct,-,10,"In this section, you will be presented with a series of word pairs. Please study both items in the pair.",,Instruct13,16793,,,-1,-1,,,,1
5e5d8d190272740aa1029258,x75xm9ac6q,"Deep vs Shallow",1,2,2020-07-08T14:25:51-07:00,22.449970960617,1,versionA_stim.csv,RLVersionA.csv,"Relational Version A","Relational, read only version A",,,,,,0,Instruct,-,15,"As you study, please think about how the two concepts are RELATED to each other. For example, if you see the pair TURTLE-CAT, think about how both are alive, they are both animals, and both can be kept as pets.",,Instruct19,20777,,,-1,-1,,,,1
5e5d8d190272740aa1029258,x75xm9ac6q,"Deep vs Shallow",1,3,2020-07-08T14:26:15-07:00,24.608581066132,1,versionA_stim.csv,RLVersionA.csv,"Relational Version A","Relational, read only version A",,,,,,0,FreeRecall,-,10,"What you should think about as you study each item pair? Type your response in the box below.",,CHECK1,23935,"How the two items are related.",0,7178,20587,0,0,,1
5e5d8d190272740aa1029258,x75xm9ac6q,"Deep vs Shallow",1,4,2020-07-08T14:26:18-07:00,2.1645119190216,1,versionA_stim.csv,RLVersionA.csv,"Relational Version A","Relational, read only version A",,,,,,0,Instruct,User,-,"You will now begin the experiment. Press ENTER when you are ready to begin.",,Instruct000,1572,,,-1,-1,,,,1
5e5d8d190272740aa1029258,x75xm9ac6q,"Deep vs Shallow",1,5,2020-07-08T14:26:21-07:00,3.4787600040436,1,versionA_stim.csv,RLVersionA.csv,"Relational Version A","Relational, read only version A",SCARE,HIDE,BUFFER1,Buffer,4,2,Study,User,-,,Study/JOL,BUFFER,2832,,,-1,-1,,,,1
5e5d8d190272740aa1029258,x75xm9ac6q,"Deep vs Shallow",1,6,2020-07-08T14:26:34-07:00,12.48555803299,1,versionA_stim.csv,RLVersionA.csv,"Relational Version A","Relational, read only version A",SPACE,JAM,BUFFER1,Buffer,5,3,Study,User,-,,Study/JOL,BUFFER,11818,,,-1,-1,,,,1
5e5d8d190272740aa1029258,x75xm9ac6q,"Deep vs Shallow",1,7,2020-07-08T14:26:36-07:00,2.8666639328003,1,versionA_stim.csv,RLVersionA.csv,"Relational Version A","Relational, read only version A",PEANUT,BUTTER,BUFFER1,Buffer,3,6,Study,User,-,,Study/JOL,BUFFER,2220,,,-1,-1,,,,1
5e5d8d190272740aa1029258,x75xm9ac6q,"Deep vs Shallow",1,8,2020-07-08T14:26:39-07:00,2.4111080169678,1,versionA_stim.csv,RLVersionA.csv,"Relational Version A","Relational, read only version A",BASEBALL,CATCHER,BUFFER1,Buffer,2,4,Study,User,-,,Study/JOL,BUFFER,1667,,,-1,-1,,,,1
5e5d8d190272740aa1029258,x75xm9ac6q,"Deep vs Shallow",1,9,2020-07-08T14:26:41-07:00,2.0591139793396,1,versionA_stim.csv,RLVersionA.csv,"Relational Version A","Relational, read only version A",TREES,GREEN,BUFFER1,Buffer,1,5,Study,User,-,,Study/JOL,BUFFER,1493,,,-1,-1,,,,1
5e5d8d190272740aa1029258,x75xm9ac6q,"Deep vs Shallow",1,10,2020-07-08T14:26:43-07:00,2.1380710601807,1,versionA_stim.csv,RLVersionA.csv,"Relational Version A","Relational, read only version A",DISCOVER,FLOOR,Study1,U,71,73,Study,User,-,,Study/JOL,"Study Phase",1624,,,-1,-1,,,,1
5e5d8d190272740aa1029258,x75xm9ac6q,"Deep vs Shallow",1,11,2020-07-08T14:26:45-07:00,2.1798710823059,1,versionA_stim.csv,RLVersionA.csv,"Relational Version A","Relational, read only version A",VALLEY,ADD,Study1,U,82,84,Study,User,-,,Study/JOL,"Study Phase",1626,,,-1,-1,,,,1
5e5d8d190272740aa1029258,x75xm9ac6q,"Deep vs Shallow",1,12,2020-07-08T14:26:47-07:00,1.9665699005127,1,versionA_stim.csv,RLVersionA.csv,"Relational Version A","Relational, read only version A",KIDNEY,LIVER,Study1,S,53,28,Study,User,-,,Study/JOL,"Study Phase",1402,,,-1,-1,,,,1
5e5d8d190272740aa1029258,x75xm9ac6q,"Deep vs Shallow",1,13,2020-07-08T14:26:49-07:00,2.0339910984039,1,versionA_stim.csv,RLVersionA.csv,"Relational Version A","Relational, read only version A",HUNGER,FAMINE,Study1,B,40,48,Study,User,-,,Study/JOL,"Study Phase",1488,,,-1,-1,,,,1
5e5d8d190272740aa1029258,x75xm9ac6q,"Deep vs Shallow",1,14,2020-07-08T14:26:51-07:00,2.0274209976196,1,versionA_stim.csv,RLVersionA.csv,"Relational Version A","Relational, read only version A",PLANE,PILOT,Study1,B,44,31,Study,User,-,,Study/JOL,"Study Phase",1493,,,-1,-1,,,,1
5e5d8d190272740aa1029258,x75xm9ac6q,"Deep vs Shallow",1,15,2020-07-08T14:26:54-07:00,2.5413789749146,1,versionA_stim.csv,RLVersionA.csv,"Relational Version A","Relational, read only version A",TUNA,FISH,Study1,F,25,39,Study,User,-,,Study/JOL,"Study Phase",1900,,,-1,-1,,,,1
5e5d8d190272740aa1029258,x75xm9ac6q,"Deep vs Shallow",1,16,2020-07-08T14:26:56-07:00,1.9511849880219,1,versionA_stim.csv,RLVersionA.csv,"Relational Version A","Relational, read only version A",GREAT,FANTASTIC,Study1,B,35,75,Study,User,-,,Study/JOL,"Study Phase",1408,,,-1,-1,,,,1
5e5d8d190272740aa1029258,x75xm9ac6q,"Deep vs Shallow",1,17,2020-07-08T14:26:58-07:00,2.0720949172974,1,versionA_stim.csv,RLVersionA.csv,"Relational Version A","Relational, read only version A",EDITOR,NEWS,Study1,F,10,57,Study,User,-,,Study/JOL,"Study Phase",1498,,,-1,-1,,,,1
5e5d8d190272740aa1029258,x75xm9ac6q,"Deep vs Shallow",1,18,2020-07-08T14:27:00-07:00,2.0612151622772,1,versionA_stim.csv,RLVersionA.csv,"Relational Version A","Relational, read only version A",DUMP,WASTE,Study1,S,49,15,Study,User,-,,Study/JOL,"Study Phase",1499,,,-1,-1,,,,1
5e5d8d190272740aa1029258,x75xm9ac6q,"Deep vs Shallow",1,19,2020-07-08T14:27:02-07:00,2.4526789188385,1,versionA_stim.csv,RLVersionA.csv,"Relational Version A","Relational, read only version A",SLEEP,DROWSY,Study1,B,41,40,Study,User,-,,Study/JOL,"Study Phase",1642,,,-1,-1,,,,1
5e5d8d190272740aa1029258,x75xm9ac6q,"Deep vs Shallow",1,20,2020-07-08T14:27:04-07:00,2.03116106987,1,versionA_stim.csv,RLVersionA.csv,"Relational Version A","Relational, read only version A",PAW,DOG,Study1,F,15,56,Study,User,-,,Study/JOL,"Study Phase",1442,,,-1,-1,,,,1
5e5d8d190272740aa1029258,x75xm9ac6q,"Deep vs Shallow",1,21,2020-07-08T14:27:07-07:00,2.1941518783569,1,versionA_stim.csv,RLVersionA.csv,"Relational Version A","Relational, read only version A",SUGAR,RIDDLE,Study1,U,81,52,Study,User,-,,Study/JOL,"Study Phase",1598,,,-1,-1,,,,1
5e5d8d190272740aa1029258,x75xm9ac6q,"Deep vs Shallow",1,22,2020-07-08T14:27:10-07:00,3.2609450817108,1,versionA_stim.csv,RLVersionA.csv,"Relational Version A","Relational, read only version A",ORCHID,FLOWER,Study1,F,24,19,Study,User,-,,Study/JOL,"Study Phase",2588,,,-1,-1,,,,1
5e5d8d190272740aa1029258,x75xm9ac6q,"Deep vs Shallow",1,23,2020-07-08T14:27:12-07:00,2.3956959247589,1,versionA_stim.csv,RLVersionA.csv,"Relational Version A","Relational, read only version A",HAPPY,CAR,Study1,U,77,10,Study,User,-,,Study/JOL,"Study Phase",1701,,,-1,-1,,,,1
5e5d8d190272740aa1029258,x75xm9ac6q,"Deep vs Shallow",1,24,2020-07-08T14:27:19-07:00,7.1495630741119,1,versionA_stim.csv,RLVersionA.csv,"Relational Version A","Relational, read only version A",BATHROOM,TOILET,Study1,S,58,49,Study,User,-,,Study/JOL,"Study Phase",5478,,,-1,-1,,,,1
5e5d8d190272740aa1029258,x75xm9ac6q,"Deep vs Shallow",1,25,2020-07-08T14:27:21-07:00,2.0686070919037,1,versionA_stim.csv,RLVersionA.csv,"Relational Version A","Relational, read only version A",HERD,COW,Study1,F,22,65,Study,User,-,,Study/JOL,"Study Phase",1500,,,-1,-1,,,,1
5e5d8d190272740aa1029258,x75xm9ac6q,"Deep vs Shallow",1,26,2020-07-08T14:27:23-07:00,1.9937160015106,1,versionA_stim.csv,RLVersionA.csv,"Relational Version A","Relational, read only version A",WAY,OUT,Study1,F,16,79,Study,User,-,,Study/JOL,"Study Phase",1420,,,-1,-1,,,,1
5e5d8d190272740aa1029258,x75xm9ac6q,"Deep vs Shallow",1,27,2020-07-08T14:27:25-07:00,1.9697179794312,1,versionA_stim.csv,RLVersionA.csv,"Relational Version A","Relational, read only version A",LIFT,WOMAN,Study1,U,69,60,Study,User,-,,Study/JOL,"Study Phase",1457,,,-1,-1,,,,1
5e5d8d190272740aa1029258,x75xm9ac6q,"Deep vs Shallow",1,28,2020-07-08T14:27:28-07:00,2.5775790214539,1,versionA_stim.csv,RLVersionA.csv,"Relational Version A","Relational, read only version A",GEOLOGY,ROCK,Study1,F,19,71,Study,User,-,,Study/JOL,"Study Phase",1871,,,-1,-1,,,,1
5e5d8d190272740aa1029258,x75xm9ac6q,"Deep vs Shallow",1,29,2020-07-08T14:27:30-07:00,2.023491859436,1,versionA_stim.csv,RLVersionA.csv,"Relational Version A","Relational, read only version A",DISCUSSION,TALK,Study1,F,21,66,Study,User,-,,Study/JOL,"Study Phase",1485,,,-1,-1,,,,1
5e5d8d190272740aa1029258,x75xm9ac6q,"Deep vs Shallow",1,30,2020-07-08T14:27:32-07:00,2.0773069858551,1,versionA_stim.csv,RLVersionA.csv,"Relational Version A","Relational, read only version A",HORNET,STING,Study1,F,11,27,Study,User,-,,Study/JOL,"Study Phase",1522,,,-1,-1,,,,1
5e5d8d190272740aa1029258,x75xm9ac6q,"Deep vs Shallow",1,31,2020-07-08T14:27:34-07:00,2.011491060257,1,versionA_stim.csv,RLVersionA.csv,"Relational Version A","Relational, read only version A",NUMBER,AMOUNT,Study1,S,47,68,Study,User,-,,Study/JOL,"Study Phase",1449,,,-1,-1,,,,1
5e5d8d190272740aa1029258,x75xm9ac6q,"Deep vs Shallow",1,32,2020-07-08T14:27:36-07:00,2.0457379817963,1,versionA_stim.csv,RLVersionA.csv,"Relational Version A","Relational, read only version A",ART,LION,Study1,U,79,78,Study,User,-,,Study/JOL,"Study Phase",1518,,,-1,-1,,,,1
5e5d8d190272740aa1029258,x75xm9ac6q,"Deep vs Shallow",1,33,2020-07-08T14:27:40-07:00,4.1009159088135,1,versionA_stim.csv,RLVersionA.csv,"Relational Version A","Relational, read only version A",BLOW,WIND,Study1,S,55,86,Study,User,-,,Study/JOL,"Study Phase",3460,,,-1,-1,,,,1
5e5d8d190272740aa1029258,x75xm9ac6q,"Deep vs Shallow",1,34,2020-07-08T14:27:44-07:00,3.8829920291901,1,versionA_stim.csv,RLVersionA.csv,"Relational Version A","Relational, read only version A",KEY,LATCH,Study1,B,36,63,Study,User,-,,Study/JOL,"Study Phase",3249,,,-1,-1,,,,1
5e5d8d190272740aa1029258,x75xm9ac6q,"Deep vs Shallow",1,35,2020-07-08T14:27:45-07:00,1.0503749847412,1,versionA_stim.csv,RLVersionA.csv,"Relational Version A","Relational, read only version A",PUSHER,CLUTTER,Study1,U,66,21,Study,User,-,,Study/JOL,"Study Phase",493,,,-1,-1,,,,1
5e5d8d190272740aa1029258,x75xm9ac6q,"Deep vs Shallow",1,36,2020-07-08T14:27:47-07:00,1.5119681358337,1,versionA_stim.csv,RLVersionA.csv,"Relational Version A","Relational, read only version A",STRONG,ACCIDENT,Study1,U,80,51,Study,User,-,,Study/JOL,"Study Phase",931,,,-1,-1,,,,1
5e5d8d190272740aa1029258,x75xm9ac6q,"Deep vs Shallow",1,37,2020-07-08T14:27:48-07:00,1.3166599273682,1,versionA_stim.csv,RLVersionA.csv,"Relational Version A","Relational, read only version A",PARK,HUNGRY,Study1,U,68,59,Study,User,-,,Study/JOL,"Study Phase",761,,,-1,-1,,,,1
5e5d8d190272740aa1029258,x75xm9ac6q,"Deep vs Shallow",1,38,2020-07-08T14:27:49-07:00,1.3138511180878,1,versionA_stim.csv,RLVersionA.csv,"Relational Version A","Relational, read only version A",LETTUCE,SALAD,Study1,S,59,82,Study,User,-,,Study/JOL,"Study Phase",775,,,-1,-1,,,,1
5e5d8d190272740aa1029258,x75xm9ac6q,"Deep vs Shallow",1,39,2020-07-08T14:27:51-07:00,1.2477269172668,1,versionA_stim.csv,RLVersionA.csv,"Relational Version A","Relational, read only version A",PAST,FUTURE,Study1,S,61,77,Study,User,-,,Study/JOL,"Study Phase",710,,,-1,-1,,,,1
5e5d8d190272740aa1029258,x75xm9ac6q,"Deep vs Shallow",1,40,2020-07-08T14:27:59-07:00,8.5742900371552,1,versionA_stim.csv,RLVersionA.csv,"Relational Version A","Relational, read only version A",MEANING,DEFINITION,Study1,S,62,76,Study,User,-,,Study/JOL,"Study Phase",7955,,,-1,-1,,,,1
5e5d8d190272740aa1029258,x75xm9ac6q,"Deep vs Shallow",1,41,2020-07-08T14:28:05-07:00,5.7473788261414,1,versionA_stim.csv,RLVersionA.csv,"Relational Version A","Relational, read only version A",MATH,DIVISION,Study1,B,33,9,Study,User,-,,Study/JOL,"Study Phase",5088,,,-1,-1,,,,1
5e5d8d190272740aa1029258,x75xm9ac6q,"Deep vs Shallow",1,42,2020-07-08T14:28:07-07:00,1.6721160411835,1,versionA_stim.csv,RLVersionA.csv,"Relational Version A","Relational, read only version A",FIX,HAND,Study1,U,75,85,Study,User,-,,Study/JOL,"Study Phase",1118,,,-1,-1,,,,1
5e5d8d190272740aa1029258,x75xm9ac6q,"Deep vs Shallow",1,43,2020-07-08T14:28:09-07:00,1.9559690952301,1,versionA_stim.csv,RLVersionA.csv,"Relational Version A","Relational, read only version A",SWAN,BIRD,Study1,F,14,53,Study,User,-,,Study/JOL,"Study Phase",1373,,,-1,-1,,,,1
5e5d8d190272740aa1029258,x75xm9ac6q,"Deep vs Shallow",1,44,2020-07-08T14:28:14-07:00,5.6297829151154,1,versionA_stim.csv,RLVersionA.csv,"Relational Version A","Relational, read only version A",,,,,,0,Instruct,-,3,"Remember to focus on how the two items are similiar while you study!",,CHECK2,4916,,,-1,-1,,,,1
5e5d8d190272740aa1029258,x75xm9ac6q,"Deep vs Shallow",1,45,2020-07-08T14:28:21-07:00,6.4590001106262,1,versionA_stim.csv,RLVersionA.csv,"Relational Version A","Relational, read only version A",BABY,CHILD,Study1,S,64,44,Study,User,-,,Study/JOL,"Study Phase",5804,,,-1,-1,,,,1
5e5d8d190272740aa1029258,x75xm9ac6q,"Deep vs Shallow",1,46,2020-07-08T14:28:23-07:00,2.4512379169464,1,versionA_stim.csv,RLVersionA.csv,"Relational Version A","Relational, read only version A",WAGE,MONEY,Study1,F,8,55,Study,User,-,,Study/JOL,"Study Phase",1802,,,-1,-1,,,,1
5e5d8d190272740aa1029258,x75xm9ac6q,"Deep vs Shallow",1,47,2020-07-08T14:28:25-07:00,2.1783680915833,1,versionA_stim.csv,RLVersionA.csv,"Relational Version A","Relational, read only version A",TAKE,SEIZE,Study1,B,29,22,Study,User,-,,Study/JOL,"Study Phase",1618,,,-1,-1,,,,1
5e5d8d190272740aa1029258,x75xm9ac6q,"Deep vs Shallow",1,48,2020-07-08T14:28:28-07:00,2.4985659122467,1,versionA_stim.csv,RLVersionA.csv,"Relational Version A","Relational, read only version A",DEBATE,SIGHT,Study1,U,73,70,Study,User,-,,Study/JOL,"Study Phase",1860,,,-1,-1,,,,1
5e5d8d190272740aa1029258,x75xm9ac6q,"Deep vs Shallow",1,49,2020-07-08T14:28:30-07:00,2.1897010803223,1,versionA_stim.csv,RLVersionA.csv,"Relational Version A","Relational, read only version A",BRIDGE,WATER,Study1,F,18,61,Study,User,-,,Study/JOL,"Study Phase",1628,,,-1,-1,,,,1
5e5d8d190272740aa1029258,x75xm9ac6q,"Deep vs Shallow",1,50,2020-07-08T14:28:32-07:00,2.1053619384766,1,versionA_stim.csv,RLVersionA.csv,"Relational Version A","Relational, read only version A",DRINK,SIP,Study1,B,27,46,Study,User,-,,Study/JOL,"Study Phase",1545,,,-1,-1,,,,1
5e5d8d190272740aa1029258,x75xm9ac6q,"Deep vs Shallow",1,51,2020-07-08T14:28:34-07:00,1.9876980781555,1,versionA_stim.csv,RLVersionA.csv,"Relational Version A","Relational, read only version A",WORK,CHORE,Study1,B,39,25,Study,User,-,,Study/JOL,"Study Phase",1462,,,-1,-1,,,,1
5e5d8d190272740aa1029258,x75xm9ac6q,"Deep vs Shallow",1,52,2020-07-08T14:28:36-07:00,2.4069719314575,1,versionA_stim.csv,RLVersionA.csv,"Relational Version A","Relational, read only version A",LAW,ATTORNEY,Study1,B,34,8,Study,User,-,,Study/JOL,"Study Phase",1631,,,-1,-1,,,,1
5e5d8d190272740aa1029258,x75xm9ac6q,"Deep vs Shallow",1,53,2020-07-08T14:28:38-07:00,1.8696451187134,1,versionA_stim.csv,RLVersionA.csv,"Relational Version A","Relational, read only version A",DEATH,BUSINESS,Study1,U,72,47,Study,User,-,,Study/JOL,"Study Phase",1326,,,-1,-1,,,,1
5e5d8d190272740aa1029258,x75xm9ac6q,"Deep vs Shallow",1,54,2020-07-08T14:28:40-07:00,1.9987499713898,1,versionA_stim.csv,RLVersionA.csv,"Relational Version A","Relational, read only version A",DIGESTION,STOMACH,Study1,F,7,17,Study,User,-,,Study/JOL,"Study Phase",1455,,,-1,-1,,,,1
5e5d8d190272740aa1029258,x75xm9ac6q,"Deep vs Shallow",1,55,2020-07-08T14:28:43-07:00,2.4611489772797,1,versionA_stim.csv,RLVersionA.csv,"Relational Version A","Relational, read only version A",CLOTHES,ATTIRE,Study1,B,43,43,Study,User,-,,Study/JOL,"Study Phase",1797,,,-1,-1,,,,1
5e5d8d190272740aa1029258,x75xm9ac6q,"Deep vs Shallow",1,56,2020-07-08T14:28:45-07:00,2.1150858402252,1,versionA_stim.csv,RLVersionA.csv,"Relational Version A","Relational, read only version A",CASH,WOULD,Study1,U,83,80,Study,User,-,,Study/JOL,"Study Phase",1561,,,-1,-1,,,,1
5e5d8d190272740aa1029258,x75xm9ac6q,"Deep vs Shallow",1,57,2020-07-08T14:28:47-07:00,2.1677260398865,1,versionA_stim.csv,RLVersionA.csv,"Relational Version A","Relational, read only version A",POP,SODA,Study1,S,56,50,Study,User,-,,Study/JOL,"Study Phase",1617,,,-1,-1,,,,1
5e5d8d190272740aa1029258,x75xm9ac6q,"Deep vs Shallow",1,58,2020-07-08T14:28:49-07:00,1.8610980510712,1,versionA_stim.csv,RLVersionA.csv,"Relational Version A","Relational, read only version A",DIETARY,SACKING,Study1,U,67,74,Study,User,-,,Study/JOL,"Study Phase",1289,,,-1,-1,,,,1
5e5d8d190272740aa1029258,x75xm9ac6q,"Deep vs Shallow",1,59,2020-07-08T14:28:54-07:00,5.0812420845032,1,versionA_stim.csv,RLVersionA.csv,"Relational Version A","Relational, read only version A",HIDE,SICK,Study1,U,84,81,Study,User,-,,Study/JOL,"Study Phase",3329,,,-1,-1,,,,1
5e5d8d190272740aa1029258,x75xm9ac6q,"Deep vs Shallow",1,60,2020-07-08T14:28:56-07:00,2.2041590213776,1,versionA_stim.csv,RLVersionA.csv,"Relational Version A","Relational, read only version A",BITTER,COLD,Study1,F,12,35,Study,User,-,,Study/JOL,"Study Phase",1348,,,-1,-1,,,,1
5e5d8d190272740aa1029258,x75xm9ac6q,"Deep vs Shallow",1,61,2020-07-08T14:28:58-07:00,1.989578962326,1,versionA_stim.csv,RLVersionA.csv,"Relational Version A","Relational, read only version A",BALL,RACKET,Study1,B,38,69,Study,User,-,,Study/JOL,"Study Phase",1396,,,-1,-1,,,,1
5e5d8d190272740aa1029258,x75xm9ac6q,"Deep vs Shallow",1,62,2020-07-08T14:29:01-07:00,2.3944339752197,1,versionA_stim.csv,RLVersionA.csv,"Relational Version A","Relational, read only version A",DUE,ASSIGNMENT,Study1,S,46,7,Study,User,-,,Study/JOL,"Study Phase",1687,,,-1,-1,,,,1
5e5d8d190272740aa1029258,x75xm9ac6q,"Deep vs Shallow",1,63,2020-07-08T14:29:03-07:00,2.4236419200897,1,versionA_stim.csv,RLVersionA.csv,"Relational Version A","Relational, read only version A",DARK,CAVE,Study1,B,28,58,Study,User,-,,Study/JOL,"Study Phase",1673,,,-1,-1,,,,1
5e5d8d190272740aa1029258,x75xm9ac6q,"Deep vs Shallow",1,64,2020-07-08T14:29:05-07:00,2.4153339862823,1,versionA_stim.csv,RLVersionA.csv,"Relational Version A","Relational, read only version A",CREDIT,CARD,Study1,F,23,14,Study,User,-,,Study/JOL,"Study Phase",1718,,,-1,-1,,,,1
5e5d8d190272740aa1029258,x75xm9ac6q,"Deep vs Shallow",1,65,2020-07-08T14:29:07-07:00,1.9335470199585,1,versionA_stim.csv,RLVersionA.csv,"Relational Version A","Relational, read only version A",SHOE,FOOT,Study1,S,60,26,Study,User,-,,Study/JOL,"Study Phase",1359,,,-1,-1,,,,1
5e5d8d190272740aa1029258,x75xm9ac6q,"Deep vs Shallow",1,66,2020-07-08T14:29:10-07:00,2.1902351379395,1,versionA_stim.csv,RLVersionA.csv,"Relational Version A","Relational, read only version A",BUG,WASP,Study1,B,32,18,Study,User,-,,Study/JOL,"Study Phase",1636,,,-1,-1,,,,1
5e5d8d190272740aa1029258,x75xm9ac6q,"Deep vs Shallow",1,67,2020-07-08T14:29:12-07:00,2.4168319702148,1,versionA_stim.csv,RLVersionA.csv,"Relational Version A","Relational, read only version A",DELINQUENT,BAD,Study1,F,6,72,Study,User,-,,Study/JOL,"Study Phase",1733,,,-1,-1,,,,1
5e5d8d190272740aa1029258,x75xm9ac6q,"Deep vs Shallow",1,68,2020-07-08T14:29:14-07:00,2.4679088592529,1,versionA_stim.csv,RLVersionA.csv,"Relational Version A","Relational, read only version A",LOCATION,SITE,Study1,S,48,32,Study,User,-,,Study/JOL,"Study Phase",1818,,,-1,-1,,,,1
5e5d8d190272740aa1029258,x75xm9ac6q,"Deep vs Shallow",1,69,2020-07-08T14:29:17-07:00,2.409805059433,1,versionA_stim.csv,RLVersionA.csv,"Relational Version A","Relational, read only version A",HONEY,BEE,Study1,S,63,62,Study,User,-,,Study/JOL,"Study Phase",1705,,,-1,-1,,,,1
5e5d8d190272740aa1029258,x75xm9ac6q,"Deep vs Shallow",1,70,2020-07-08T14:29:19-07:00,2.0191609859467,1,versionA_stim.csv,RLVersionA.csv,"Relational Version A","Relational, read only version A",HEIGHT,GROWTH,Study1,B,30,30,Study,User,-,,Study/JOL,"Study Phase",1469,,,-1,-1,,,,1
5e5d8d190272740aa1029258,x75xm9ac6q,"Deep vs Shallow",1,71,2020-07-08T14:29:21-07:00,2.1325650215149,1,versionA_stim.csv,RLVersionA.csv,"Relational Version A","Relational, read only version A",CIRCLE,ROUND,Study1,S,65,41,Study,User,-,,Study/JOL,"Study Phase",1570,,,-1,-1,,,,1
5e5d8d190272740aa1029258,x75xm9ac6q,"Deep vs Shallow",1,72,2020-07-08T14:29:23-07:00,2.4475400447845,1,versionA_stim.csv,RLVersionA.csv,"Relational Version A","Relational, read only version A",GRILL,BAR,Study1,S,52,54,Study,User,-,,Study/JOL,"Study Phase",1782,,,-1,-1,,,,1
5e5d8d190272740aa1029258,x75xm9ac6q,"Deep vs Shallow",1,73,2020-07-08T14:29:25-07:00,1.8949520587921,1,versionA_stim.csv,RLVersionA.csv,"Relational Version A","Relational, read only version A",REVOLUTION,WAR,Study1,F,20,13,Study,User,-,,Study/JOL,"Study Phase",1327,,,-1,-1,,,,1
5e5d8d190272740aa1029258,x75xm9ac6q,"Deep vs Shallow",1,74,2020-07-08T14:29:27-07:00,1.8925929069519,1,versionA_stim.csv,RLVersionA.csv,"Relational Version A","Relational, read only version A",BEGIN,END,Study1,S,54,67,Study,User,-,,Study/JOL,"Study Phase",1362,,,-1,-1,,,,1
5e5d8d190272740aa1029258,x75xm9ac6q,"Deep vs Shallow",1,75,2020-07-08T14:29:29-07:00,2.1002719402313,1,versionA_stim.csv,RLVersionA.csv,"Relational Version A","Relational, read only version A",ALLOW,TUCK,Study1,U,78,64,Study,User,-,,Study/JOL,"Study Phase",1549,,,-1,-1,,,,1
5e5d8d190272740aa1029258,x75xm9ac6q,"Deep vs Shallow",1,76,2020-07-08T14:29:32-07:00,2.422021150589,1,versionA_stim.csv,RLVersionA.csv,"Relational Version A","Relational, read only version A",ROOT,PLANT,Study1,F,13,12,Study,User,-,,Study/JOL,"Study Phase",1772,,,-1,-1,,,,1
5e5d8d190272740aa1029258,x75xm9ac6q,"Deep vs Shallow",1,77,2020-07-08T14:29:34-07:00,2.7002489566803,1,versionA_stim.csv,RLVersionA.csv,"Relational Version A","Relational, read only version A",SOON,BELT,Study1,U,70,83,Study,User,-,,Study/JOL,"Study Phase",2027,,,-1,-1,,,,1
5e5d8d190272740aa1029258,x75xm9ac6q,"Deep vs Shallow",1,78,2020-07-08T14:29:37-07:00,2.7631859779358,1,versionA_stim.csv,RLVersionA.csv,"Relational Version A","Relational, read only version A",HYGIENE,CLEAN,Study1,F,17,36,Study,User,-,,Study/JOL,"Study Phase",2102,,,-1,-1,,,,1
5e5d8d190272740aa1029258,x75xm9ac6q,"Deep vs Shallow",1,79,2020-07-08T14:29:39-07:00,1.7756998538971,1,versionA_stim.csv,RLVersionA.csv,"Relational Version A","Relational, read only version A",MACHINE,POSITION,Study1,U,76,37,Study,User,-,,Study/JOL,"Study Phase",1195,,,-1,-1,,,,1
5e5d8d190272740aa1029258,x75xm9ac6q,"Deep vs Shallow",1,80,2020-07-08T14:29:42-07:00,2.8976790904999,1,versionA_stim.csv,RLVersionA.csv,"Relational Version A","Relational, read only version A",TRIAL,JURY,Study1,S,50,38,Study,User,-,,Study/JOL,"Study Phase",2238,,,-1,-1,,,,1
5e5d8d190272740aa1029258,x75xm9ac6q,"Deep vs Shallow",1,81,2020-07-08T14:29:44-07:00,1.8172590732574,1,versionA_stim.csv,RLVersionA.csv,"Relational Version A","Relational, read only version A",HOT,CHILI,Study1,B,37,11,Study,User,-,,Study/JOL,"Study Phase",1236,,,-1,-1,,,,1
5e5d8d190272740aa1029258,x75xm9ac6q,"Deep vs Shallow",1,82,2020-07-08T14:29:45-07:00,1.7598760128021,1,versionA_stim.csv,RLVersionA.csv,"Relational Version A","Relational, read only version A",KING,VASE,Study1,U,85,23,Study,User,-,,Study/JOL,"Study Phase",1195,,,-1,-1,,,,1
5e5d8d190272740aa1029258,x75xm9ac6q,"Deep vs Shallow",1,83,2020-07-08T14:29:48-07:00,2.4718840122223,1,versionA_stim.csv,RLVersionA.csv,"Relational Version A","Relational, read only version A",FULL,ENOUGH,Study1,B,26,24,Study,User,-,,Study/JOL,"Study Phase",1711,,,-1,-1,,,,1
5e5d8d190272740aa1029258,x75xm9ac6q,"Deep vs Shallow",1,84,2020-07-08T14:29:49-07:00,1.5311720371246,1,versionA_stim.csv,RLVersionA.csv,"Relational Version A","Relational, read only version A",ARCHITECTURE,DESIGN,Study1,S,51,33,Study,User,-,,Study/JOL,"Study Phase",969,,,-1,-1,,,,1
5e5d8d190272740aa1029258,x75xm9ac6q,"Deep vs Shallow",1,85,2020-07-08T14:29:51-07:00,1.8735449314117,1,versionA_stim.csv,RLVersionA.csv,"Relational Version A","Relational, read only version A",ARTERY,BRONZE,Study1,U,74,29,Study,User,-,,Study/JOL,"Study Phase",1298,,,-1,-1,,,,1
5e5d8d190272740aa1029258,x75xm9ac6q,"Deep vs Shallow",1,86,2020-07-08T14:29:53-07:00,1.7748219966888,1,versionA_stim.csv,RLVersionA.csv,"Relational Version A","Relational, read only version A",CHISEL,HAMMER,Study1,F,9,20,Study,User,-,,Study/JOL,"Study Phase",1209,,,-1,-1,,,,1
5e5d8d190272740aa1029258,x75xm9ac6q,"Deep vs Shallow",1,87,2020-07-08T14:29:55-07:00,2.0959348678589,1,versionA_stim.csv,RLVersionA.csv,"Relational Version A","Relational, read only version A",FIRE,BLAZE,Study1,B,45,16,Study,User,-,,Study/JOL,"Study Phase",1549,,,-1,-1,,,,1
5e5d8d190272740aa1029258,x75xm9ac6q,"Deep vs Shallow",1,88,2020-07-08T14:29:57-07:00,1.7072470188141,1,versionA_stim.csv,RLVersionA.csv,"Relational Version A","Relational, read only version A",SMELL,STENCH,Study1,B,42,34,Study,User,-,,Study/JOL,"Study Phase",1173,,,-1,-1,,,,1
5e5d8d190272740aa1029258,x75xm9ac6q,"Deep vs Shallow",1,89,2020-07-08T14:29:59-07:00,2.0879380702972,1,versionA_stim.csv,RLVersionA.csv,"Relational Version A","Relational, read only version A",SENTENCE,WORD,Study1,B,31,45,Study,User,-,,Study/JOL,"Study Phase",1580,,,-1,-1,,,,1
5e5d8d190272740aa1029258,x75xm9ac6q,"Deep vs Shallow",1,90,2020-07-08T14:30:02-07:00,2.7304019927979,1,versionA_stim.csv,RLVersionA.csv,"Relational Version A","Relational, read only version A",WINE,CHEESE,Study1,S,57,42,Study,User,-,,Study/JOL,"Study Phase",2115,,,-1,-1,,,,1
5e5d8d190272740aa1029258,x75xm9ac6q,"Deep vs Shallow",1,91,2020-07-08T14:30:04-07:00,2.1158649921417,1,versionA_stim.csv,RLVersionA.csv,"Relational Version A","Relational, read only version A",GEESE,GOOSE,BUFFER2,Buffer,86,89,Study,User,-,,Study/JOL,BUFFER2,1536,,,-1,-1,,,,1
5e5d8d190272740aa1029258,x75xm9ac6q,"Deep vs Shallow",1,92,2020-07-08T14:30:06-07:00,1.9264330863953,1,versionA_stim.csv,RLVersionA.csv,"Relational Version A","Relational, read only version A",MOON,SPACE,BUFFER2,Buffer,89,91,Study,User,-,,Study/JOL,BUFFER2,1414,,,-1,-1,,,,1
5e5d8d190272740aa1029258,x75xm9ac6q,"Deep vs Shallow",1,93,2020-07-08T14:30:08-07:00,1.9673178195953,1,versionA_stim.csv,RLVersionA.csv,"Relational Version A","Relational, read only version A",MALT,CHOCOLATE,BUFFER2,Buffer,88,87,Study,User,-,,Study/JOL,BUFFER2,1436,,,-1,-1,,,,1
5e5d8d190272740aa1029258,x75xm9ac6q,"Deep vs Shallow",1,94,2020-07-08T14:30:10-07:00,1.9683241844177,1,versionA_stim.csv,RLVersionA.csv,"Relational Version A","Relational, read only version A",THING,STUFF,BUFFER2,Buffer,90,90,Study,User,-,,Study/JOL,BUFFER2,1433,,,-1,-1,,,,1
5e5d8d190272740aa1029258,x75xm9ac6q,"Deep vs Shallow",1,95,2020-07-08T14:30:12-07:00,1.9850568771362,1,versionA_stim.csv,RLVersionA.csv,"Relational Version A","Relational, read only version A",SHERRIF,POLICE,BUFFER2,Buffer,87,88,Study,User,-,,Study/JOL,BUFFER2,1438,,,-1,-1,,,,1
5e5d8d190272740aa1029258,x75xm9ac6q,"Deep vs Shallow",1,96,2020-07-08T14:30:16-07:00,4.5743319988251,1,versionA_stim.csv,RLVersionA.csv,"Relational Version A","Relational, read only version A",,,,,,0,Instruct,User,-,"You have completed this section. Please press Enter.",Filler_Instruction,Instruct2,3860,,,-1,-1,,,,1
5e5d8d190272740aa1029258,x75xm9ac6q,"Deep vs Shallow",1,97,2020-07-08T14:30:19-07:00,2.6671040058136,1,versionA_stim.csv,RLVersionA.csv,"Relational Version A","Relational, read only version A",,,,,,0,Instruct,User,-,"You have completed this section. Please press Enter.",Filler_Instruction,Instruct5,1981,,,-1,-1,,,,1
5e5d8d190272740aa1029258,x75xm9ac6q,"Deep vs Shallow",1,98,2020-07-08T14:30:44-07:00,25.295367002487,1,versionA_stim.csv,RLVersionA.csv,"Relational Version A","Relational, read only version A",,,,,,0,FreeRecall,-,10,"What were you supposed to focus on while you studied each pair? (Hint: Think back to the instructions). Type your answer in the space below.",,CHECK3,24617,"I was supposed to focus on how the pairs of words are related to each other.",0,8007,19828,0,0,,1
5e5d8d190272740aa1029258,x75xm9ac6q,"Deep vs Shallow",1,99,2020-07-08T14:32:45-07:00,120.68696713448,1,versionA_stim.csv,RLVersionA.csv,"Relational Version A","Relational, read only version A",,,,,,0,FreeRecall,120,120,"Please list the 50 US states in alphabetical order. The task will automatically advance to the next screen after two minutes.",,Filler1,120011,"Alaska, Arizona, California, Colorado, Delaware, Florida, Hawaii, Idaho, Illinoisndiana,",0,15346,118872,0,0,,1
5e5d8d190272740aa1029258,x75xm9ac6q,"Deep vs Shallow",1,100,2020-07-08T14:32:56-07:00,11.514078855515,1,versionA_stim.csv,RLVersionA.csv,"Relational Version A","Relational, read only version A",,,,,,0,Instruct,-,10,"You will now be presented with the first word from each of the previously studied item pairs. Please type the missing word. If you do not know the word, you may guess or press Enter to skip forward to the next pair.",,Instruct3,10692,,,-1,-1,,,,1
5e5d8d190272740aa1029258,x75xm9ac6q,"Deep vs Shallow",1,101,2020-07-08T14:33:02-07:00,5.11559009552,1,versionA_stim.csv,RLVersionA.csv,"Relational Version A","Relational, read only version A",TUNA,FISH,Study1,F,25,39,Test,User,-,,Recall,Recall1,4330,fish,100,2359,2594,1,1,,1
5e5d8d190272740aa1029258,x75xm9ac6q,"Deep vs Shallow",1,102,2020-07-08T14:33:21-07:00,19.49843287468,1,versionA_stim.csv,RLVersionA.csv,"Relational Version A","Relational, read only version A",KING,VASE,Study1,U,85,23,Test,User,-,,Recall,Recall1,18834,vase,100,16875,17354,1,1,,1
5e5d8d190272740aa1029258,x75xm9ac6q,"Deep vs Shallow",1,103,2020-07-08T14:33:31-07:00,9.8027989864349,1,versionA_stim.csv,RLVersionA.csv,"Relational Version A","Relational, read only version A",TRIAL,JURY,Study1,S,50,38,Test,User,-,,Recall,Recall1,9154,jury,100,7745,8084,1,1,,1
5e5d8d190272740aa1029258,x75xm9ac6q,"Deep vs Shallow",1,104,2020-07-08T14:33:37-07:00,6.3401310443878,1,versionA_stim.csv,RLVersionA.csv,"Relational Version A","Relational, read only version A",ARCHITECTURE,DESIGN,Study1,S,51,33,Test,User,-,,Recall,Recall1,5699,design,100,4047,4636,1,1,,1
5e5d8d190272740aa1029258,x75xm9ac6q,"Deep vs Shallow",1,105,2020-07-08T14:33:50-07:00,12.61394906044,1,versionA_stim.csv,RLVersionA.csv,"Relational Version A","Relational, read only version A",REVOLUTION,WAR,Study1,F,20,13,Test,User,-,,Recall,Recall1,11976,war,100,9327,10876,1,1,,1
5e5d8d190272740aa1029258,x75xm9ac6q,"Deep vs Shallow",1,106,2020-07-08T14:34:09-07:00,19.087501049042,1,versionA_stim.csv,RLVersionA.csv,"Relational Version A","Relational, read only version A",LAW,ATTORNEY,Study1,B,34,8,Test,User,-,,Recall,Recall1,18470,lawyer,28.571428571429,15474,17094,0,0,,1
5e5d8d190272740aa1029258,x75xm9ac6q,"Deep vs Shallow",1,107,2020-07-08T14:34:25-07:00,16.198179006577,1,versionA_stim.csv,RLVersionA.csv,"Relational Version A","Relational, read only version A",SLEEP,DROWSY,Study1,B,41,40,Test,User,-,,Recall,Recall1,15540,drowsy,100,12857,13895,1,1,,1
5e5d8d190272740aa1029258,x75xm9ac6q,"Deep vs Shallow",1,108,2020-07-08T14:35:07-07:00,41.752598047256,1,versionA_stim.csv,RLVersionA.csv,"Relational Version A","Relational, read only version A",WINE,CHEESE,Study1,S,57,42,Test,User,-,,Recall,Recall1,40027,cheese,100,38717,39482,1,1,,1
5e5d8d190272740aa1029258,x75xm9ac6q,"Deep vs Shallow",1,109,2020-07-08T14:35:34-07:00,26.922044992447,1,versionA_stim.csv,RLVersionA.csv,"Relational Version A","Relational, read only version A",HERD,COW,Study1,F,22,65,Test,User,-,,Recall,Recall1,26278,cow,100,23418,23944,1,1,,1
5e5d8d190272740aa1029258,x75xm9ac6q,"Deep vs Shallow",1,110,2020-07-08T14:36:02-07:00,27.971834897995,1,versionA_stim.csv,RLVersionA.csv,"Relational Version A","Relational, read only version A",SMELL,STENCH,Study1,B,42,34,Test,User,-,,Recall,Recall1,27309,nose,20,26227,26588,0,0,,1
5e5d8d190272740aa1029258,x75xm9ac6q,"Deep vs Shallow",1,111,2020-07-08T14:36:06-07:00,4.1587879657745,1,versionA_stim.csv,RLVersionA.csv,"Relational Version A","Relational, read only version A",ROOT,PLANT,Study1,F,13,12,Test,User,-,,Recall,Recall1,3499,tree,22.222222222222,2586,3002,0,0,,1
5e5d8d190272740aa1029258,x75xm9ac6q,"Deep vs Shallow",1,112,2020-07-08T14:36:52-07:00,45.949285984039,1,versionA_stim.csv,RLVersionA.csv,"Relational Version A","Relational, read only version A",LETTUCE,SALAD,Study1,S,59,82,Test,User,-,,Recall,Recall1,45263,burger,0,43818,44619,0,0,,1
5e5d8d190272740aa1029258,x75xm9ac6q,"Deep vs Shallow",1,113,2020-07-08T14:37:27-07:00,35.290344953537,1,versionA_stim.csv,RLVersionA.csv,"Relational Version A","Relational, read only version A",CASH,WOULD,Study1,U,83,80,Test,User,-,,Recall,Recall1,34641,credit,18.181818181818,32228,33597,0,0,,1
5e5d8d190272740aa1029258,x75xm9ac6q,"Deep vs Shallow",1,114,2020-07-08T14:37:31-07:00,3.6822361946106,1,versionA_stim.csv,RLVersionA.csv,"Relational Version A","Relational, read only version A",BATHROOM,TOILET,Study1,S,58,49,Test,User,-,,Recall,Recall1,3090,toilet,100,1902,2501,1,1,,1
5e5d8d190272740aa1029258,x75xm9ac6q,"Deep vs Shallow",1,115,2020-07-08T14:37:39-07:00,8.2214579582214,1,versionA_stim.csv,RLVersionA.csv,"Relational Version A","Relational, read only version A",BITTER,COLD,Study1,F,12,35,Test,User,-,,Recall,Recall1,7581,cold,100,5466,6951,1,1,,1
5e5d8d190272740aa1029258,x75xm9ac6q,"Deep vs Shallow",1,116,2020-07-08T14:38:06-07:00,26.56547999382,1,versionA_stim.csv,RLVersionA.csv,"Relational Version A","Relational, read only version A",PAW,DOG,Study1,F,15,56,Test,User,-,,Recall,Recall1,25908,dog,100,24134,24394,1,1,,1
5e5d8d190272740aa1029258,x75xm9ac6q,"Deep vs Shallow",1,117,2020-07-08T14:38:09-07:00,3.1595098972321,1,versionA_stim.csv,RLVersionA.csv,"Relational Version A","Relational, read only version A",DELINQUENT,BAD,Study1,F,6,72,Test,User,-,,Recall,Recall1,2486,bad,100,1751,1971,1,1,,1
5e5d8d190272740aa1029258,x75xm9ac6q,"Deep vs Shallow",1,118,2020-07-08T14:38:13-07:00,3.7607131004333,1,versionA_stim.csv,RLVersionA.csv,"Relational Version A","Relational, read only version A",HEIGHT,GROWTH,Study1,B,30,30,Test,User,-,,Recall,Recall1,3100,weight,33.333333333333,1658,2360,0,0,,1
5e5d8d190272740aa1029258,x75xm9ac6q,"Deep vs Shallow",1,119,2020-07-08T14:38:16-07:00,3.3989548683167,1,versionA_stim.csv,RLVersionA.csv,"Relational Version A","Relational, read only version A",PLANE,PILOT,Study1,B,44,31,Test,User,-,,Recall,Recall1,2779,pilot,100,1644,2207,1,1,,1
5e5d8d190272740aa1029258,x75xm9ac6q,"Deep vs Shallow",1,120,2020-07-08T14:39:08-07:00,52.253394126892,1,versionA_stim.csv,RLVersionA.csv,"Relational Version A","Relational, read only version A",DEATH,BUSINESS,Study1,U,72,47,Test,User,-,,Recall,Recall1,51580,business,100,49267,50557,1,1,,1
5e5d8d190272740aa1029258,x75xm9ac6q,"Deep vs Shallow",1,121,2020-07-08T14:39:58-07:00,49.432740926743,1,versionA_stim.csv,RLVersionA.csv,"Relational Version A","Relational, read only version A",DUE,ASSIGNMENT,Study1,S,46,7,Test,User,-,,Recall,Recall1,48552,assignment,100,44980,47432,1,1,,0.996
5e5d8d190272740aa1029258,x75xm9ac6q,"Deep vs Shallow",1,122,2020-07-08T14:40:16-07:00,17.977575063705,1,versionA_stim.csv,RLVersionA.csv,"Relational Version A","Relational, read only version A",EDITOR,NEWS,Study1,F,10,57,Test,User,-,,Recall,Recall1,17289,news,100,15779,16822,1,1,,1
5e5d8d190272740aa1029258,x75xm9ac6q,"Deep vs Shallow",1,123,2020-07-08T14:40:28-07:00,12.267653942108,1,versionA_stim.csv,RLVersionA.csv,"Relational Version A","Relational, read only version A",LIFT,WOMAN,Study1,U,69,60,Test,User,-,,Recall,Recall1,11602,woman,100,10597,10927,1,1,,1
5e5d8d190272740aa1029258,x75xm9ac6q,"Deep vs Shallow",1,124,2020-07-08T14:40:32-07:00,3.7641670703888,1,versionA_stim.csv,RLVersionA.csv,"Relational Version A","Relational, read only version A",DIETARY,SACKING,Study1,U,67,74,Test,User,-,,Recall,Recall1,3095,sacking,100,1821,2549,1,1,,1
5e5d8d190272740aa1029258,x75xm9ac6q,"Deep vs Shallow",1,125,2020-07-08T14:40:42-07:00,10.175994873047,1,versionA_stim.csv,RLVersionA.csv,"Relational Version A","Relational, read only version A",DUMP,WASTE,Study1,S,49,15,Test,User,-,,Recall,Recall1,9539,waste,100,8064,8506,1,1,,1
5e5d8d190272740aa1029258,x75xm9ac6q,"Deep vs Shallow",1,126,2020-07-08T14:40:56-07:00,13.941012144089,1,versionA_stim.csv,RLVersionA.csv,"Relational Version A","Relational, read only version A",GRILL,BAR,Study1,S,52,54,Test,User,-,,Recall,Recall1,13312,cook,0,12419,12682,0,0,,1
5e5d8d190272740aa1029258,x75xm9ac6q,"Deep vs Shallow",1,127,2020-07-08T14:41:23-07:00,27.145030021667,1,versionA_stim.csv,RLVersionA.csv,"Relational Version A","Relational, read only version A",FIX,HAND,Study1,U,75,85,Test,User,-,,Recall,Recall1,25169,broken,20,23572,24154,0,0,,1
5e5d8d190272740aa1029258,x75xm9ac6q,"Deep vs Shallow",1,128,2020-07-08T14:41:45-07:00,22.268657922745,1,versionA_stim.csv,RLVersionA.csv,"Relational Version A","Relational, read only version A",ALLOW,TUCK,Study1,U,78,64,Test,User,-,,Recall,Recall1,21629,tuck,100,19481,20029,1,1,,1
5e5d8d190272740aa1029258,x75xm9ac6q,"Deep vs Shallow",1,129,2020-07-08T14:41:56-07:00,10.738168001175,1,versionA_stim.csv,RLVersionA.csv,"Relational Version A","Relational, read only version A",CREDIT,CARD,Study1,F,23,14,Test,User,-,,Recall,Recall1,10069,card,100,9330,9828,1,1,,1
5e5d8d190272740aa1029258,x75xm9ac6q,"Deep vs Shallow",1,130,2020-07-08T14:42:00-07:00,3.6586349010468,1,versionA_stim.csv,RLVersionA.csv,"Relational Version A","Relational, read only version A",KIDNEY,LIVER,Study1,S,53,28,Test,User,-,,Recall,Recall1,3003,liver,100,2135,2558,1,1,,1
5e5d8d190272740aa1029258,x75xm9ac6q,"Deep vs Shallow",1,131,2020-07-08T14:42:21-07:00,21.584001064301,1,versionA_stim.csv,RLVersionA.csv,"Relational Version A","Relational, read only version A",NUMBER,AMOUNT,Study1,S,47,68,Test,User,-,,Recall,Recall1,20946,amount,100,19807,20281,1,1,,1
5e5d8d190272740aa1029258,x75xm9ac6q,"Deep vs Shallow",1,132,2020-07-08T14:42:26-07:00,4.5284380912781,1,versionA_stim.csv,RLVersionA.csv,"Relational Version A","Relational, read only version A",MEANING,DEFINITION,Study1,S,62,76,Test,User,-,,Recall,Recall1,3893,definition,100,2188,3186,1,1,,1
5e5d8d190272740aa1029258,x75xm9ac6q,"Deep vs Shallow",1,133,2020-07-08T14:42:39-07:00,13.37221288681,1,versionA_stim.csv,RLVersionA.csv,"Relational Version A","Relational, read only version A",POP,SODA,Study1,S,56,50,Test,User,-,,Recall,Recall1,12691,soda,100,11891,12182,1,1,,1
5e5d8d190272740aa1029258,x75xm9ac6q,"Deep vs Shallow",1,134,2020-07-08T14:42:52-07:00,12.585698127747,1,versionA_stim.csv,RLVersionA.csv,"Relational Version A","Relational, read only version A",CIRCLE,ROUND,Study1,S,65,41,Test,User,-,,Recall,Recall1,11910,sphere,18.181818181818,10586,11459,0,0,,1
5e5d8d190272740aa1029258,x75xm9ac6q,"Deep vs Shallow",1,135,2020-07-08T14:42:55-07:00,2.9969899654388,1,versionA_stim.csv,RLVersionA.csv,"Relational Version A","Relational, read only version A",ORCHID,FLOWER,Study1,F,24,19,Test,User,-,,Recall,Recall1,2342,flower,100,1369,1957,1,1,,1
5e5d8d190272740aa1029258,x75xm9ac6q,"Deep vs Shallow",1,136,2020-07-08T14:42:59-07:00,4.2180280685425,1,versionA_stim.csv,RLVersionA.csv,"Relational Version A","Relational, read only version A",PAST,FUTURE,Study1,S,61,77,Test,User,-,,Recall,Recall1,3587,future,100,2541,3134,1,1,,1
5e5d8d190272740aa1029258,x75xm9ac6q,"Deep vs Shallow",1,137,2020-07-08T14:43:02-07:00,3.3098828792572,1,versionA_stim.csv,RLVersionA.csv,"Relational Version A","Relational, read only version A",BUG,WASP,Study1,B,32,18,Test,User,-,,Recall,Recall1,2650,insect,20,1285,2366,0,0,,1
5e5d8d190272740aa1029258,x75xm9ac6q,"Deep vs Shallow",1,138,2020-07-08T14:44:20-07:00,78.281892061234,1,versionA_stim.csv,RLVersionA.csv,"Relational Version A","Relational, read only version A",TAKE,SEIZE,Study1,B,29,22,Test,User,-,,Recall,Recall1,77580,give,44.444444444444,76608,77016,0,0,,1
5e5d8d190272740aa1029258,x75xm9ac6q,"Deep vs Shallow",1,139,2020-07-08T14:44:24-07:00,3.1637659072876,1,versionA_stim.csv,RLVersionA.csv,"Relational Version A","Relational, read only version A",HORNET,STING,Study1,F,11,27,Test,User,-,,Recall,Recall1,2495,sting,100,1533,1929,1,1,,1
5e5d8d190272740aa1029258,x75xm9ac6q,"Deep vs Shallow",1,140,2020-07-08T14:46:00-07:00,96.120676994324,1,versionA_stim.csv,RLVersionA.csv,"Relational Version A","Relational, read only version A",LOCATION,SITE,Study1,S,48,32,Test,User,-,,Recall,Recall1,95445,place,22.222222222222,94589,94984,0,0,,1
5e5d8d190272740aa1029258,x75xm9ac6q,"Deep vs Shallow",1,141,2020-07-08T14:46:14-07:00,14.070359945297,1,versionA_stim.csv,RLVersionA.csv,"Relational Version A","Relational, read only version A",MACHINE,POSITION,Study1,U,76,37,Test,User,-,,Recall,Recall1,13388,position,100,11596,12738,1,1,,1
5e5d8d190272740aa1029258,x75xm9ac6q,"Deep vs Shallow",1,142,2020-07-08T14:46:20-07:00,6.0758101940155,1,versionA_stim.csv,RLVersionA.csv,"Relational Version A","Relational, read only version A",SOON,BELT,Study1,U,70,83,Test,User,-,,Recall,Recall1,5404,belt,100,4244,4657,1,1,,1
5e5d8d190272740aa1029258,x75xm9ac6q,"Deep vs Shallow",1,143,2020-07-08T14:46:25-07:00,5.0152559280396,1,versionA_stim.csv,RLVersionA.csv,"Relational Version A","Relational, read only version A",SENTENCE,WORD,Study1,B,31,45,Test,User,-,,Recall,Recall1,4334,word,100,3524,3910,1,1,,1
5e5d8d190272740aa1029258,x75xm9ac6q,"Deep vs Shallow",1,144,2020-07-08T14:46:31-07:00,6.5114459991455,1,versionA_stim.csv,RLVersionA.csv,"Relational Version A","Relational, read only version A",PUSHER,CLUTTER,Study1,U,66,21,Test,User,-,,Recall,Recall1,5860,puller,46.153846153846,3120,3888,0,0,,1
5e5d8d190272740aa1029258,x75xm9ac6q,"Deep vs Shallow",1,145,2020-07-08T14:46:58-07:00,26.820837020874,1,versionA_stim.csv,RLVersionA.csv,"Relational Version A","Relational, read only version A",BALL,RACKET,Study1,B,38,69,Test,User,-,,Recall,Recall1,26136,park,40,24834,25462,0,0,,1
5e5d8d190272740aa1029258,x75xm9ac6q,"Deep vs Shallow",1,146,2020-07-08T14:47:01-07:00,2.9816598892212,1,versionA_stim.csv,RLVersionA.csv,"Relational Version A","Relational, read only version A",DRINK,SIP,Study1,B,27,46,Test,User,-,,Recall,Recall1,2328,sip,100,1579,1679,1,1,,1
5e5d8d190272740aa1029258,x75xm9ac6q,"Deep vs Shallow",1,147,2020-07-08T14:47:05-07:00,4.1297149658203,1,versionA_stim.csv,RLVersionA.csv,"Relational Version A","Relational, read only version A",WORK,CHORE,Study1,B,39,25,Test,User,-,,Recall,Recall1,3481,chore,100,2703,3094,1,1,,1
5e5d8d190272740aa1029258,x75xm9ac6q,"Deep vs Shallow",1,148,2020-07-08T14:47:09-07:00,3.4166181087494,1,versionA_stim.csv,RLVersionA.csv,"Relational Version A","Relational, read only version A",CLOTHES,ATTIRE,Study1,B,43,43,Test,User,-,,Recall,Recall1,2772,attire,100,1685,2330,1,1,,1
5e5d8d190272740aa1029258,x75xm9ac6q,"Deep vs Shallow",1,149,2020-07-08T14:47:28-07:00,18.859980106354,1,versionA_stim.csv,RLVersionA.csv,"Relational Version A","Relational, read only version A",DARK,CAVE,Study1,B,28,58,Test,User,-,,Recall,Recall1,18206,shadow,20,16545,17195,0,0,,1
5e5d8d190272740aa1029258,x75xm9ac6q,"Deep vs Shallow",1,150,2020-07-08T14:47:55-07:00,27.862417936325,1,versionA_stim.csv,RLVersionA.csv,"Relational Version A","Relational, read only version A",CHISEL,HAMMER,Study1,F,9,20,Test,User,-,,Recall,Recall1,27205,hammer,100,26194,26676,1,1,,1
5e5d8d190272740aa1029258,x75xm9ac6q,"Deep vs Shallow",1,151,2020-07-08T14:48:04-07:00,8.9636859893799,1,versionA_stim.csv,RLVersionA.csv,"Relational Version A","Relational, read only version A",GEOLOGY,ROCK,Study1,F,19,71,Test,User,-,,Recall,Recall1,8302,science,18.181818181818,7136,7836,0,0,,1
5e5d8d190272740aa1029258,x75xm9ac6q,"Deep vs Shallow",1,152,2020-07-08T14:48:26-07:00,21.679944992065,1,versionA_stim.csv,RLVersionA.csv,"Relational Version A","Relational, read only version A",HIDE,SICK,Study1,U,84,81,Test,User,-,,Recall,Recall1,21001,scare,44.444444444444,20103,20716,0,0,,1
5e5d8d190272740aa1029258,x75xm9ac6q,"Deep vs Shallow",1,153,2020-07-08T14:48:30-07:00,3.7812988758087,1,versionA_stim.csv,RLVersionA.csv,"Relational Version A","Relational, read only version A",STRONG,ACCIDENT,Study1,U,80,51,Test,User,-,,Recall,Recall1,3122,weak,16.666666666667,2168,2449,0,0,,1
5e5d8d190272740aa1029258,x75xm9ac6q,"Deep vs Shallow",1,154,2020-07-08T14:48:34-07:00,4.380763053894,1,versionA_stim.csv,RLVersionA.csv,"Relational Version A","Relational, read only version A",BEGIN,END,Study1,S,54,67,Test,User,-,,Recall,Recall1,3723,end,100,1256,1849,1,1,,1
5e5d8d190272740aa1029258,x75xm9ac6q,"Deep vs Shallow",1,155,2020-07-08T14:48:38-07:00,3.6129190921783,1,versionA_stim.csv,RLVersionA.csv,"Relational Version A","Relational, read only version A",HUNGER,FAMINE,Study1,B,40,48,Test,User,-,,Recall,Recall1,2954,famine,100,1835,2327,1,1,,1
5e5d8d190272740aa1029258,x75xm9ac6q,"Deep vs Shallow",1,156,2020-07-08T14:48:40-07:00,2.5974469184875,1,versionA_stim.csv,RLVersionA.csv,"Relational Version A","Relational, read only version A",HONEY,BEE,Study1,S,63,62,Test,User,-,,Recall,Recall1,1919,bee,100,1232,1661,1,1,,1
5e5d8d190272740aa1029258,x75xm9ac6q,"Deep vs Shallow",1,157,2020-07-08T14:48:49-07:00,8.6774530410767,1,versionA_stim.csv,RLVersionA.csv,"Relational Version A","Relational, read only version A",VALLEY,ADD,Study1,U,82,84,Test,User,-,,Recall,Recall1,8009,add,100,7381,7733,1,1,,1
5e5d8d190272740aa1029258,x75xm9ac6q,"Deep vs Shallow",1,158,2020-07-08T14:48:56-07:00,7.3254420757294,1,versionA_stim.csv,RLVersionA.csv,"Relational Version A","Relational, read only version A",KEY,LATCH,Study1,B,36,63,Test,User,-,,Recall,Recall1,6685,latch,100,5561,6037,1,1,,1
5e5d8d190272740aa1029258,x75xm9ac6q,"Deep vs Shallow",1,159,2020-07-08T14:49:13-07:00,16.505639791489,1,versionA_stim.csv,RLVersionA.csv,"Relational Version A","Relational, read only version A",BABY,CHILD,Study1,S,64,44,Test,User,-,,Recall,Recall1,15860,child,100,14875,15255,1,1,,1
5e5d8d190272740aa1029258,x75xm9ac6q,"Deep vs Shallow",1,160,2020-07-08T14:49:16-07:00,3.468994140625,1,versionA_stim.csv,RLVersionA.csv,"Relational Version A","Relational, read only version A",DIGESTION,STOMACH,Study1,F,7,17,Test,User,-,,Recall,Recall1,2838,stomach,100,1451,2212,1,1,,1
5e5d8d190272740aa1029258,x75xm9ac6q,"Deep vs Shallow",1,161,2020-07-08T14:49:47-07:00,30.870780944824,1,versionA_stim.csv,RLVersionA.csv,"Relational Version A","Relational, read only version A",FULL,ENOUGH,Study1,B,26,24,Test,User,-,,Recall,Recall1,30217,empty,18.181818181818,28996,29923,0,0,,1
5e5d8d190272740aa1029258,x75xm9ac6q,"Deep vs Shallow",1,162,2020-07-08T14:49:55-07:00,7.7659101486206,1,versionA_stim.csv,RLVersionA.csv,"Relational Version A","Relational, read only version A",ARTERY,BRONZE,Study1,U,74,29,Test,User,-,,Recall,Recall1,7096,bronze,100,5855,6675,1,1,,1
5e5d8d190272740aa1029258,x75xm9ac6q,"Deep vs Shallow",1,163,2020-07-08T14:50:00-07:00,4.4800097942352,1,versionA_stim.csv,RLVersionA.csv,"Relational Version A","Relational, read only version A",SWAN,BIRD,Study1,F,14,53,Test,User,-,,Recall,Recall1,3825,bird,100,2943,3560,1,1,,1
5e5d8d190272740aa1029258,x75xm9ac6q,"Deep vs Shallow",1,164,2020-07-08T14:50:08-07:00,8.4667100906372,1,versionA_stim.csv,RLVersionA.csv,"Relational Version A","Relational, read only version A",DISCUSSION,TALK,Study1,F,21,66,Test,User,-,,Recall,Recall1,7794,question,16.666666666667,5991,6991,0,0,,1
5e5d8d190272740aa1029258,x75xm9ac6q,"Deep vs Shallow",1,165,2020-07-08T14:50:14-07:00,6.4304730892181,1,versionA_stim.csv,RLVersionA.csv,"Relational Version A","Relational, read only version A",HOT,CHILI,Study1,B,37,11,Test,User,-,,Recall,Recall1,5794,chilli,90.909090909091,1342,2901,0,1,,1
5e5d8d190272740aa1029258,x75xm9ac6q,"Deep vs Shallow",1,166,2020-07-08T14:50:43-07:00,28.952742815018,1,versionA_stim.csv,RLVersionA.csv,"Relational Version A","Relational, read only version A",DEBATE,SIGHT,Study1,U,73,70,Test,User,-,,Recall,Recall1,28293,sight,100,27140,27598,1,1,,1
5e5d8d190272740aa1029258,x75xm9ac6q,"Deep vs Shallow",1,167,2020-07-08T14:51:06-07:00,22.977765083313,1,versionA_stim.csv,RLVersionA.csv,"Relational Version A","Relational, read only version A",DISCOVER,FLOOR,Study1,U,71,73,Test,User,-,,Recall,Recall1,22311,find,22.222222222222,14420,21705,0,0,,1
5e5d8d190272740aa1029258,x75xm9ac6q,"Deep vs Shallow",1,168,2020-07-08T14:51:11-07:00,4.3775360584259,1,versionA_stim.csv,RLVersionA.csv,"Relational Version A","Relational, read only version A",GREAT,FANTASTIC,Study1,B,35,75,Test,User,-,,Recall,Recall1,3700,fantastic,100,2023,3190,1,1,,1
5e5d8d190272740aa1029258,x75xm9ac6q,"Deep vs Shallow",1,169,2020-07-08T14:51:16-07:00,5.182137966156,1,versionA_stim.csv,RLVersionA.csv,"Relational Version A","Relational, read only version A",SUGAR,RIDDLE,Study1,U,81,52,Test,User,-,,Recall,Recall1,4522,riddle,100,3398,3924,1,1,,1
5e5d8d190272740aa1029258,x75xm9ac6q,"Deep vs Shallow",1,170,2020-07-08T14:51:21-07:00,4.6597599983215,1,versionA_stim.csv,RLVersionA.csv,"Relational Version A","Relational, read only version A",WAY,OUT,Study1,F,16,79,Test,User,-,,Recall,Recall1,3968,out,100,3246,3402,1,1,,1
5e5d8d190272740aa1029258,x75xm9ac6q,"Deep vs Shallow",1,171,2020-07-08T14:52:06-07:00,45.602107048035,1,versionA_stim.csv,RLVersionA.csv,"Relational Version A","Relational, read only version A",PARK,HUNGRY,Study1,U,68,59,Test,User,-,,Recall,Recall1,44945,trees,18.181818181818,40377,44481,0,0,,1
5e5d8d190272740aa1029258,x75xm9ac6q,"Deep vs Shallow",1,172,2020-07-08T14:52:09-07:00,2.9196779727936,1,versionA_stim.csv,RLVersionA.csv,"Relational Version A","Relational, read only version A",HYGIENE,CLEAN,Study1,F,17,36,Test,User,-,,Recall,Recall1,2259,clean,100,1184,1666,1,1,,1
5e5d8d190272740aa1029258,x75xm9ac6q,"Deep vs Shallow",1,173,2020-07-08T14:52:13-07:00,3.902067899704,1,versionA_stim.csv,RLVersionA.csv,"Relational Version A","Relational, read only version A",BLOW,WIND,Study1,S,55,86,Test,User,-,,Recall,Recall1,3258,wind,100,2411,2690,1,1,,1
5e5d8d190272740aa1029258,x75xm9ac6q,"Deep vs Shallow",1,174,2020-07-08T14:52:25-07:00,11.73681807518,1,versionA_stim.csv,RLVersionA.csv,"Relational Version A","Relational, read only version A",MATH,DIVISION,Study1,B,33,9,Test,User,-,,Recall,Recall1,11074,division,100,9393,10470,1,1,,1
5e5d8d190272740aa1029258,x75xm9ac6q,"Deep vs Shallow",1,175,2020-07-08T14:52:28-07:00,3.3153600692749,1,versionA_stim.csv,RLVersionA.csv,"Relational Version A","Relational, read only version A",ART,LION,Study1,U,79,78,Test,User,-,,Recall,Recall1,2663,lion,100,1572,1967,1,1,,1
5e5d8d190272740aa1029258,x75xm9ac6q,"Deep vs Shallow",1,176,2020-07-08T14:52:31-07:00,3.302346944809,1,versionA_stim.csv,RLVersionA.csv,"Relational Version A","Relational, read only version A",WAGE,MONEY,Study1,F,8,55,Test,User,-,,Recall,Recall1,2638,money,100,1517,1956,1,1,,1
5e5d8d190272740aa1029258,x75xm9ac6q,"Deep vs Shallow",1,177,2020-07-08T14:53:00-07:00,28.569994926453,1,versionA_stim.csv,RLVersionA.csv,"Relational Version A","Relational, read only version A",SHOE,FOOT,Study1,S,60,26,Test,User,-,,Recall,Recall1,27940,foot,100,27126,27410,1,1,,1
5e5d8d190272740aa1029258,x75xm9ac6q,"Deep vs Shallow",1,178,2020-07-08T14:53:08-07:00,7.8405930995941,1,versionA_stim.csv,RLVersionA.csv,"Relational Version A","Relational, read only version A",FIRE,BLAZE,Study1,B,45,16,Test,User,-,,Recall,Recall1,7187,blaze,100,3770,5757,1,1,,1
5e5d8d190272740aa1029258,x75xm9ac6q,"Deep vs Shallow",1,179,2020-07-08T14:53:11-07:00,3.0953140258789,1,versionA_stim.csv,RLVersionA.csv,"Relational Version A","Relational, read only version A",BRIDGE,WATER,Study1,F,18,61,Test,User,-,,Recall,Recall1,2452,water,100,1459,1987,1,1,,1
5e5d8d190272740aa1029258,x75xm9ac6q,"Deep vs Shallow",1,180,2020-07-08T14:53:18-07:00,7.2185089588165,1,versionA_stim.csv,RLVersionA.csv,"Relational Version A","Relational, read only version A",HAPPY,CAR,Study1,U,77,10,Test,User,-,,Recall,Recall1,6570,smile,0,4915,5337,0,0,,1
5e5d8d190272740aa1029258,x75xm9ac6q,"Deep vs Shallow",1,181,2020-07-08T14:53:43-07:00,25.073310852051,1,versionA_stim.csv,RLVersionA.csv,"Relational Version A","Relational, read only version A",,,,,,0,Instruct,-,10,"You will now be presented with a new set of word pairs. Please study each pair. Remember that your memory will be tested! When finished, press Enter to move to the next pair.",Initial_Instruct,Instruct4,24423,,,-1,-1,,,,1
5e5d8d190272740aa1029258,x75xm9ac6q,"Deep vs Shallow",1,182,2020-07-08T14:54:05-07:00,21.799879074097,1,versionA_stim.csv,RLVersionA.csv,"Relational Version A","Relational, read only version A",,,,,,0,Instruct,-,15,"As you study, please think about how the two concepts are RELATED to each other. For example, if you see the pair TURTLE-CAT, think about how both are alive, they are both animals, and both can be kept as pets.",,Instruct20,20127,,,-1,-1,,,,1
5e5d8d190272740aa1029258,x75xm9ac6q,"Deep vs Shallow",1,183,2020-07-08T14:54:18-07:00,12.835741996765,1,versionA_stim.csv,RLVersionA.csv,"Relational Version A","Relational, read only version A",,,,,,0,FreeRecall,-,10,"What you should think about as you study each item pair? Type your response in the box below.",,CHECK4,12148,"How the two concepts are related.",0,3060,11213,0,0,,1
5e5d8d190272740aa1029258,x75xm9ac6q,"Deep vs Shallow",1,184,2020-07-08T14:54:20-07:00,2.0668339729309,1,versionA_stim.csv,RLVersionA.csv,"Relational Version A","Relational, read only version A",,,,,,0,Instruct,User,-,"Press Enter when you are readty to begin",,Instruct11,1470,,,-1,-1,,,,1
5e5d8d190272740aa1029258,x75xm9ac6q,"Deep vs Shallow",1,185,2020-07-08T14:54:30-07:00,10.106805086136,1,versionA_stim.csv,RLVersionA.csv,"Relational Version A","Relational, read only version A",SHRIMP,FISH,BUFFER3,Buffer,93,96,Study,User,-,,Study/JOL,BUFFER3,9442,,,-1,-1,,,,1
5e5d8d190272740aa1029258,x75xm9ac6q,"Deep vs Shallow",1,186,2020-07-08T14:54:33-07:00,3.0527908802032,1,versionA_stim.csv,RLVersionA.csv,"Relational Version A","Relational, read only version A",CAMP,ADVENTURE,BUFFER3,Buffer,95,92,Study,User,-,,Study/JOL,BUFFER3,2403,,,-1,-1,,,,1
5e5d8d190272740aa1029258,x75xm9ac6q,"Deep vs Shallow",1,187,2020-07-08T14:54:36-07:00,2.7364552021027,1,versionA_stim.csv,RLVersionA.csv,"Relational Version A","Relational, read only version A",NOODLE,STRING,BUFFER3,Buffer,92,94,Study,User,-,,Study/JOL,BUFFER3,2070,,,-1,-1,,,,1
5e5d8d190272740aa1029258,x75xm9ac6q,"Deep vs Shallow",1,188,2020-07-08T14:54:37-07:00,1.6668999195099,1,versionA_stim.csv,RLVersionA.csv,"Relational Version A","Relational, read only version A",CARROT,POTATO,BUFFER3,Buffer,91,93,Study,User,-,,Study/JOL,BUFFER3,1116,,,-1,-1,,,,1
5e5d8d190272740aa1029258,x75xm9ac6q,"Deep vs Shallow",1,189,2020-07-08T14:54:39-07:00,1.8380179405212,1,versionA_stim.csv,RLVersionA.csv,"Relational Version A","Relational, read only version A",ICE,FROZEN,BUFFER3,Buffer,94,95,Study,User,-,,Study/JOL,BUFFER3,1151,,,-1,-1,,,,1
5e5d8d190272740aa1029258,x75xm9ac6q,"Deep vs Shallow",1,190,2020-07-08T14:54:41-07:00,1.6173131465912,1,versionA_stim.csv,RLVersionA.csv,"Relational Version A","Relational, read only version A",BASEBALL,LEAGUE,Study2,B,131,153,Study,User,-,,Study/JOL,"Study Phase2",1054,,,-1,-1,,,,1
5e5d8d190272740aa1029258,x75xm9ac6q,"Deep vs Shallow",1,191,2020-07-08T14:54:43-07:00,1.5946769714355,1,versionA_stim.csv,RLVersionA.csv,"Relational Version A","Relational, read only version A",HONEST,TRUTHFUL,Study2,B,133,124,Study,User,-,,Study/JOL,"Study Phase2",1040,,,-1,-1,,,,1
5e5d8d190272740aa1029258,x75xm9ac6q,"Deep vs Shallow",1,192,2020-07-08T14:54:44-07:00,1.5318858623505,1,versionA_stim.csv,RLVersionA.csv,"Relational Version A","Relational, read only version A",ROD,REEL,Study2,S,150,126,Study,User,-,,Study/JOL,"Study Phase2",972,,,-1,-1,,,,1
5e5d8d190272740aa1029258,x75xm9ac6q,"Deep vs Shallow",1,193,2020-07-08T14:54:46-07:00,1.837660074234,1,versionA_stim.csv,RLVersionA.csv,"Relational Version A","Relational, read only version A",CHILL,COLD,Study2,F,114,120,Study,User,-,,Study/JOL,"Study Phase2",1246,,,-1,-1,,,,1
5e5d8d190272740aa1029258,x75xm9ac6q,"Deep vs Shallow",1,194,2020-07-08T14:54:48-07:00,1.6291151046753,1,versionA_stim.csv,RLVersionA.csv,"Relational Version A","Relational, read only version A",STRETCH,CLOTH,Study2,U,157,119,Study,User,-,,Study/JOL,"Study Phase2",1062,,,-1,-1,,,,1
5e5d8d190272740aa1029258,x75xm9ac6q,"Deep vs Shallow",1,195,2020-07-08T14:54:49-07:00,1.4833009243011,1,versionA_stim.csv,RLVersionA.csv,"Relational Version A","Relational, read only version A",CRACKLE,ABLE,Study2,U,162,108,Study,User,-,,Study/JOL,"Study Phase2",938,,,-1,-1,,,,1
5e5d8d190272740aa1029258,x75xm9ac6q,"Deep vs Shallow",1,196,2020-07-08T14:54:50-07:00,1.3951179981232,1,versionA_stim.csv,RLVersionA.csv,"Relational Version A","Relational, read only version A",THREAD,THIMBLE,Study2,B,121,171,Study,User,-,,Study/JOL,"Study Phase2",877,,,-1,-1,,,,1
5e5d8d190272740aa1029258,x75xm9ac6q,"Deep vs Shallow",1,197,2020-07-08T14:54:53-07:00,2.4002299308777,1,versionA_stim.csv,RLVersionA.csv,"Relational Version A","Relational, read only version A",BAD,VILLAIN,Study2,B,118,105,Study,User,-,,Study/JOL,"Study Phase2",853,,,-1,-1,,,,1
5e5d8d190272740aa1029258,x75xm9ac6q,"Deep vs Shallow",1,198,2020-07-08T14:54:54-07:00,1.6461110115051,1,versionA_stim.csv,RLVersionA.csv,"Relational Version A","Relational, read only version A",POP,BALLOON,Study2,B,123,145,Study,User,-,,Study/JOL,"Study Phase2",1091,,,-1,-1,,,,1
5e5d8d190272740aa1029258,x75xm9ac6q,"Deep vs Shallow",1,199,2020-07-08T14:54:56-07:00,1.48069190979,1,versionA_stim.csv,RLVersionA.csv,"Relational Version A","Relational, read only version A",MAIN,SCAR,Study2,U,175,104,Study,User,-,,Study/JOL,"Study Phase2",908,,,-1,-1,,,,1
5e5d8d190272740aa1029258,x75xm9ac6q,"Deep vs Shallow",1,200,2020-07-08T14:54:57-07:00,1.3985810279846,1,versionA_stim.csv,RLVersionA.csv,"Relational Version A","Relational, read only version A",BEST,FAVORITE,Study2,B,125,139,Study,User,-,,Study/JOL,"Study Phase2",856,,,-1,-1,,,,1
5e5d8d190272740aa1029258,x75xm9ac6q,"Deep vs Shallow",1,201,2020-07-08T14:54:59-07:00,1.6150510311127,1,versionA_stim.csv,RLVersionA.csv,"Relational Version A","Relational, read only version A",TANTRUM,TEMPER,Study2,S,154,172,Study,User,-,,Study/JOL,"Study Phase2",1046,,,-1,-1,,,,1
5e5d8d190272740aa1029258,x75xm9ac6q,"Deep vs Shallow",1,202,2020-07-08T14:55:00-07:00,1.5225269794464,1,versionA_stim.csv,RLVersionA.csv,"Relational Version A","Relational, read only version A",ELEMENT,CARBON,Study2,S,141,143,Study,User,-,,Study/JOL,"Study Phase2",970,,,-1,-1,,,,1
5e5d8d190272740aa1029258,x75xm9ac6q,"Deep vs Shallow",1,203,2020-07-08T14:55:02-07:00,1.4245829582214,1,versionA_stim.csv,RLVersionA.csv,"Relational Version A","Relational, read only version A",SUN,TAN,Study2,S,155,109,Study,User,-,,Study/JOL,"Study Phase2",882,,,-1,-1,,,,1
5e5d8d190272740aa1029258,x75xm9ac6q,"Deep vs Shallow",1,204,2020-07-08T14:55:05-07:00,2.7082290649414,1,versionA_stim.csv,RLVersionA.csv,"Relational Version A","Relational, read only version A",VEHICLE,CHARM,Study2,U,160,156,Study,User,-,,Study/JOL,"Study Phase2",824,,,-1,-1,,,,1
5e5d8d190272740aa1029258,x75xm9ac6q,"Deep vs Shallow",1,205,2020-07-08T14:55:06-07:00,1.4752149581909,1,versionA_stim.csv,RLVersionA.csv,"Relational Version A","Relational, read only version A",DRY,WET,Study2,S,146,111,Study,User,-,,Study/JOL,"Study Phase2",861,,,-1,-1,,,,1
5e5d8d190272740aa1029258,x75xm9ac6q,"Deep vs Shallow",1,206,2020-07-08T14:55:08-07:00,1.6539340019226,1,versionA_stim.csv,RLVersionA.csv,"Relational Version A","Relational, read only version A",ADJOURN,END,Study2,F,101,102,Study,User,-,,Study/JOL,"Study Phase2",1042,,,-1,-1,,,,1
5e5d8d190272740aa1029258,x75xm9ac6q,"Deep vs Shallow",1,207,2020-07-08T14:55:09-07:00,1.6302011013031,1,versionA_stim.csv,RLVersionA.csv,"Relational Version A","Relational, read only version A",STAR,ACTRESS,Study2,B,120,164,Study,User,-,,Study/JOL,"Study Phase2",1000,,,-1,-1,,,,1
5e5d8d190272740aa1029258,x75xm9ac6q,"Deep vs Shallow",1,208,2020-07-08T14:55:11-07:00,1.7908079624176,1,versionA_stim.csv,RLVersionA.csv,"Relational Version A","Relational, read only version A",LOUD,NOISE,Study2,S,152,162,Study,User,-,,Study/JOL,"Study Phase2",1133,,,-1,-1,,,,1
5e5d8d190272740aa1029258,x75xm9ac6q,"Deep vs Shallow",1,209,2020-07-08T14:55:13-07:00,1.5591969490051,1,versionA_stim.csv,RLVersionA.csv,"Relational Version A","Relational, read only version A",CANDLE,WAX,Study2,S,139,128,Study,User,-,,Study/JOL,"Study Phase2",977,,,-1,-1,,,,1
5e5d8d190272740aa1029258,x75xm9ac6q,"Deep vs Shallow",1,210,2020-07-08T14:55:14-07:00,1.4974801540375,1,versionA_stim.csv,RLVersionA.csv,"Relational Version A","Relational, read only version A",CLUE,GAME,Study2,F,97,151,Study,User,-,,Study/JOL,"Study Phase2",975,,,-1,-1,,,,1
5e5d8d190272740aa1029258,x75xm9ac6q,"Deep vs Shallow",1,211,2020-07-08T14:55:16-07:00,1.4896099567413,1,versionA_stim.csv,RLVersionA.csv,"Relational Version A","Relational, read only version A",EXTENSION,LONG,Study2,F,96,103,Study,User,-,,Study/JOL,"Study Phase2",926,,,-1,-1,,,,1
5e5d8d190272740aa1029258,x75xm9ac6q,"Deep vs Shallow",1,212,2020-07-08T14:55:17-07:00,1.4681489467621,1,versionA_stim.csv,RLVersionA.csv,"Relational Version A","Relational, read only version A",LISTEN,FICTION,Study2,U,164,155,Study,User,-,,Study/JOL,"Study Phase2",917,,,-1,-1,,,,1
5e5d8d190272740aa1029258,x75xm9ac6q,"Deep vs Shallow",1,213,2020-07-08T14:55:19-07:00,1.550066947937,1,versionA_stim.csv,RLVersionA.csv,"Relational Version A","Relational, read only version A",DOCUMENT,PAPER,Study2,F,109,175,Study,User,-,,Study/JOL,"Study Phase2",904,,,-1,-1,,,,1
5e5d8d190272740aa1029258,x75xm9ac6q,"Deep vs Shallow",1,214,2020-07-08T14:55:20-07:00,1.500990152359,1,versionA_stim.csv,RLVersionA.csv,"Relational Version A","Relational, read only version A",FRUIT,STRAWBERRY,Study2,B,124,167,Study,User,-,,Study/JOL,"Study Phase2",906,,,-1,-1,,,,1
5e5d8d190272740aa1029258,x75xm9ac6q,"Deep vs Shallow",1,215,2020-07-08T14:55:22-07:00,1.42830991745,1,versionA_stim.csv,RLVersionA.csv,"Relational Version A","Relational, read only version A",FEUD,FIGHT,Study2,F,113,144,Study,User,-,,Study/JOL,"Study Phase2",895,,,-1,-1,,,,1
5e5d8d190272740aa1029258,x75xm9ac6q,"Deep vs Shallow",1,216,2020-07-08T14:55:23-07:00,1.4446229934692,1,versionA_stim.csv,RLVersionA.csv,"Relational Version A","Relational, read only version A",RIGHTS,EQUAL,Study2,S,137,154,Study,User,-,,Study/JOL,"Study Phase2",841,,,-1,-1,,,,1
5e5d8d190272740aa1029258,x75xm9ac6q,"Deep vs Shallow",1,217,2020-07-08T14:55:24-07:00,1.4175970554352,1,versionA_stim.csv,RLVersionA.csv,"Relational Version A","Relational, read only version A",CHERRY,RED,Study2,F,104,131,Study,User,-,,Study/JOL,"Study Phase2",844,,,-1,-1,,,,1
5e5d8d190272740aa1029258,x75xm9ac6q,"Deep vs Shallow",1,218,2020-07-08T14:55:26-07:00,1.423003911972,1,versionA_stim.csv,RLVersionA.csv,"Relational Version A","Relational, read only version A",PHONE,COMMUNICATION,Study2,S,149,176,Study,User,-,,Study/JOL,"Study Phase2",879,,,-1,-1,,,,1
5e5d8d190272740aa1029258,x75xm9ac6q,"Deep vs Shallow",1,219,2020-07-08T14:55:29-07:00,3.113009929657,1,versionA_stim.csv,RLVersionA.csv,"Relational Version A","Relational, read only version A",EARTH,GROUND,Study2,S,144,157,Study,User,-,,Study/JOL,"Study Phase2",2441,,,-1,-1,,,,1
5e5d8d190272740aa1029258,x75xm9ac6q,"Deep vs Shallow",1,220,2020-07-08T14:55:31-07:00,1.6073071956635,1,versionA_stim.csv,RLVersionA.csv,"Relational Version A","Relational, read only version A",MAZE,ELECTION,Study2,U,159,150,Study,User,-,,Study/JOL,"Study Phase2",1016,,,-1,-1,,,,1
5e5d8d190272740aa1029258,x75xm9ac6q,"Deep vs Shallow",1,221,2020-07-08T14:55:32-07:00,1.4830439090729,1,versionA_stim.csv,RLVersionA.csv,"Relational Version A","Relational, read only version A",SCALP,HEAD,Study2,F,105,130,Study,User,-,,Study/JOL,"Study Phase2",903,,,-1,-1,,,,1
5e5d8d190272740aa1029258,x75xm9ac6q,"Deep vs Shallow",1,222,2020-07-08T14:55:33-07:00,1.3282148838043,1,versionA_stim.csv,RLVersionA.csv,"Relational Version A","Relational, read only version A",CAT,PANTHER,Study2,B,126,110,Study,User,-,,Study/JOL,"Study Phase2",779,,,-1,-1,,,,1
5e5d8d190272740aa1029258,x75xm9ac6q,"Deep vs Shallow",1,223,2020-07-08T14:55:35-07:00,1.2918190956116,1,versionA_stim.csv,RLVersionA.csv,"Relational Version A","Relational, read only version A",KEYS,JOKE,Study2,U,165,173,Study,User,-,,Study/JOL,"Study Phase2",719,,,-1,-1,,,,1
5e5d8d190272740aa1029258,x75xm9ac6q,"Deep vs Shallow",1,224,2020-07-08T14:55:39-07:00,4.4619779586792,1,versionA_stim.csv,RLVersionA.csv,"Relational Version A","Relational, read only version A",,,,,,0,Instruct,-,3,"Remember to focus on how the two items are similiar while you study!",,CHECK5,3781,,,-1,-1,,,,1
5e5d8d190272740aa1029258,x75xm9ac6q,"Deep vs Shallow",1,225,2020-07-08T14:55:51-07:00,11.703343153,1,versionA_stim.csv,RLVersionA.csv,"Relational Version A","Relational, read only version A",DEAD,COFFIN,Study2,B,128,98,Study,User,-,,Study/JOL,"Study Phase2",11012,,,-1,-1,,,,1
5e5d8d190272740aa1029258,x75xm9ac6q,"Deep vs Shallow",1,226,2020-07-08T14:55:52-07:00,1.5468988418579,1,versionA_stim.csv,RLVersionA.csv,"Relational Version A","Relational, read only version A",DETECTIVE,MYSTERY,Study2,F,100,135,Study,User,-,,Study/JOL,"Study Phase2",969,,,-1,-1,,,,1
5e5d8d190272740aa1029258,x75xm9ac6q,"Deep vs Shallow",1,227,2020-07-08T14:55:54-07:00,1.9511370658875,1,versionA_stim.csv,RLVersionA.csv,"Relational Version A","Relational, read only version A",BIRD,PENGUIN,Study2,B,119,115,Study,User,-,,Study/JOL,"Study Phase2",1372,,,-1,-1,,,,1
5e5d8d190272740aa1029258,x75xm9ac6q,"Deep vs Shallow",1,228,2020-07-08T14:55:56-07:00,1.5493180751801,1,versionA_stim.csv,RLVersionA.csv,"Relational Version A","Relational, read only version A",LITTER,TRASH,Study2,F,103,168,Study,User,-,,Study/JOL,"Study Phase2",992,,,-1,-1,,,,1
5e5d8d190272740aa1029258,x75xm9ac6q,"Deep vs Shallow",1,229,2020-07-08T14:55:57-07:00,1.3399369716644,1,versionA_stim.csv,RLVersionA.csv,"Relational Version A","Relational, read only version A",WATER,DRINK,Study2,S,143,163,Study,User,-,,Study/JOL,"Study Phase2",783,,,-1,-1,,,,1
5e5d8d190272740aa1029258,x75xm9ac6q,"Deep vs Shallow",1,230,2020-07-08T14:55:59-07:00,1.3441889286041,1,versionA_stim.csv,RLVersionA.csv,"Relational Version A","Relational, read only version A",MASON,JAR,Study2,S,138,166,Study,User,-,,Study/JOL,"Study Phase2",775,,,-1,-1,,,,1
5e5d8d190272740aa1029258,x75xm9ac6q,"Deep vs Shallow",1,231,2020-07-08T14:56:00-07:00,1.4577550888062,1,versionA_stim.csv,RLVersionA.csv,"Relational Version A","Relational, read only version A",GLASS,BREAKABLE,Study2,B,127,116,Study,User,-,,Study/JOL,"Study Phase2",909,,,-1,-1,,,,1
5e5d8d190272740aa1029258,x75xm9ac6q,"Deep vs Shallow",1,232,2020-07-08T14:56:01-07:00,1.3059120178223,1,versionA_stim.csv,RLVersionA.csv,"Relational Version A","Relational, read only version A",GIVE,STEAK,Study2,U,158,147,Study,User,-,,Study/JOL,"Study Phase2",772,,,-1,-1,,,,1
5e5d8d190272740aa1029258,x75xm9ac6q,"Deep vs Shallow",1,233,2020-07-08T14:56:03-07:00,1.2929949760437,1,versionA_stim.csv,RLVersionA.csv,"Relational Version A","Relational, read only version A",FIGHT,BRAWL,Study2,B,135,101,Study,User,-,,Study/JOL,"Study Phase2",746,,,-1,-1,,,,1
5e5d8d190272740aa1029258,x75xm9ac6q,"Deep vs Shallow",1,234,2020-07-08T14:56:04-07:00,1.3998558521271,1,versionA_stim.csv,RLVersionA.csv,"Relational Version A","Relational, read only version A",EVEN,REVENGE,Study2,B,122,112,Study,User,-,,Study/JOL,"Study Phase2",798,,,-1,-1,,,,1
5e5d8d190272740aa1029258,x75xm9ac6q,"Deep vs Shallow",1,235,2020-07-08T14:56:06-07:00,1.4882941246033,1,versionA_stim.csv,RLVersionA.csv,"Relational Version A","Relational, read only version A",CHOP,CUT,Study2,F,107,146,Study,User,-,,Study/JOL,"Study Phase2",946,,,-1,-1,,,,1
5e5d8d190272740aa1029258,x75xm9ac6q,"Deep vs Shallow",1,236,2020-07-08T14:56:07-07:00,1.3668489456177,1,versionA_stim.csv,RLVersionA.csv,"Relational Version A","Relational, read only version A",MOAT,CLEAR,Study2,U,169,133,Study,User,-,,Study/JOL,"Study Phase2",843,,,-1,-1,,,,1
5e5d8d190272740aa1029258,x75xm9ac6q,"Deep vs Shallow",1,237,2020-07-08T14:56:08-07:00,1.2908589839935,1,versionA_stim.csv,RLVersionA.csv,"Relational Version A","Relational, read only version A",FUZZY,BANG,Study2,U,168,100,Study,User,-,,Study/JOL,"Study Phase2",711,,,-1,-1,,,,1
5e5d8d190272740aa1029258,x75xm9ac6q,"Deep vs Shallow",1,238,2020-07-08T14:56:09-07:00,1.1193461418152,1,versionA_stim.csv,RLVersionA.csv,"Relational Version A","Relational, read only version A",INCENSE,SMELL,Study2,F,110,134,Study,User,-,,Study/JOL,"Study Phase2",546,,,-1,-1,,,,1
5e5d8d190272740aa1029258,x75xm9ac6q,"Deep vs Shallow",1,239,2020-07-08T14:56:10-07:00,1.1440758705139,1,versionA_stim.csv,RLVersionA.csv,"Relational Version A","Relational, read only version A",FISH,SARDINE,Study2,B,130,129,Study,User,-,,Study/JOL,"Study Phase2",602,,,-1,-1,,,,1
5e5d8d190272740aa1029258,x75xm9ac6q,"Deep vs Shallow",1,240,2020-07-08T14:56:12-07:00,1.4358639717102,1,versionA_stim.csv,RLVersionA.csv,"Relational Version A","Relational, read only version A",PLANE,AIRCRAFT,Study2,B,129,125,Study,User,-,,Study/JOL,"Study Phase2",871,,,-1,-1,,,,1
5e5d8d190272740aa1029258,x75xm9ac6q,"Deep vs Shallow",1,241,2020-07-08T14:56:13-07:00,1.3786489963531,1,versionA_stim.csv,RLVersionA.csv,"Relational Version A","Relational, read only version A",JUSTICE,MAROON,Study2,U,156,117,Study,User,-,,Study/JOL,"Study Phase2",784,,,-1,-1,,,,1
5e5d8d190272740aa1029258,x75xm9ac6q,"Deep vs Shallow",1,242,2020-07-08T14:56:15-07:00,1.3503830432892,1,versionA_stim.csv,RLVersionA.csv,"Relational Version A","Relational, read only version A",CAR,WINDSHIELD,Study2,B,117,142,Study,User,-,,Study/JOL,"Study Phase2",790,,,-1,-1,,,,1
5e5d8d190272740aa1029258,x75xm9ac6q,"Deep vs Shallow",1,243,2020-07-08T14:56:16-07:00,1.301451921463,1,versionA_stim.csv,RLVersionA.csv,"Relational Version A","Relational, read only version A",TEMPERATURE,Morning,Study2,U,173,123,Study,User,-,,Study/JOL,"Study Phase2",720,,,-1,-1,,,,1
5e5d8d190272740aa1029258,x75xm9ac6q,"Deep vs Shallow",1,244,2020-07-08T14:56:17-07:00,1.3104801177979,1,versionA_stim.csv,RLVersionA.csv,"Relational Version A","Relational, read only version A",OWN,HAVE,Study2,S,153,174,Study,User,-,,Study/JOL,"Study Phase2",779,,,-1,-1,,,,1
5e5d8d190272740aa1029258,x75xm9ac6q,"Deep vs Shallow",1,245,2020-07-08T14:56:19-07:00,1.3230009078979,1,versionA_stim.csv,RLVersionA.csv,"Relational Version A","Relational, read only version A",DINE,EAT,Study2,F,111,170,Study,User,-,,Study/JOL,"Study Phase2",758,,,-1,-1,,,,1
5e5d8d190272740aa1029258,x75xm9ac6q,"Deep vs Shallow",1,246,2020-07-08T14:56:20-07:00,1.3977451324463,1,versionA_stim.csv,RLVersionA.csv,"Relational Version A","Relational, read only version A",SHEARS,SCISSORS,Study2,F,112,137,Study,User,-,,Study/JOL,"Study Phase2",785,,,-1,-1,,,,1
5e5d8d190272740aa1029258,x75xm9ac6q,"Deep vs Shallow",1,247,2020-07-08T14:56:21-07:00,1.1372940540314,1,versionA_stim.csv,RLVersionA.csv,"Relational Version A","Relational, read only version A",ALONE,LONELY,Study2,S,145,158,Study,User,-,,Study/JOL,"Study Phase2",526,,,-1,-1,,,,1
5e5d8d190272740aa1029258,x75xm9ac6q,"Deep vs Shallow",1,248,2020-07-08T14:56:23-07:00,1.4310867786407,1,versionA_stim.csv,RLVersionA.csv,"Relational Version A","Relational, read only version A",MIRROR,CHILDREN,Study2,U,174,140,Study,User,-,,Study/JOL,"Study Phase2",720,,,-1,-1,,,,1
5e5d8d190272740aa1029258,x75xm9ac6q,"Deep vs Shallow",1,249,2020-07-08T14:56:24-07:00,1.1954071521759,1,versionA_stim.csv,RLVersionA.csv,"Relational Version A","Relational, read only version A",MONEY,BANKER,Study2,B,132,99,Study,User,-,,Study/JOL,"Study Phase2",610,,,-1,-1,,,,1
5e5d8d190272740aa1029258,x75xm9ac6q,"Deep vs Shallow",1,250,2020-07-08T14:56:25-07:00,1.3415520191193,1,versionA_stim.csv,RLVersionA.csv,"Relational Version A","Relational, read only version A",MEAT,OBTAIN,Study2,U,161,113,Study,User,-,,Study/JOL,"Study Phase2",796,,,-1,-1,,,,1
5e5d8d190272740aa1029258,x75xm9ac6q,"Deep vs Shallow",1,251,2020-07-08T14:56:26-07:00,1.2843599319458,1,versionA_stim.csv,RLVersionA.csv,"Relational Version A","Relational, read only version A",LEASE,TOIL,Study2,U,170,169,Study,User,-,,Study/JOL,"Study Phase2",728,,,-1,-1,,,,1
5e5d8d190272740aa1029258,x75xm9ac6q,"Deep vs Shallow",1,252,2020-07-08T14:56:28-07:00,1.2790050506592,1,versionA_stim.csv,RLVersionA.csv,"Relational Version A","Relational, read only version A",FURRY,DOG,Study2,F,102,141,Study,User,-,,Study/JOL,"Study Phase2",689,,,-1,-1,,,,1
5e5d8d190272740aa1029258,x75xm9ac6q,"Deep vs Shallow",1,253,2020-07-08T14:56:29-07:00,1.3017740249634,1,versionA_stim.csv,RLVersionA.csv,"Relational Version A","Relational, read only version A",SLEEP,NAP,Study2,B,134,114,Study,User,-,,Study/JOL,"Study Phase2",746,,,-1,-1,,,,1
5e5d8d190272740aa1029258,x75xm9ac6q,"Deep vs Shallow",1,254,2020-07-08T14:56:30-07:00,1.2671859264374,1,versionA_stim.csv,RLVersionA.csv,"Relational Version A","Relational, read only version A",LOAN,SIGN,Study2,U,171,122,Study,User,-,,Study/JOL,"Study Phase2",694,,,-1,-1,,,,1
5e5d8d190272740aa1029258,x75xm9ac6q,"Deep vs Shallow",1,255,2020-07-08T14:56:32-07:00,1.3774530887604,1,versionA_stim.csv,RLVersionA.csv,"Relational Version A","Relational, read only version A",TRUTH,LIE,Study2,S,148,148,Study,User,-,,Study/JOL,"Study Phase2",786,,,-1,-1,,,,1
5e5d8d190272740aa1029258,x75xm9ac6q,"Deep vs Shallow",1,256,2020-07-08T14:56:33-07:00,1.399897813797,1,versionA_stim.csv,RLVersionA.csv,"Relational Version A","Relational, read only version A",Shell,SHAKE,Study2,U,163,165,Study,User,-,,Study/JOL,"Study Phase2",848,,,-1,-1,,,,1
5e5d8d190272740aa1029258,x75xm9ac6q,"Deep vs Shallow",1,257,2020-07-08T14:56:34-07:00,1.3886361122131,1,versionA_stim.csv,RLVersionA.csv,"Relational Version A","Relational, read only version A",MULE,DONKEY,Study2,F,108,97,Study,User,-,,Study/JOL,"Study Phase2",819,,,-1,-1,,,,1
5e5d8d190272740aa1029258,x75xm9ac6q,"Deep vs Shallow",1,258,2020-07-08T14:56:36-07:00,1.4448010921478,1,versionA_stim.csv,RLVersionA.csv,"Relational Version A","Relational, read only version A",TURN,FLIP,Study2,B,116,138,Study,User,-,,Study/JOL,"Study Phase2",833,,,-1,-1,,,,1
5e5d8d190272740aa1029258,x75xm9ac6q,"Deep vs Shallow",1,259,2020-07-08T14:56:37-07:00,1.2954869270325,1,versionA_stim.csv,RLVersionA.csv,"Relational Version A","Relational, read only version A",GONE,AWAY,Study2,S,142,149,Study,User,-,,Study/JOL,"Study Phase2",745,,,-1,-1,,,,1
5e5d8d190272740aa1029258,x75xm9ac6q,"Deep vs Shallow",1,260,2020-07-08T14:56:38-07:00,1.2656810283661,1,versionA_stim.csv,RLVersionA.csv,"Relational Version A","Relational, read only version A",BOTH,OUNCE,Study2,U,172,132,Study,User,-,,Study/JOL,"Study Phase2",693,,,-1,-1,,,,1
5e5d8d190272740aa1029258,x75xm9ac6q,"Deep vs Shallow",1,261,2020-07-08T14:56:40-07:00,1.6511759757996,1,versionA_stim.csv,RLVersionA.csv,"Relational Version A","Relational, read only version A",AFFECTION,LOVE,Study2,F,115,152,Study,User,-,,Study/JOL,"Study Phase2",1086,,,-1,-1,,,,1
5e5d8d190272740aa1029258,x75xm9ac6q,"Deep vs Shallow",1,262,2020-07-08T14:56:42-07:00,1.9622139930725,1,versionA_stim.csv,RLVersionA.csv,"Relational Version A","Relational, read only version A",WRIST,BRACELET,Study2,S,140,106,Study,User,-,,Study/JOL,"Study Phase2",1373,,,-1,-1,,,,1
5e5d8d190272740aa1029258,x75xm9ac6q,"Deep vs Shallow",1,263,2020-07-08T14:56:43-07:00,1.3752539157867,1,versionA_stim.csv,RLVersionA.csv,"Relational Version A","Relational, read only version A",CAKE,CLOTHES,Study2,U,166,160,Study,User,-,,Study/JOL,"Study Phase2",812,,,-1,-1,,,,1
5e5d8d190272740aa1029258,x75xm9ac6q,"Deep vs Shallow",1,264,2020-07-08T14:56:46-07:00,2.5268270969391,1,versionA_stim.csv,RLVersionA.csv,"Relational Version A","Relational, read only version A",SAFETY,SEATBELT,Study2,S,147,121,Study,User,-,,Study/JOL,"Study Phase2",976,,,-1,-1,,,,1
5e5d8d190272740aa1029258,x75xm9ac6q,"Deep vs Shallow",1,265,2020-07-08T14:56:48-07:00,1.8965048789978,1,versionA_stim.csv,RLVersionA.csv,"Relational Version A","Relational, read only version A",RAZOR,SHAVE,Study2,S,136,118,Study,User,-,,Study/JOL,"Study Phase2",1309,,,-1,-1,,,,1
5e5d8d190272740aa1029258,x75xm9ac6q,"Deep vs Shallow",1,266,2020-07-08T14:56:49-07:00,1.6541881561279,1,versionA_stim.csv,RLVersionA.csv,"Relational Version A","Relational, read only version A",FLEA,TICK,Study2,S,151,161,Study,User,-,,Study/JOL,"Study Phase2",1088,,,-1,-1,,,,1
5e5d8d190272740aa1029258,x75xm9ac6q,"Deep vs Shallow",1,267,2020-07-08T14:56:51-07:00,1.3760168552399,1,versionA_stim.csv,RLVersionA.csv,"Relational Version A","Relational, read only version A",NAME,HATE,Study2,U,167,107,Study,User,-,,Study/JOL,"Study Phase2",799,,,-1,-1,,,,1
5e5d8d190272740aa1029258,x75xm9ac6q,"Deep vs Shallow",1,268,2020-07-08T14:56:52-07:00,1.3172390460968,1,versionA_stim.csv,RLVersionA.csv,"Relational Version A","Relational, read only version A",SHOELACE,TIE,Study2,F,99,136,Study,User,-,,Study/JOL,"Study Phase2",758,,,-1,-1,,,,1
5e5d8d190272740aa1029258,x75xm9ac6q,"Deep vs Shallow",1,269,2020-07-08T14:56:55-07:00,2.6081619262695,1,versionA_stim.csv,RLVersionA.csv,"Relational Version A","Relational, read only version A",CACTUS,PLANT,Study2,F,98,127,Study,User,-,,Study/JOL,"Study Phase2",1013,,,-1,-1,,,,1
5e5d8d190272740aa1029258,x75xm9ac6q,"Deep vs Shallow",1,270,2020-07-08T14:56:56-07:00,1.6547541618347,1,versionA_stim.csv,RLVersionA.csv,"Relational Version A","Relational, read only version A",DRIVER,CAR,Study2,F,106,159,Study,User,-,,Study/JOL,"Study Phase2",1097,,,-1,-1,,,,1
5e5d8d190272740aa1029258,x75xm9ac6q,"Deep vs Shallow",1,271,2020-07-08T14:56:58-07:00,1.5779778957367,1,versionA_stim.csv,RLVersionA.csv,"Relational Version A","Relational, read only version A",MONTH,YEAR,BUFFER4,Buffer,177,180,Study,User,-,,Study/JOL,BUFFER4,1020,,,-1,-1,,,,1
5e5d8d190272740aa1029258,x75xm9ac6q,"Deep vs Shallow",1,272,2020-07-08T14:57:01-07:00,2.9355311393738,1,versionA_stim.csv,RLVersionA.csv,"Relational Version A","Relational, read only version A",SPRING,MARCH,BUFFER4,Buffer,179,181,Study,User,-,,Study/JOL,BUFFER4,2282,,,-1,-1,,,,1
5e5d8d190272740aa1029258,x75xm9ac6q,"Deep vs Shallow",1,273,2020-07-08T14:57:03-07:00,2.1209919452667,1,versionA_stim.csv,RLVersionA.csv,"Relational Version A","Relational, read only version A",TOOL,SHED,BUFFER4,Buffer,178,179,Study,User,-,,Study/JOL,BUFFER4,1580,,,-1,-1,,,,1
5e5d8d190272740aa1029258,x75xm9ac6q,"Deep vs Shallow",1,274,2020-07-08T14:57:05-07:00,2.1381678581238,1,versionA_stim.csv,RLVersionA.csv,"Relational Version A","Relational, read only version A",OCTOBER,SPOOKY,BUFFER4,Buffer,180,177,Study,User,-,,Study/JOL,BUFFER4,1567,,,-1,-1,,,,1
5e5d8d190272740aa1029258,x75xm9ac6q,"Deep vs Shallow",1,275,2020-07-08T14:57:07-07:00,1.6893391609192,1,versionA_stim.csv,RLVersionA.csv,"Relational Version A","Relational, read only version A",DAYS,WEAKS,BUFFER4,Buffer,176,178,Study,User,-,,Study/JOL,BUFFER4,1097,,,-1,-1,,,,1
5e5d8d190272740aa1029258,x75xm9ac6q,"Deep vs Shallow",1,276,2020-07-08T14:57:12-07:00,4.7042188644409,1,versionA_stim.csv,RLVersionA.csv,"Relational Version A","Relational, read only version A",,,,,,0,Instruct,User,-,"You have completed this section. Please press Enter.",Filler_Instruction,Instruct5,4035,,,-1,-1,,,,1
5e5d8d190272740aa1029258,x75xm9ac6q,"Deep vs Shallow",1,277,2020-07-08T14:57:23-07:00,11.183928966522,1,versionA_stim.csv,RLVersionA.csv,"Relational Version A","Relational, read only version A",,,,,,0,FreeRecall,-,10,"What were you supposed to focus on while you studied each pair? (Hint: Think back to the instructions). Type your answer in the space below.",,CHECK3,10544,"How the two words are related.",0,3093,9148,0,0,,1
5e5d8d190272740aa1029258,x75xm9ac6q,"Deep vs Shallow",1,278,2020-07-08T14:57:25-07:00,1.8775770664215,1,versionA_stim.csv,RLVersionA.csv,"Relational Version A","Relational, read only version A",,,,,,0,Instruct,User,-,"You have completed this section. Please press Enter.",Filler_Instruction,Instruct5,1236,,,-1,-1,,,,1
5e5d8d190272740aa1029258,x75xm9ac6q,"Deep vs Shallow",1,279,2020-07-08T14:59:25-07:00,120.73509407043,1,versionA_stim.csv,RLVersionA.csv,"Relational Version A","Relational, read only version A",,,,,,0,FreeRecall,120,120,"Please list the 50 US states in reverse alphabetical order (z - a). The task will automatically advance to the next screen after two minutes.",,Filler2,120008,"Wyoming, Wisconsin",0,2992,119653,0,0,,1
5e5d8d190272740aa1029258,x75xm9ac6q,"Deep vs Shallow",1,280,2020-07-08T14:59:53-07:00,27.1511490345,1,versionA_stim.csv,RLVersionA.csv,"Relational Version A","Relational, read only version A",,,,,,0,Instruct,-,10,"You will now be presented with the first word from each of the previously studied item pairs. Please type the missing word. If you do not know the word, you may guess or press Enter to skip forward to the next pair.",,Instruct6,25458,,,-1,-1,,,,1
5e5d8d190272740aa1029258,x75xm9ac6q,"Deep vs Shallow",1,281,2020-07-08T15:00:31-07:00,38.066716909409,1,versionA_stim.csv,RLVersionA.csv,"Relational Version A","Relational, read only version A",FLEA,TICK,Study2,S,151,161,Test,User,-,,Recall,Recall2,37389,dog,0,35726,35947,0,0,,1
5e5d8d190272740aa1029258,x75xm9ac6q,"Deep vs Shallow",1,282,2020-07-08T15:00:43-07:00,12.181478023529,1,versionA_stim.csv,RLVersionA.csv,"Relational Version A","Relational, read only version A",CANDLE,WAX,Study2,S,139,128,Test,User,-,,Recall,Recall2,11513,wax,100,10148,10487,1,1,,1
5e5d8d190272740aa1029258,x75xm9ac6q,"Deep vs Shallow",1,283,2020-07-08T15:00:52-07:00,8.9264678955078,1,versionA_stim.csv,RLVersionA.csv,"Relational Version A","Relational, read only version A",ADJOURN,END,Study2,F,101,102,Test,User,-,,Recall,Recall2,8256,end,100,4462,4683,1,1,,1
5e5d8d190272740aa1029258,x75xm9ac6q,"Deep vs Shallow",1,284,2020-07-08T15:01:29-07:00,37.359797000885,1,versionA_stim.csv,RLVersionA.csv,"Relational Version A","Relational, read only version A",BEST,FAVORITE,Study2,B,125,139,Test,User,-,,Recall,Recall2,36683,favorite,100,34625,35548,1,1,,1
5e5d8d190272740aa1029258,x75xm9ac6q,"Deep vs Shallow",1,285,2020-07-08T15:01:45-07:00,15.502467155457,1,versionA_stim.csv,RLVersionA.csv,"Relational Version A","Relational, read only version A",MOAT,CLEAR,Study2,U,169,133,Test,User,-,,Recall,Recall2,14829,clear,100,13660,14199,1,1,,1
5e5d8d190272740aa1029258,x75xm9ac6q,"Deep vs Shallow",1,286,2020-07-08T15:01:54-07:00,9.6095449924469,1,versionA_stim.csv,RLVersionA.csv,"Relational Version A","Relational, read only version A",VEHICLE,CHARM,Study2,U,160,156,Test,User,-,,Recall,Recall2,8937,car,75,8244,8586,0,1,,1
5e5d8d190272740aa1029258,x75xm9ac6q,"Deep vs Shallow",1,287,2020-07-08T15:02:26-07:00,31.729730844498,1,versionA_stim.csv,RLVersionA.csv,"Relational Version A","Relational, read only version A",Shell,SHAKE,Study2,U,163,165,Test,User,-,,Recall,Recall2,31058,beach,20,29772,30286,0,0,,1
5e5d8d190272740aa1029258,x75xm9ac6q,"Deep vs Shallow",1,288,2020-07-08T15:02:30-07:00,4.3861892223358,1,versionA_stim.csv,RLVersionA.csv,"Relational Version A","Relational, read only version A",CHOP,CUT,Study2,F,107,146,Test,User,-,,Recall,Recall2,3704,cut,100,2840,3149,1,1,,1
5e5d8d190272740aa1029258,x75xm9ac6q,"Deep vs Shallow",1,289,2020-07-08T15:03:01-07:00,30.750233888626,1,versionA_stim.csv,RLVersionA.csv,"Relational Version A","Relational, read only version A",TRUTH,LIE,Study2,S,148,148,Test,User,-,,Recall,Recall2,30109,lie,100,28251,28403,1,1,,1
5e5d8d190272740aa1029258,x75xm9ac6q,"Deep vs Shallow",1,290,2020-07-08T15:03:06-07:00,4.6419930458069,1,versionA_stim.csv,RLVersionA.csv,"Relational Version A","Relational, read only version A",ROD,REEL,Study2,S,150,126,Test,User,-,,Recall,Recall2,3985,fishing,0,2833,3445,0,0,,1
5e5d8d190272740aa1029258,x75xm9ac6q,"Deep vs Shallow",1,291,2020-07-08T15:03:37-07:00,31.689558982849,1,versionA_stim.csv,RLVersionA.csv,"Relational Version A","Relational, read only version A",SUN,TAN,Study2,S,155,109,Test,User,-,,Recall,Recall2,31032,tan,100,29795,30081,1,1,,1
5e5d8d190272740aa1029258,x75xm9ac6q,"Deep vs Shallow",1,292,2020-07-08T15:03:54-07:00,17.104793071747,1,versionA_stim.csv,RLVersionA.csv,"Relational Version A","Relational, read only version A",TEMPERATURE,Morning,Study2,U,173,123,Test,User,-,,Recall,Recall2,16440,morning,100,15028,15614,1,1,,1
5e5d8d190272740aa1029258,x75xm9ac6q,"Deep vs Shallow",1,293,2020-07-08T15:04:07-07:00,12.263556957245,1,versionA_stim.csv,RLVersionA.csv,"Relational Version A","Relational, read only version A",LOUD,NOISE,Study2,S,152,162,Test,User,-,,Recall,Recall2,11613,noise,100,10783,11091,1,1,,1
5e5d8d190272740aa1029258,x75xm9ac6q,"Deep vs Shallow",1,294,2020-07-08T15:04:12-07:00,4.8542430400848,1,versionA_stim.csv,RLVersionA.csv,"Relational Version A","Relational, read only version A",DOCUMENT,PAPER,Study2,F,109,175,Test,User,-,,Recall,Recall2,4188,paper,100,2824,3208,1,1,,1
5e5d8d190272740aa1029258,x75xm9ac6q,"Deep vs Shallow",1,295,2020-07-08T15:04:52-07:00,40.178736925125,1,versionA_stim.csv,RLVersionA.csv,"Relational Version A","Relational, read only version A",LOAN,SIGN,Study2,U,171,122,Test,User,-,,Recall,Recall2,39510,money,22.222222222222,37029,37509,0,0,,1
5e5d8d190272740aa1029258,x75xm9ac6q,"Deep vs Shallow",1,296,2020-07-08T15:05:07-07:00,15.352720975876,1,versionA_stim.csv,RLVersionA.csv,"Relational Version A","Relational, read only version A",SLEEP,NAP,Study2,B,134,114,Test,User,-,,Recall,Recall2,14656,nap,100,12779,14004,1,1,,1
5e5d8d190272740aa1029258,x75xm9ac6q,"Deep vs Shallow",1,297,2020-07-08T15:05:11-07:00,4.0270819664001,1,versionA_stim.csv,RLVersionA.csv,"Relational Version A","Relational, read only version A",DINE,EAT,Study2,F,111,170,Test,User,-,,Recall,Recall2,3349,eat,100,2521,2661,1,1,,1
5e5d8d190272740aa1029258,x75xm9ac6q,"Deep vs Shallow",1,298,2020-07-08T15:05:16-07:00,4.3552560806274,1,versionA_stim.csv,RLVersionA.csv,"Relational Version A","Relational, read only version A",MEAT,OBTAIN,Study2,U,161,113,Test,User,-,,Recall,Recall2,3690,obtain,100,2315,2806,1,1,,1
5e5d8d190272740aa1029258,x75xm9ac6q,"Deep vs Shallow",1,299,2020-07-08T15:05:20-07:00,4.2694189548492,1,versionA_stim.csv,RLVersionA.csv,"Relational Version A","Relational, read only version A",MASON,JAR,Study2,S,138,166,Test,User,-,,Recall,Recall2,3614,jar,100,1550,3074,1,1,,1
5e5d8d190272740aa1029258,x75xm9ac6q,"Deep vs Shallow",1,300,2020-07-08T15:06:00-07:00,39.797904968262,1,versionA_stim.csv,RLVersionA.csv,"Relational Version A","Relational, read only version A",CAKE,CLOTHES,Study2,U,166,160,Test,User,-,,Recall,Recall2,39127,clothes,100,37975,38615,1,1,,1
5e5d8d190272740aa1029258,x75xm9ac6q,"Deep vs Shallow",1,301,2020-07-08T15:06:04-07:00,4.8717651367188,1,versionA_stim.csv,RLVersionA.csv,"Relational Version A","Relational, read only version A",FISH,SARDINE,Study2,B,130,129,Test,User,-,,Recall,Recall2,4206,sardine,100,2272,3085,1,1,,1
5e5d8d190272740aa1029258,x75xm9ac6q,"Deep vs Shallow",1,302,2020-07-08T15:06:21-07:00,16.061548948288,1,versionA_stim.csv,RLVersionA.csv,"Relational Version A","Relational, read only version A",BIRD,PENGUIN,Study2,B,119,115,Test,User,-,,Recall,Recall2,15380,penguin,100,13678,14368,1,1,,1
5e5d8d190272740aa1029258,x75xm9ac6q,"Deep vs Shallow",1,303,2020-07-08T15:06:30-07:00,9.6120548248291,1,versionA_stim.csv,RLVersionA.csv,"Relational Version A","Relational, read only version A",ELEMENT,CARBON,Study2,S,141,143,Test,User,-,,Recall,Recall2,8929,carbon,100,7574,8211,1,1,,1
5e5d8d190272740aa1029258,x75xm9ac6q,"Deep vs Shallow",1,304,2020-07-08T15:06:57-07:00,27.277307033539,1,versionA_stim.csv,RLVersionA.csv,"Relational Version A","Relational, read only version A",FIGHT,BRAWL,Study2,B,135,101,Test,User,-,,Recall,Recall2,26631,brawl,100,25338,25898,1,1,,1
5e5d8d190272740aa1029258,x75xm9ac6q,"Deep vs Shallow",1,305,2020-07-08T15:07:27-07:00,29.854341983795,1,versionA_stim.csv,RLVersionA.csv,"Relational Version A","Relational, read only version A",TURN,FLIP,Study2,B,116,138,Test,User,-,,Recall,Recall2,29132,flip,100,27860,28163,1,1,,1
5e5d8d190272740aa1029258,x75xm9ac6q,"Deep vs Shallow",1,306,2020-07-08T15:07:43-07:00,16.090835094452,1,versionA_stim.csv,RLVersionA.csv,"Relational Version A","Relational, read only version A",INCENSE,SMELL,Study2,F,110,134,Test,User,-,,Recall,Recall2,15427,smell,100,12765,14659,1,1,,1
5e5d8d190272740aa1029258,x75xm9ac6q,"Deep vs Shallow",1,307,2020-07-08T15:08:25-07:00,41.517471075058,1,versionA_stim.csv,RLVersionA.csv,"Relational Version A","Relational, read only version A",STAR,ACTRESS,Study2,B,120,164,Test,User,-,,Recall,Recall2,40876,space,50,38733,39394,0,0,,1
5e5d8d190272740aa1029258,x75xm9ac6q,"Deep vs Shallow",1,308,2020-07-08T15:08:31-07:00,5.9362330436707,1,versionA_stim.csv,RLVersionA.csv,"Relational Version A","Relational, read only version A",DRIVER,CAR,Study2,F,106,159,Test,User,-,,Recall,Recall2,5241,car,100,4531,4898,1,1,,1
5e5d8d190272740aa1029258,x75xm9ac6q,"Deep vs Shallow",1,309,2020-07-08T15:09:01-07:00,30.338567972183,1,versionA_stim.csv,RLVersionA.csv,"Relational Version A","Relational, read only version A",CAR,WINDSHIELD,Study2,B,117,142,Test,User,-,,Recall,Recall2,29673,move,14.285714285714,28571,29149,0,0,,1
5e5d8d190272740aa1029258,x75xm9ac6q,"Deep vs Shallow",1,310,2020-07-08T15:09:20-07:00,18.585915803909,1,versionA_stim.csv,RLVersionA.csv,"Relational Version A","Relational, read only version A",MAIN,SCAR,Study2,U,175,104,Test,User,-,,Recall,Recall2,17931,scar,100,15477,15959,1,1,,1
5e5d8d190272740aa1029258,x75xm9ac6q,"Deep vs Shallow",1,311,2020-07-08T15:09:24-07:00,4.2107510566711,1,versionA_stim.csv,RLVersionA.csv,"Relational Version A","Relational, read only version A",SCALP,HEAD,Study2,F,105,130,Test,User,-,,Recall,Recall2,3504,head,100,2197,2521,1,1,,1
5e5d8d190272740aa1029258,x75xm9ac6q,"Deep vs Shallow",1,312,2020-07-08T15:10:11-07:00,47.329002141953,1,versionA_stim.csv,RLVersionA.csv,"Relational Version A","Relational, read only version A",HONEST,TRUTHFUL,Study2,B,133,124,Test,User,-,,Recall,Recall2,46685,truthful,100,44242,45874,1,1,,1
5e5d8d190272740aa1029258,x75xm9ac6q,"Deep vs Shallow",1,313,2020-07-08T15:10:19-07:00,8.209000825882,1,versionA_stim.csv,RLVersionA.csv,"Relational Version A","Relational, read only version A",BAD,VILLAIN,Study2,B,118,105,Test,User,-,,Recall,Recall2,7540,villain,100,5303,6383,1,1,,1
5e5d8d190272740aa1029258,x75xm9ac6q,"Deep vs Shallow",1,314,2020-07-08T15:10:25-07:00,5.9136621952057,1,versionA_stim.csv,RLVersionA.csv,"Relational Version A","Relational, read only version A",CRACKLE,ABLE,Study2,U,162,108,Test,User,-,,Recall,Recall2,5246,able,100,4198,4495,1,1,,1
5e5d8d190272740aa1029258,x75xm9ac6q,"Deep vs Shallow",1,315,2020-07-08T15:10:29-07:00,3.4651989936829,1,versionA_stim.csv,RLVersionA.csv,"Relational Version A","Relational, read only version A",RIGHTS,EQUAL,Study2,S,137,154,Test,User,-,,Recall,Recall2,2806,equal,100,1577,2091,1,1,,1
5e5d8d190272740aa1029258,x75xm9ac6q,"Deep vs Shallow",1,316,2020-07-08T15:10:48-07:00,19.029408931732,1,versionA_stim.csv,RLVersionA.csv,"Relational Version A","Relational, read only version A",FURRY,DOG,Study2,F,102,141,Test,User,-,,Recall,Recall2,18356,dog,100,17506,17716,1,1,,1
5e5d8d190272740aa1029258,x75xm9ac6q,"Deep vs Shallow",1,317,2020-07-08T15:10:52-07:00,4.5294549465179,1,versionA_stim.csv,RLVersionA.csv,"Relational Version A","Relational, read only version A",MIRROR,CHILDREN,Study2,U,174,140,Test,User,-,,Recall,Recall2,3856,children,100,2189,3074,1,1,,1
5e5d8d190272740aa1029258,x75xm9ac6q,"Deep vs Shallow",1,318,2020-07-08T15:11:10-07:00,17.732424974442,1,versionA_stim.csv,RLVersionA.csv,"Relational Version A","Relational, read only version A",EXTENSION,LONG,Study2,F,96,103,Test,User,-,,Recall,Recall2,17091,long,100,16007,16509,1,1,,1
5e5d8d190272740aa1029258,x75xm9ac6q,"Deep vs Shallow",1,319,2020-07-08T15:11:27-07:00,16.442454099655,1,versionA_stim.csv,RLVersionA.csv,"Relational Version A","Relational, read only version A",GONE,AWAY,Study2,S,142,149,Test,User,-,,Recall,Recall2,15759,away,100,14486,14839,1,1,,1
5e5d8d190272740aa1029258,x75xm9ac6q,"Deep vs Shallow",1,320,2020-07-08T15:11:36-07:00,9.5706038475037,1,versionA_stim.csv,RLVersionA.csv,"Relational Version A","Relational, read only version A",SHEARS,SCISSORS,Study2,F,112,137,Test,User,-,,Recall,Recall2,8870,scissors,100,6684,8312,1,1,,1
5e5d8d190272740aa1029258,x75xm9ac6q,"Deep vs Shallow",1,321,2020-07-08T15:11:45-07:00,9.2268490791321,1,versionA_stim.csv,RLVersionA.csv,"Relational Version A","Relational, read only version A",DETECTIVE,MYSTERY,Study2,F,100,135,Test,User,-,,Recall,Recall2,8569,mystery,100,6868,7808,1,1,,1
5e5d8d190272740aa1029258,x75xm9ac6q,"Deep vs Shallow",1,322,2020-07-08T15:11:59-07:00,13.587608098984,1,versionA_stim.csv,RLVersionA.csv,"Relational Version A","Relational, read only version A",THREAD,THIMBLE,Study2,B,121,171,Test,User,-,,Recall,Recall2,12885,thimble,100,11439,12132,1,1,,1
5e5d8d190272740aa1029258,x75xm9ac6q,"Deep vs Shallow",1,323,2020-07-08T15:12:18-07:00,19.106711864471,1,versionA_stim.csv,RLVersionA.csv,"Relational Version A","Relational, read only version A",BOTH,OUNCE,Study2,U,172,132,Test,User,-,,Recall,Recall2,18270,ounce,100,16227,16655,1,1,,1
5e5d8d190272740aa1029258,x75xm9ac6q,"Deep vs Shallow",1,324,2020-07-08T15:12:22-07:00,3.8086669445038,1,versionA_stim.csv,RLVersionA.csv,"Relational Version A","Relational, read only version A",MULE,DONKEY,Study2,F,108,97,Test,User,-,,Recall,Recall2,3037,donkey,100,1574,2542,1,1,,1
5e5d8d190272740aa1029258,x75xm9ac6q,"Deep vs Shallow",1,325,2020-07-08T15:12:27-07:00,4.660364151001,1,versionA_stim.csv,RLVersionA.csv,"Relational Version A","Relational, read only version A",BASEBALL,LEAGUE,Study2,B,131,153,Test,User,-,,Recall,Recall2,3971,"league ",100,1428,3308,1,1,,1
5e5d8d190272740aa1029258,x75xm9ac6q,"Deep vs Shallow",1,326,2020-07-08T15:12:31-07:00,3.9613208770752,1,versionA_stim.csv,RLVersionA.csv,"Relational Version A","Relational, read only version A",POP,BALLOON,Study2,B,123,145,Test,User,-,,Recall,Recall2,3288,balloon,100,1776,2598,1,1,,1
5e5d8d190272740aa1029258,x75xm9ac6q,"Deep vs Shallow",1,327,2020-07-08T15:12:38-07:00,7.8255860805511,1,versionA_stim.csv,RLVersionA.csv,"Relational Version A","Relational, read only version A",PLANE,AIRCRAFT,Study2,B,129,125,Test,User,-,,Recall,Recall2,7172,aircraft,100,5513,6631,1,1,,1
5e5d8d190272740aa1029258,x75xm9ac6q,"Deep vs Shallow",1,328,2020-07-08T15:12:42-07:00,3.6179370880127,1,versionA_stim.csv,RLVersionA.csv,"Relational Version A","Relational, read only version A",FRUIT,STRAWBERRY,Study2,B,124,167,Test,User,-,,Recall,Recall2,2956,strawberry,100,1106,2305,1,1,,1
5e5d8d190272740aa1029258,x75xm9ac6q,"Deep vs Shallow",1,329,2020-07-08T15:13:27-07:00,44.708081960678,1,versionA_stim.csv,RLVersionA.csv,"Relational Version A","Relational, read only version A",SAFETY,SEATBELT,Study2,S,147,121,Test,User,-,,Recall,Recall2,44039,belt,66.666666666667,42773,43252,0,0,,1
5e5d8d190272740aa1029258,x75xm9ac6q,"Deep vs Shallow",1,330,2020-07-08T15:13:44-07:00,17.798722028732,1,versionA_stim.csv,RLVersionA.csv,"Relational Version A","Relational, read only version A",LEASE,TOIL,Study2,U,170,169,Test,User,-,,Recall,Recall2,17071,toil,100,16104,16430,1,1,,1
5e5d8d190272740aa1029258,x75xm9ac6q,"Deep vs Shallow",1,331,2020-07-08T15:14:00-07:00,15.205006837845,1,versionA_stim.csv,RLVersionA.csv,"Relational Version A","Relational, read only version A",FEUD,FIGHT,Study2,F,113,144,Test,User,-,,Recall,Recall2,14535,fight,100,13490,13824,1,1,,1
5e5d8d190272740aa1029258,x75xm9ac6q,"Deep vs Shallow",1,332,2020-07-08T15:14:07-07:00,7.4002330303192,1,versionA_stim.csv,RLVersionA.csv,"Relational Version A","Relational, read only version A",MAZE,ELECTION,Study2,U,159,150,Test,User,-,,Recall,Recall2,6716,lost,33.333333333333,3331,3600,0,0,,1
5e5d8d190272740aa1029258,x75xm9ac6q,"Deep vs Shallow",1,333,2020-07-08T15:14:17-07:00,9.4553470611572,1,versionA_stim.csv,RLVersionA.csv,"Relational Version A","Relational, read only version A",PHONE,COMMUNICATION,Study2,S,149,176,Test,User,-,,Recall,Recall2,8808,call,23.529411764706,7704,8136,0,0,,1
5e5d8d190272740aa1029258,x75xm9ac6q,"Deep vs Shallow",1,334,2020-07-08T15:14:20-07:00,3.8283960819244,1,versionA_stim.csv,RLVersionA.csv,"Relational Version A","Relational, read only version A",CAT,PANTHER,Study2,B,126,110,Test,User,-,,Recall,Recall2,3152,panther,100,1929,2481,1,1,,1
5e5d8d190272740aa1029258,x75xm9ac6q,"Deep vs Shallow",1,335,2020-07-08T15:14:46-07:00,25.29945397377,1,versionA_stim.csv,RLVersionA.csv,"Relational Version A","Relational, read only version A",AFFECTION,LOVE,Study2,F,115,152,Test,User,-,,Recall,Recall2,24651,love,100,23618,23938,1,1,,1
5e5d8d190272740aa1029258,x75xm9ac6q,"Deep vs Shallow",1,336,2020-07-08T15:14:52-07:00,6.2559139728546,1,versionA_stim.csv,RLVersionA.csv,"Relational Version A","Relational, read only version A",ALONE,LONELY,Study2,S,145,158,Test,User,-,,Recall,Recall2,5580,lonely,100,4219,4846,1,1,,1
5e5d8d190272740aa1029258,x75xm9ac6q,"Deep vs Shallow",1,337,2020-07-08T15:14:55-07:00,3.1690039634705,1,versionA_stim.csv,RLVersionA.csv,"Relational Version A","Relational, read only version A",TANTRUM,TEMPER,Study2,S,154,172,Test,User,-,,Recall,Recall2,2503,temper,100,1424,1925,1,1,,1
5e5d8d190272740aa1029258,x75xm9ac6q,"Deep vs Shallow",1,338,2020-07-08T15:15:01-07:00,5.7121429443359,1,versionA_stim.csv,RLVersionA.csv,"Relational Version A","Relational, read only version A",GIVE,STEAK,Study2,U,158,147,Test,User,-,,Recall,Recall2,5053,steak,100,3936,4448,1,1,,1
5e5d8d190272740aa1029258,x75xm9ac6q,"Deep vs Shallow",1,339,2020-07-08T15:15:06-07:00,5.5123159885406,1,versionA_stim.csv,RLVersionA.csv,"Relational Version A","Relational, read only version A",KEYS,JOKE,Study2,U,165,173,Test,User,-,,Recall,Recall2,4857,joke,100,3909,4271,1,1,,1
5e5d8d190272740aa1029258,x75xm9ac6q,"Deep vs Shallow",1,340,2020-07-08T15:15:14-07:00,7.515869140625,1,versionA_stim.csv,RLVersionA.csv,"Relational Version A","Relational, read only version A",LISTEN,FICTION,Study2,U,164,155,Test,User,-,,Recall,Recall2,6829,fiction,100,5543,6106,1,1,,1
5e5d8d190272740aa1029258,x75xm9ac6q,"Deep vs Shallow",1,341,2020-07-08T15:15:17-07:00,3.2849960327148,1,versionA_stim.csv,RLVersionA.csv,"Relational Version A","Relational, read only version A",EARTH,GROUND,Study2,S,144,157,Test,User,-,,Recall,Recall2,2636,ground,100,1458,1894,1,1,,1
5e5d8d190272740aa1029258,x75xm9ac6q,"Deep vs Shallow",1,342,2020-07-08T15:15:24-07:00,6.8291339874268,1,versionA_stim.csv,RLVersionA.csv,"Relational Version A","Relational, read only version A",MONEY,BANKER,Study2,B,132,99,Test,User,-,,Recall,Recall2,6156,banker,100,5084,5621,1,1,,1
5e5d8d190272740aa1029258,x75xm9ac6q,"Deep vs Shallow",1,343,2020-07-08T15:15:32-07:00,7.9138429164886,1,versionA_stim.csv,RLVersionA.csv,"Relational Version A","Relational, read only version A",CHERRY,RED,Study2,F,104,131,Test,User,-,,Recall,Recall2,6253,red,100,5399,5667,1,1,,1
5e5d8d190272740aa1029258,x75xm9ac6q,"Deep vs Shallow",1,344,2020-07-08T15:15:42-07:00,9.8860170841217,1,versionA_stim.csv,RLVersionA.csv,"Relational Version A","Relational, read only version A",SHOELACE,TIE,Study2,F,99,136,Test,User,-,,Recall,Recall2,9221,tie,100,8082,8241,1,1,,1
5e5d8d190272740aa1029258,x75xm9ac6q,"Deep vs Shallow",1,345,2020-07-08T15:15:48-07:00,5.8333878517151,1,versionA_stim.csv,RLVersionA.csv,"Relational Version A","Relational, read only version A",GLASS,BREAKABLE,Study2,B,127,116,Test,User,-,,Recall,Recall2,5150,breakable,100,1659,2719,1,1,,1
5e5d8d190272740aa1029258,x75xm9ac6q,"Deep vs Shallow",1,346,2020-07-08T15:15:56-07:00,8.3563420772552,1,versionA_stim.csv,RLVersionA.csv,"Relational Version A","Relational, read only version A",LITTER,TRASH,Study2,F,103,168,Test,User,-,,Recall,Recall2,7676,trash,100,5582,6897,1,1,,1
