Username,ID,ExperimentName,Session,Trial,Date,TimeDif,"Condition Number","Stimuli File","Order File","Condition Description","Condition Notes",Stimuli*Cue,Stimuli*Answer,Stimuli*Shuffle,"Stimuli*Stimuli Notes",Stimuli*Value,Procedure*Item,"Procedure*Trial Type","Procedure*Max Time","Procedure*Min Time",Procedure*Text,"Procedure*Procedure Notes",Procedure*Shuffle,Response*RT,Response*Response,Response*Accuracy,Response*RTfirst,Response*RTlast,Response*strictAcc,Response*lenientAcc,Response*focus,Response*Focus
5d08b2a59b19d00018ad93d4,qws447241b,Nick_Dissertation_EX1,1,1,2020-06-02T09:22:25-07:00,13.411103010178,1,versionA_stim.csv,READVersionA.csv,"Read Version A","Dissertation, read only version A",,,,,,0,Instruct,-,10,"Please study each of the following word pairs. Remember that your memory will be tested! When finished, press Enter to move to the next pair.",Initial_Instruct,Instruct1,11031,,,-1,-1,,,,1
5d08b2a59b19d00018ad93d4,qws447241b,Nick_Dissertation_EX1,1,2,2020-06-02T09:22:28-07:00,3.3218610286713,1,versionA_stim.csv,READVersionA.csv,"Read Version A","Dissertation, read only version A",PEANUT,BUTTER,BUFFER1,Buffer,3,2,Study,User,-,,Study/JOL,BUFFER,1945,,,-1,-1,,,,1
5d08b2a59b19d00018ad93d4,qws447241b,Nick_Dissertation_EX1,1,3,2020-06-02T09:22:31-07:00,2.5783200263977,1,versionA_stim.csv,READVersionA.csv,"Read Version A","Dissertation, read only version A",SPACE,JAM,BUFFER1,Buffer,5,5,Study,User,-,,Study/JOL,BUFFER,1681,,,-1,-1,,,,1
5d08b2a59b19d00018ad93d4,qws447241b,Nick_Dissertation_EX1,1,4,2020-06-02T09:22:33-07:00,1.8798727989197,1,versionA_stim.csv,READVersionA.csv,"Read Version A","Dissertation, read only version A",TREES,GREEN,BUFFER1,Buffer,1,6,Study,User,-,,Study/JOL,BUFFER,1334,,,-1,-1,,,,1
5d08b2a59b19d00018ad93d4,qws447241b,Nick_Dissertation_EX1,1,5,2020-06-02T09:22:35-07:00,2.1493439674377,1,versionA_stim.csv,READVersionA.csv,"Read Version A","Dissertation, read only version A",SCARE,HIDE,BUFFER1,Buffer,4,3,Study,User,-,,Study/JOL,BUFFER,1587,,,-1,-1,,,,1
5d08b2a59b19d00018ad93d4,qws447241b,Nick_Dissertation_EX1,1,6,2020-06-02T09:22:37-07:00,2.6828701496124,1,versionA_stim.csv,READVersionA.csv,"Read Version A","Dissertation, read only version A",BASEBALL,CATCHER,BUFFER1,Buffer,2,4,Study,User,-,,Study/JOL,BUFFER,2121,,,-1,-1,,,,1
5d08b2a59b19d00018ad93d4,qws447241b,Nick_Dissertation_EX1,1,7,2020-06-02T09:22:40-07:00,2.6387910842896,1,versionA_stim.csv,READVersionA.csv,"Read Version A","Dissertation, read only version A",DISCUSSION,TALK,Study1,F,21,24,Study,User,-,,Study/JOL,"Study Phase",1788,,,-1,-1,,,,1
5d08b2a59b19d00018ad93d4,qws447241b,Nick_Dissertation_EX1,1,8,2020-06-02T09:22:42-07:00,2.1129579544067,1,versionA_stim.csv,READVersionA.csv,"Read Version A","Dissertation, read only version A",LETTUCE,SALAD,Study1,S,59,41,Study,User,-,,Study/JOL,"Study Phase",1505,,,-1,-1,,,,1
5d08b2a59b19d00018ad93d4,qws447241b,Nick_Dissertation_EX1,1,9,2020-06-02T09:22:45-07:00,2.6481938362122,1,versionA_stim.csv,READVersionA.csv,"Read Version A","Dissertation, read only version A",NUMBER,AMOUNT,Study1,S,47,60,Study,User,-,,Study/JOL,"Study Phase",1924,,,-1,-1,,,,1
5d08b2a59b19d00018ad93d4,qws447241b,Nick_Dissertation_EX1,1,10,2020-06-02T09:22:47-07:00,2.2702140808105,1,versionA_stim.csv,READVersionA.csv,"Read Version A","Dissertation, read only version A",WORK,CHORE,Study1,B,39,22,Study,User,-,,Study/JOL,"Study Phase",1643,,,-1,-1,,,,1
5d08b2a59b19d00018ad93d4,qws447241b,Nick_Dissertation_EX1,1,11,2020-06-02T09:22:49-07:00,2.1397941112518,1,versionA_stim.csv,READVersionA.csv,"Read Version A","Dissertation, read only version A",GEOLOGY,ROCK,Study1,F,19,84,Study,User,-,,Study/JOL,"Study Phase",1504,,,-1,-1,,,,1
5d08b2a59b19d00018ad93d4,qws447241b,Nick_Dissertation_EX1,1,12,2020-06-02T09:22:52-07:00,2.5493829250336,1,versionA_stim.csv,READVersionA.csv,"Read Version A","Dissertation, read only version A",SHOE,FOOT,Study1,S,60,51,Study,User,-,,Study/JOL,"Study Phase",1640,,,-1,-1,,,,1
5d08b2a59b19d00018ad93d4,qws447241b,Nick_Dissertation_EX1,1,13,2020-06-02T09:22:54-07:00,2.040237903595,1,versionA_stim.csv,READVersionA.csv,"Read Version A","Dissertation, read only version A",DUE,ASSIGNMENT,Study1,S,46,19,Study,User,-,,Study/JOL,"Study Phase",1443,,,-1,-1,,,,1
5d08b2a59b19d00018ad93d4,qws447241b,Nick_Dissertation_EX1,1,14,2020-06-02T09:22:57-07:00,2.7667281627655,1,versionA_stim.csv,READVersionA.csv,"Read Version A","Dissertation, read only version A",KEY,LATCH,Study1,B,36,67,Study,User,-,,Study/JOL,"Study Phase",2091,,,-1,-1,,,,1
5d08b2a59b19d00018ad93d4,qws447241b,Nick_Dissertation_EX1,1,15,2020-06-02T09:22:58-07:00,1.302806854248,1,versionA_stim.csv,READVersionA.csv,"Read Version A","Dissertation, read only version A",BALL,RACKET,Study1,B,38,79,Study,User,-,,Study/JOL,"Study Phase",719,,,-1,-1,,,,1
5d08b2a59b19d00018ad93d4,qws447241b,Nick_Dissertation_EX1,1,16,2020-06-02T09:23:00-07:00,1.7816591262817,1,versionA_stim.csv,READVersionA.csv,"Read Version A","Dissertation, read only version A",STRONG,ACCIDENT,Study1,U,80,8,Study,User,-,,Study/JOL,"Study Phase",1183,,,-1,-1,,,,1
5d08b2a59b19d00018ad93d4,qws447241b,Nick_Dissertation_EX1,1,17,2020-06-02T09:23:01-07:00,1.7594740390778,1,versionA_stim.csv,READVersionA.csv,"Read Version A","Dissertation, read only version A",BATHROOM,TOILET,Study1,S,58,42,Study,User,-,,Study/JOL,"Study Phase",1185,,,-1,-1,,,,1
5d08b2a59b19d00018ad93d4,qws447241b,Nick_Dissertation_EX1,1,18,2020-06-02T09:23:03-07:00,1.6307039260864,1,versionA_stim.csv,READVersionA.csv,"Read Version A","Dissertation, read only version A",MACHINE,POSITION,Study1,U,76,39,Study,User,-,,Study/JOL,"Study Phase",1068,,,-1,-1,,,,1
5d08b2a59b19d00018ad93d4,qws447241b,Nick_Dissertation_EX1,1,19,2020-06-02T09:23:05-07:00,2.1954128742218,1,versionA_stim.csv,READVersionA.csv,"Read Version A","Dissertation, read only version A",CASH,WOULD,Study1,U,83,83,Study,User,-,,Study/JOL,"Study Phase",1583,,,-1,-1,,,,1
5d08b2a59b19d00018ad93d4,qws447241b,Nick_Dissertation_EX1,1,20,2020-06-02T09:23:07-07:00,1.9633100032806,1,versionA_stim.csv,READVersionA.csv,"Read Version A","Dissertation, read only version A",WINE,CHEESE,Study1,S,57,57,Study,User,-,,Study/JOL,"Study Phase",1245,,,-1,-1,,,,1
5d08b2a59b19d00018ad93d4,qws447241b,Nick_Dissertation_EX1,1,21,2020-06-02T09:23:09-07:00,2.1368901729584,1,versionA_stim.csv,READVersionA.csv,"Read Version A","Dissertation, read only version A",EDITOR,NEWS,Study1,F,10,73,Study,User,-,,Study/JOL,"Study Phase",1517,,,-1,-1,,,,1
5d08b2a59b19d00018ad93d4,qws447241b,Nick_Dissertation_EX1,1,22,2020-06-02T09:23:11-07:00,1.9901168346405,1,versionA_stim.csv,READVersionA.csv,"Read Version A","Dissertation, read only version A",POP,SODA,Study1,S,56,25,Study,User,-,,Study/JOL,"Study Phase",1348,,,-1,-1,,,,1
5d08b2a59b19d00018ad93d4,qws447241b,Nick_Dissertation_EX1,1,23,2020-06-02T09:23:13-07:00,2.0825340747833,1,versionA_stim.csv,READVersionA.csv,"Read Version A","Dissertation, read only version A",PLANE,PILOT,Study1,B,44,44,Study,User,-,,Study/JOL,"Study Phase",1521,,,-1,-1,,,,1
5d08b2a59b19d00018ad93d4,qws447241b,Nick_Dissertation_EX1,1,24,2020-06-02T09:23:15-07:00,1.6801280975342,1,versionA_stim.csv,READVersionA.csv,"Read Version A","Dissertation, read only version A",CHISEL,HAMMER,Study1,F,9,76,Study,User,-,,Study/JOL,"Study Phase",992,,,-1,-1,,,,1
5d08b2a59b19d00018ad93d4,qws447241b,Nick_Dissertation_EX1,1,25,2020-06-02T09:23:17-07:00,1.599967956543,1,versionA_stim.csv,READVersionA.csv,"Read Version A","Dissertation, read only version A",BEGIN,END,Study1,S,54,34,Study,User,-,,Study/JOL,"Study Phase",987,,,-1,-1,,,,1
5d08b2a59b19d00018ad93d4,qws447241b,Nick_Dissertation_EX1,1,26,2020-06-02T09:23:18-07:00,1.4209299087524,1,versionA_stim.csv,READVersionA.csv,"Read Version A","Dissertation, read only version A",SOON,BELT,Study1,U,70,35,Study,User,-,,Study/JOL,"Study Phase",803,,,-1,-1,,,,1
5d08b2a59b19d00018ad93d4,qws447241b,Nick_Dissertation_EX1,1,27,2020-06-02T09:23:20-07:00,1.3391840457916,1,versionA_stim.csv,READVersionA.csv,"Read Version A","Dissertation, read only version A",CLOTHES,ATTIRE,Study1,B,43,63,Study,User,-,,Study/JOL,"Study Phase",737,,,-1,-1,,,,1
5d08b2a59b19d00018ad93d4,qws447241b,Nick_Dissertation_EX1,1,28,2020-06-02T09:23:21-07:00,1.6191899776459,1,versionA_stim.csv,READVersionA.csv,"Read Version A","Dissertation, read only version A",HONEY,BEE,Study1,S,63,7,Study,User,-,,Study/JOL,"Study Phase",1043,,,-1,-1,,,,1
5d08b2a59b19d00018ad93d4,qws447241b,Nick_Dissertation_EX1,1,29,2020-06-02T09:23:23-07:00,1.4226999282837,1,versionA_stim.csv,READVersionA.csv,"Read Version A","Dissertation, read only version A",SUGAR,RIDDLE,Study1,U,81,45,Study,User,-,,Study/JOL,"Study Phase",838,,,-1,-1,,,,1
5d08b2a59b19d00018ad93d4,qws447241b,Nick_Dissertation_EX1,1,30,2020-06-02T09:23:24-07:00,1.7979500293732,1,versionA_stim.csv,READVersionA.csv,"Read Version A","Dissertation, read only version A",CIRCLE,ROUND,Study1,S,65,55,Study,User,-,,Study/JOL,"Study Phase",1261,,,-1,-1,,,,1
5d08b2a59b19d00018ad93d4,qws447241b,Nick_Dissertation_EX1,1,31,2020-06-02T09:23:26-07:00,1.5106029510498,1,versionA_stim.csv,READVersionA.csv,"Read Version A","Dissertation, read only version A",VALLEY,ADD,Study1,U,82,75,Study,User,-,,Study/JOL,"Study Phase",904,,,-1,-1,,,,1
5d08b2a59b19d00018ad93d4,qws447241b,Nick_Dissertation_EX1,1,32,2020-06-02T09:23:27-07:00,1.3800330162048,1,versionA_stim.csv,READVersionA.csv,"Read Version A","Dissertation, read only version A",HEIGHT,GROWTH,Study1,B,30,18,Study,User,-,,Study/JOL,"Study Phase",859,,,-1,-1,,,,1
5d08b2a59b19d00018ad93d4,qws447241b,Nick_Dissertation_EX1,1,33,2020-06-02T09:23:29-07:00,1.4989981651306,1,versionA_stim.csv,READVersionA.csv,"Read Version A","Dissertation, read only version A",PUSHER,CLUTTER,Study1,U,66,15,Study,User,-,,Study/JOL,"Study Phase",976,,,-1,-1,,,,1
5d08b2a59b19d00018ad93d4,qws447241b,Nick_Dissertation_EX1,1,34,2020-06-02T09:23:30-07:00,1.5000398159027,1,versionA_stim.csv,READVersionA.csv,"Read Version A","Dissertation, read only version A",DIETARY,SACKING,Study1,U,67,70,Study,User,-,,Study/JOL,"Study Phase",968,,,-1,-1,,,,1
5d08b2a59b19d00018ad93d4,qws447241b,Nick_Dissertation_EX1,1,35,2020-06-02T09:23:32-07:00,1.281524181366,1,versionA_stim.csv,READVersionA.csv,"Read Version A","Dissertation, read only version A",PARK,HUNGRY,Study1,U,68,56,Study,User,-,,Study/JOL,"Study Phase",750,,,-1,-1,,,,1
5d08b2a59b19d00018ad93d4,qws447241b,Nick_Dissertation_EX1,1,36,2020-06-02T09:23:33-07:00,1.6187689304352,1,versionA_stim.csv,READVersionA.csv,"Read Version A","Dissertation, read only version A",DEBATE,SIGHT,Study1,U,73,37,Study,User,-,,Study/JOL,"Study Phase",1072,,,-1,-1,,,,1
5d08b2a59b19d00018ad93d4,qws447241b,Nick_Dissertation_EX1,1,37,2020-06-02T09:23:34-07:00,1.2201359272003,1,versionA_stim.csv,READVersionA.csv,"Read Version A","Dissertation, read only version A",LIFT,WOMAN,Study1,U,69,10,Study,User,-,,Study/JOL,"Study Phase",660,,,-1,-1,,,,1
5d08b2a59b19d00018ad93d4,qws447241b,Nick_Dissertation_EX1,1,38,2020-06-02T09:23:36-07:00,1.51926612854,1,versionA_stim.csv,READVersionA.csv,"Read Version A","Dissertation, read only version A",PAST,FUTURE,Study1,S,61,12,Study,User,-,,Study/JOL,"Study Phase",973,,,-1,-1,,,,1
5d08b2a59b19d00018ad93d4,qws447241b,Nick_Dissertation_EX1,1,39,2020-06-02T09:23:37-07:00,1.4108409881592,1,versionA_stim.csv,READVersionA.csv,"Read Version A","Dissertation, read only version A",REVOLUTION,WAR,Study1,F,20,47,Study,User,-,,Study/JOL,"Study Phase",858,,,-1,-1,,,,1
5d08b2a59b19d00018ad93d4,qws447241b,Nick_Dissertation_EX1,1,40,2020-06-02T09:23:39-07:00,1.2091009616852,1,versionA_stim.csv,READVersionA.csv,"Read Version A","Dissertation, read only version A",SENTENCE,WORD,Study1,B,31,86,Study,User,-,,Study/JOL,"Study Phase",673,,,-1,-1,,,,1
5d08b2a59b19d00018ad93d4,qws447241b,Nick_Dissertation_EX1,1,41,2020-06-02T09:23:40-07:00,1.2414939403534,1,versionA_stim.csv,READVersionA.csv,"Read Version A","Dissertation, read only version A",FULL,ENOUGH,Study1,B,26,82,Study,User,-,,Study/JOL,"Study Phase",700,,,-1,-1,,,,1
5d08b2a59b19d00018ad93d4,qws447241b,Nick_Dissertation_EX1,1,42,2020-06-02T09:23:41-07:00,1.190150976181,1,versionA_stim.csv,READVersionA.csv,"Read Version A","Dissertation, read only version A",DISCOVER,FLOOR,Study1,U,71,61,Study,User,-,,Study/JOL,"Study Phase",668,,,-1,-1,,,,1
5d08b2a59b19d00018ad93d4,qws447241b,Nick_Dissertation_EX1,1,43,2020-06-02T09:23:42-07:00,1.3697710037231,1,versionA_stim.csv,READVersionA.csv,"Read Version A","Dissertation, read only version A",DRINK,SIP,Study1,B,27,59,Study,User,-,,Study/JOL,"Study Phase",832,,,-1,-1,,,,1
5d08b2a59b19d00018ad93d4,qws447241b,Nick_Dissertation_EX1,1,44,2020-06-02T09:23:44-07:00,1.2999820709229,1,versionA_stim.csv,READVersionA.csv,"Read Version A","Dissertation, read only version A",TAKE,SEIZE,Study1,B,29,11,Study,User,-,,Study/JOL,"Study Phase",769,,,-1,-1,,,,1
5d08b2a59b19d00018ad93d4,qws447241b,Nick_Dissertation_EX1,1,45,2020-06-02T09:23:45-07:00,1.328635931015,1,versionA_stim.csv,READVersionA.csv,"Read Version A","Dissertation, read only version A",HERD,COW,Study1,F,22,20,Study,User,-,,Study/JOL,"Study Phase",795,,,-1,-1,,,,1
5d08b2a59b19d00018ad93d4,qws447241b,Nick_Dissertation_EX1,1,46,2020-06-02T09:23:46-07:00,1.3808979988098,1,versionA_stim.csv,READVersionA.csv,"Read Version A","Dissertation, read only version A",PAW,DOG,Study1,F,15,31,Study,User,-,,Study/JOL,"Study Phase",856,,,-1,-1,,,,1
5d08b2a59b19d00018ad93d4,qws447241b,Nick_Dissertation_EX1,1,47,2020-06-02T09:23:48-07:00,1.4729490280151,1,versionA_stim.csv,READVersionA.csv,"Read Version A","Dissertation, read only version A",KIDNEY,LIVER,Study1,S,53,21,Study,User,-,,Study/JOL,"Study Phase",935,,,-1,-1,,,,1
5d08b2a59b19d00018ad93d4,qws447241b,Nick_Dissertation_EX1,1,48,2020-06-02T09:23:49-07:00,1.4760820865631,1,versionA_stim.csv,READVersionA.csv,"Read Version A","Dissertation, read only version A",BRIDGE,WATER,Study1,F,18,81,Study,User,-,,Study/JOL,"Study Phase",938,,,-1,-1,,,,1
5d08b2a59b19d00018ad93d4,qws447241b,Nick_Dissertation_EX1,1,49,2020-06-02T09:24:01-07:00,11.811922073364,1,versionA_stim.csv,READVersionA.csv,"Read Version A","Dissertation, read only version A",DUMP,WASTE,Study1,S,49,38,Study,User,-,,Study/JOL,"Study Phase",9038,,,-1,-1,,,,1
5d08b2a59b19d00018ad93d4,qws447241b,Nick_Dissertation_EX1,1,50,2020-06-02T09:24:04-07:00,3.2592358589172,1,versionA_stim.csv,READVersionA.csv,"Read Version A","Dissertation, read only version A",WAGE,MONEY,Study1,F,8,30,Study,User,-,,Study/JOL,"Study Phase",2503,,,-1,-1,,,,1
5d08b2a59b19d00018ad93d4,qws447241b,Nick_Dissertation_EX1,1,51,2020-06-02T09:24:06-07:00,1.9090659618378,1,versionA_stim.csv,READVersionA.csv,"Read Version A","Dissertation, read only version A",DEATH,BUSINESS,Study1,U,72,64,Study,User,-,,Study/JOL,"Study Phase",837,,,-1,-1,,,,1
5d08b2a59b19d00018ad93d4,qws447241b,Nick_Dissertation_EX1,1,52,2020-06-02T09:24:08-07:00,1.3806681632996,1,versionA_stim.csv,READVersionA.csv,"Read Version A","Dissertation, read only version A",GRILL,BAR,Study1,S,52,46,Study,User,-,,Study/JOL,"Study Phase",802,,,-1,-1,,,,1
5d08b2a59b19d00018ad93d4,qws447241b,Nick_Dissertation_EX1,1,53,2020-06-02T09:24:09-07:00,1.5904200077057,1,versionA_stim.csv,READVersionA.csv,"Read Version A","Dissertation, read only version A",ORCHID,FLOWER,Study1,F,24,9,Study,User,-,,Study/JOL,"Study Phase",1035,,,-1,-1,,,,1
5d08b2a59b19d00018ad93d4,qws447241b,Nick_Dissertation_EX1,1,54,2020-06-02T09:24:11-07:00,1.5898239612579,1,versionA_stim.csv,READVersionA.csv,"Read Version A","Dissertation, read only version A",HORNET,STING,Study1,F,11,50,Study,User,-,,Study/JOL,"Study Phase",1044,,,-1,-1,,,,1
5d08b2a59b19d00018ad93d4,qws447241b,Nick_Dissertation_EX1,1,55,2020-06-02T09:24:12-07:00,1.5897479057312,1,versionA_stim.csv,READVersionA.csv,"Read Version A","Dissertation, read only version A",SMELL,STENCH,Study1,B,42,74,Study,User,-,,Study/JOL,"Study Phase",1009,,,-1,-1,,,,1
5d08b2a59b19d00018ad93d4,qws447241b,Nick_Dissertation_EX1,1,56,2020-06-02T09:24:14-07:00,1.4999139308929,1,versionA_stim.csv,READVersionA.csv,"Read Version A","Dissertation, read only version A",ARCHITECTURE,DESIGN,Study1,S,51,71,Study,User,-,,Study/JOL,"Study Phase",968,,,-1,-1,,,,1
5d08b2a59b19d00018ad93d4,qws447241b,Nick_Dissertation_EX1,1,57,2020-06-02T09:24:15-07:00,1.4796280860901,1,versionA_stim.csv,READVersionA.csv,"Read Version A","Dissertation, read only version A",HAPPY,CAR,Study1,U,77,65,Study,User,-,,Study/JOL,"Study Phase",861,,,-1,-1,,,,1
5d08b2a59b19d00018ad93d4,qws447241b,Nick_Dissertation_EX1,1,58,2020-06-02T09:24:17-07:00,1.4790070056915,1,versionA_stim.csv,READVersionA.csv,"Read Version A","Dissertation, read only version A",BLOW,WIND,Study1,S,55,23,Study,User,-,,Study/JOL,"Study Phase",925,,,-1,-1,,,,1
5d08b2a59b19d00018ad93d4,qws447241b,Nick_Dissertation_EX1,1,59,2020-06-02T09:24:18-07:00,1.5458760261536,1,versionA_stim.csv,READVersionA.csv,"Read Version A","Dissertation, read only version A",HOT,CHILI,Study1,B,37,26,Study,User,-,,Study/JOL,"Study Phase",1002,,,-1,-1,,,,1
5d08b2a59b19d00018ad93d4,qws447241b,Nick_Dissertation_EX1,1,60,2020-06-02T09:24:20-07:00,1.2249510288239,1,versionA_stim.csv,READVersionA.csv,"Read Version A","Dissertation, read only version A",CREDIT,CARD,Study1,F,23,78,Study,User,-,,Study/JOL,"Study Phase",632,,,-1,-1,,,,1
5d08b2a59b19d00018ad93d4,qws447241b,Nick_Dissertation_EX1,1,61,2020-06-02T09:24:21-07:00,1.4900228977203,1,versionA_stim.csv,READVersionA.csv,"Read Version A","Dissertation, read only version A",DARK,CAVE,Study1,B,28,62,Study,User,-,,Study/JOL,"Study Phase",924,,,-1,-1,,,,1
5d08b2a59b19d00018ad93d4,qws447241b,Nick_Dissertation_EX1,1,62,2020-06-02T09:24:22-07:00,1.2806770801544,1,versionA_stim.csv,READVersionA.csv,"Read Version A","Dissertation, read only version A",ALLOW,TUCK,Study1,U,78,52,Study,User,-,,Study/JOL,"Study Phase",724,,,-1,-1,,,,1
5d08b2a59b19d00018ad93d4,qws447241b,Nick_Dissertation_EX1,1,63,2020-06-02T09:24:24-07:00,1.389445066452,1,versionA_stim.csv,READVersionA.csv,"Read Version A","Dissertation, read only version A",HYGIENE,CLEAN,Study1,F,17,16,Study,User,-,,Study/JOL,"Study Phase",824,,,-1,-1,,,,1
5d08b2a59b19d00018ad93d4,qws447241b,Nick_Dissertation_EX1,1,64,2020-06-02T09:24:25-07:00,1.3604769706726,1,versionA_stim.csv,READVersionA.csv,"Read Version A","Dissertation, read only version A",ART,LION,Study1,U,79,17,Study,User,-,,Study/JOL,"Study Phase",835,,,-1,-1,,,,1
5d08b2a59b19d00018ad93d4,qws447241b,Nick_Dissertation_EX1,1,65,2020-06-02T09:24:26-07:00,1.2221360206604,1,versionA_stim.csv,READVersionA.csv,"Read Version A","Dissertation, read only version A",HUNGER,FAMINE,Study1,B,40,80,Study,User,-,,Study/JOL,"Study Phase",621,,,-1,-1,,,,1
5d08b2a59b19d00018ad93d4,qws447241b,Nick_Dissertation_EX1,1,66,2020-06-02T09:24:27-07:00,1.1271448135376,1,versionA_stim.csv,READVersionA.csv,"Read Version A","Dissertation, read only version A",MATH,DIVISION,Study1,B,33,13,Study,User,-,,Study/JOL,"Study Phase",554,,,-1,-1,,,,1
5d08b2a59b19d00018ad93d4,qws447241b,Nick_Dissertation_EX1,1,67,2020-06-02T09:24:29-07:00,1.2502369880676,1,versionA_stim.csv,READVersionA.csv,"Read Version A","Dissertation, read only version A",ROOT,PLANT,Study1,F,13,49,Study,User,-,,Study/JOL,"Study Phase",649,,,-1,-1,,,,1
5d08b2a59b19d00018ad93d4,qws447241b,Nick_Dissertation_EX1,1,68,2020-06-02T09:24:30-07:00,1.1466941833496,1,versionA_stim.csv,READVersionA.csv,"Read Version A","Dissertation, read only version A",DIGESTION,STOMACH,Study1,F,7,36,Study,User,-,,Study/JOL,"Study Phase",594,,,-1,-1,,,,1
5d08b2a59b19d00018ad93d4,qws447241b,Nick_Dissertation_EX1,1,69,2020-06-02T09:24:31-07:00,1.5924270153046,1,versionA_stim.csv,READVersionA.csv,"Read Version A","Dissertation, read only version A",FIX,HAND,Study1,U,75,33,Study,User,-,,Study/JOL,"Study Phase",890,,,-1,-1,,,,1
5d08b2a59b19d00018ad93d4,qws447241b,Nick_Dissertation_EX1,1,70,2020-06-02T09:24:33-07:00,1.5065879821777,1,versionA_stim.csv,READVersionA.csv,"Read Version A","Dissertation, read only version A",SLEEP,DROWSY,Study1,B,41,54,Study,User,-,,Study/JOL,"Study Phase",935,,,-1,-1,,,,1
5d08b2a59b19d00018ad93d4,qws447241b,Nick_Dissertation_EX1,1,71,2020-06-02T09:24:34-07:00,1.3864538669586,1,versionA_stim.csv,READVersionA.csv,"Read Version A","Dissertation, read only version A",LOCATION,SITE,Study1,S,48,85,Study,User,-,,Study/JOL,"Study Phase",841,,,-1,-1,,,,1
5d08b2a59b19d00018ad93d4,qws447241b,Nick_Dissertation_EX1,1,72,2020-06-02T09:24:36-07:00,1.4973731040955,1,versionA_stim.csv,READVersionA.csv,"Read Version A","Dissertation, read only version A",TUNA,FISH,Study1,F,25,48,Study,User,-,,Study/JOL,"Study Phase",888,,,-1,-1,,,,1
5d08b2a59b19d00018ad93d4,qws447241b,Nick_Dissertation_EX1,1,73,2020-06-02T09:24:37-07:00,1.561320066452,1,versionA_stim.csv,READVersionA.csv,"Read Version A","Dissertation, read only version A",GREAT,FANTASTIC,Study1,B,35,29,Study,User,-,,Study/JOL,"Study Phase",985,,,-1,-1,,,,1
5d08b2a59b19d00018ad93d4,qws447241b,Nick_Dissertation_EX1,1,74,2020-06-02T09:24:39-07:00,1.459725856781,1,versionA_stim.csv,READVersionA.csv,"Read Version A","Dissertation, read only version A",KING,VASE,Study1,U,85,68,Study,User,-,,Study/JOL,"Study Phase",926,,,-1,-1,,,,1
5d08b2a59b19d00018ad93d4,qws447241b,Nick_Dissertation_EX1,1,75,2020-06-02T09:24:40-07:00,1.6004979610443,1,versionA_stim.csv,READVersionA.csv,"Read Version A","Dissertation, read only version A",WAY,OUT,Study1,F,16,58,Study,User,-,,Study/JOL,"Study Phase",1036,,,-1,-1,,,,1
5d08b2a59b19d00018ad93d4,qws447241b,Nick_Dissertation_EX1,1,76,2020-06-02T09:24:42-07:00,1.5451581478119,1,versionA_stim.csv,READVersionA.csv,"Read Version A","Dissertation, read only version A",SWAN,BIRD,Study1,F,14,40,Study,User,-,,Study/JOL,"Study Phase",1008,,,-1,-1,,,,1
5d08b2a59b19d00018ad93d4,qws447241b,Nick_Dissertation_EX1,1,77,2020-06-02T09:24:43-07:00,1.4446098804474,1,versionA_stim.csv,READVersionA.csv,"Read Version A","Dissertation, read only version A",FIRE,BLAZE,Study1,B,45,69,Study,User,-,,Study/JOL,"Study Phase",876,,,-1,-1,,,,1
5d08b2a59b19d00018ad93d4,qws447241b,Nick_Dissertation_EX1,1,78,2020-06-02T09:24:46-07:00,2.5118980407715,1,versionA_stim.csv,READVersionA.csv,"Read Version A","Dissertation, read only version A",BUG,WASP,Study1,B,32,66,Study,User,-,,Study/JOL,"Study Phase",1686,,,-1,-1,,,,1
5d08b2a59b19d00018ad93d4,qws447241b,Nick_Dissertation_EX1,1,79,2020-06-02T09:24:47-07:00,1.3088359832764,1,versionA_stim.csv,READVersionA.csv,"Read Version A","Dissertation, read only version A",TRIAL,JURY,Study1,S,50,53,Study,User,-,,Study/JOL,"Study Phase",773,,,-1,-1,,,,1
5d08b2a59b19d00018ad93d4,qws447241b,Nick_Dissertation_EX1,1,80,2020-06-02T09:24:49-07:00,1.7363839149475,1,versionA_stim.csv,READVersionA.csv,"Read Version A","Dissertation, read only version A",DELINQUENT,BAD,Study1,F,6,72,Study,User,-,,Study/JOL,"Study Phase",1170,,,-1,-1,,,,1
5d08b2a59b19d00018ad93d4,qws447241b,Nick_Dissertation_EX1,1,81,2020-06-02T09:24:51-07:00,1.5992441177368,1,versionA_stim.csv,READVersionA.csv,"Read Version A","Dissertation, read only version A",MEANING,DEFINITION,Study1,S,62,43,Study,User,-,,Study/JOL,"Study Phase",1033,,,-1,-1,,,,1
5d08b2a59b19d00018ad93d4,qws447241b,Nick_Dissertation_EX1,1,82,2020-06-02T09:24:52-07:00,1.5262320041656,1,versionA_stim.csv,READVersionA.csv,"Read Version A","Dissertation, read only version A",HIDE,SICK,Study1,U,84,32,Study,User,-,,Study/JOL,"Study Phase",918,,,-1,-1,,,,1
5d08b2a59b19d00018ad93d4,qws447241b,Nick_Dissertation_EX1,1,83,2020-06-02T09:24:54-07:00,1.3786079883575,1,versionA_stim.csv,READVersionA.csv,"Read Version A","Dissertation, read only version A",BITTER,COLD,Study1,F,12,27,Study,User,-,,Study/JOL,"Study Phase",766,,,-1,-1,,,,1
5d08b2a59b19d00018ad93d4,qws447241b,Nick_Dissertation_EX1,1,84,2020-06-02T09:24:55-07:00,1.428699016571,1,versionA_stim.csv,READVersionA.csv,"Read Version A","Dissertation, read only version A",BABY,CHILD,Study1,S,64,77,Study,User,-,,Study/JOL,"Study Phase",884,,,-1,-1,,,,1
5d08b2a59b19d00018ad93d4,qws447241b,Nick_Dissertation_EX1,1,85,2020-06-02T09:24:58-07:00,2.7436220645905,1,versionA_stim.csv,READVersionA.csv,"Read Version A","Dissertation, read only version A",ARTERY,BRONZE,Study1,U,74,14,Study,User,-,,Study/JOL,"Study Phase",1151,,,-1,-1,,,,1
5d08b2a59b19d00018ad93d4,qws447241b,Nick_Dissertation_EX1,1,86,2020-06-02T09:24:59-07:00,1.4987049102783,1,versionA_stim.csv,READVersionA.csv,"Read Version A","Dissertation, read only version A",LAW,ATTORNEY,Study1,B,34,28,Study,User,-,,Study/JOL,"Study Phase",863,,,-1,-1,,,,1
5d08b2a59b19d00018ad93d4,qws447241b,Nick_Dissertation_EX1,1,87,2020-06-02T09:25:01-07:00,1.4788990020752,1,versionA_stim.csv,READVersionA.csv,"Read Version A","Dissertation, read only version A",THING,STUFF,BUFFER2,Buffer,90,88,Study,User,-,,Study/JOL,BUFFER2,915,,,-1,-1,,,,1
5d08b2a59b19d00018ad93d4,qws447241b,Nick_Dissertation_EX1,1,88,2020-06-02T09:25:02-07:00,1.4694120883942,1,versionA_stim.csv,READVersionA.csv,"Read Version A","Dissertation, read only version A",SHERRIF,POLICE,BUFFER2,Buffer,87,91,Study,User,-,,Study/JOL,BUFFER2,885,,,-1,-1,,,,1
5d08b2a59b19d00018ad93d4,qws447241b,Nick_Dissertation_EX1,1,89,2020-06-02T09:25:03-07:00,1.2013108730316,1,versionA_stim.csv,READVersionA.csv,"Read Version A","Dissertation, read only version A",GEESE,GOOSE,BUFFER2,Buffer,86,90,Study,User,-,,Study/JOL,BUFFER2,666,,,-1,-1,,,,1
5d08b2a59b19d00018ad93d4,qws447241b,Nick_Dissertation_EX1,1,90,2020-06-02T09:25:05-07:00,1.3078529834747,1,versionA_stim.csv,READVersionA.csv,"Read Version A","Dissertation, read only version A",MOON,SPACE,BUFFER2,Buffer,89,89,Study,User,-,,Study/JOL,BUFFER2,760,,,-1,-1,,,,1
5d08b2a59b19d00018ad93d4,qws447241b,Nick_Dissertation_EX1,1,91,2020-06-02T09:25:06-07:00,1.3399851322174,1,versionA_stim.csv,READVersionA.csv,"Read Version A","Dissertation, read only version A",MALT,CHOCOLATE,BUFFER2,Buffer,88,87,Study,User,-,,Study/JOL,BUFFER2,774,,,-1,-1,,,,1
5d08b2a59b19d00018ad93d4,qws447241b,Nick_Dissertation_EX1,1,92,2020-06-02T09:25:09-07:00,2.9090168476105,1,versionA_stim.csv,READVersionA.csv,"Read Version A","Dissertation, read only version A",,,,,,0,Instruct,User,-,"You have completed this section. Please press Enter.",Filler_Instruction,Instruct2,2203,,,-1,-1,,,,1
5d08b2a59b19d00018ad93d4,qws447241b,Nick_Dissertation_EX1,1,93,2020-06-02T09:27:10-07:00,120.76902198792,1,versionA_stim.csv,READVersionA.csv,"Read Version A","Dissertation, read only version A",,,,,,0,FreeRecall,120,120,"Please list the 50 US states in alphabetical order. The task will automatically advance to the next screen after two minutes.",,Filler1,120014,"alabama alaska arizona colorado florida Georgia idaho massacheussets montano new orleans ohio Oklahoma Oregon texas tenneasse utah washington",0,8761,109696,0,0,,1
5d08b2a59b19d00018ad93d4,qws447241b,Nick_Dissertation_EX1,1,94,2020-06-02T09:27:22-07:00,11.963730096817,1,versionA_stim.csv,READVersionA.csv,"Read Version A","Dissertation, read only version A",,,,,,0,Instruct,-,10,"You will now be presented with the first word from each of the previously studied item pairs. Please type the missing word. If you do not know the word, you may guess or press Enter to skip forward to the next pair.",,Instruct3,10745,,,-1,-1,,,,1
5d08b2a59b19d00018ad93d4,qws447241b,Nick_Dissertation_EX1,1,95,2020-06-02T09:27:25-07:00,3.4324669837952,1,versionA_stim.csv,READVersionA.csv,"Read Version A","Dissertation, read only version A",HORNET,STING,Study1,F,11,50,Test,User,-,,Recall,Recall1,2639,sting,100,1749,2190,1,1,,1
5d08b2a59b19d00018ad93d4,qws447241b,Nick_Dissertation_EX1,1,96,2020-06-02T09:27:28-07:00,2.6790089607239,1,versionA_stim.csv,READVersionA.csv,"Read Version A","Dissertation, read only version A",LAW,ATTORNEY,Study1,B,34,28,Test,User,-,,Recall,Recall1,1985,attorney,100,1019,1879,1,1,,1
5d08b2a59b19d00018ad93d4,qws447241b,Nick_Dissertation_EX1,1,97,2020-06-02T09:27:30-07:00,2.5305941104889,1,versionA_stim.csv,READVersionA.csv,"Read Version A","Dissertation, read only version A",DARK,CAVE,Study1,B,28,62,Test,User,-,,Recall,Recall1,1708,light,0,1004,1514,0,0,,1
5d08b2a59b19d00018ad93d4,qws447241b,Nick_Dissertation_EX1,1,98,2020-06-02T09:27:36-07:00,6.0911798477173,1,versionA_stim.csv,READVersionA.csv,"Read Version A","Dissertation, read only version A",SWAN,BIRD,Study1,F,14,40,Test,User,-,,Recall,Recall1,5329,lake,0,4793,5214,0,0,,1
5d08b2a59b19d00018ad93d4,qws447241b,Nick_Dissertation_EX1,1,99,2020-06-02T09:27:52-07:00,15.473049163818,1,versionA_stim.csv,READVersionA.csv,"Read Version A","Dissertation, read only version A",DIGESTION,STOMACH,Study1,F,7,36,Test,User,-,,Recall,Recall1,14649,stomach,100,13405,14327,1,1,,1
5d08b2a59b19d00018ad93d4,qws447241b,Nick_Dissertation_EX1,1,100,2020-06-02T09:28:07-07:00,15.616063833237,1,versionA_stim.csv,READVersionA.csv,"Read Version A","Dissertation, read only version A",KIDNEY,LIVER,Study1,S,53,21,Test,User,-,,Recall,Recall1,14827,bronze,18.181818181818,13902,14724,0,0,,1
5d08b2a59b19d00018ad93d4,qws447241b,Nick_Dissertation_EX1,1,101,2020-06-02T09:28:20-07:00,12.558505058289,1,versionA_stim.csv,READVersionA.csv,"Read Version A","Dissertation, read only version A",ART,LION,Study1,U,79,17,Test,User,-,,Recall,Recall1,11820,painting,33.333333333333,9603,11656,0,0,,1
5d08b2a59b19d00018ad93d4,qws447241b,Nick_Dissertation_EX1,1,102,2020-06-02T09:28:24-07:00,3.4889810085297,1,versionA_stim.csv,READVersionA.csv,"Read Version A","Dissertation, read only version A",DEATH,BUSINESS,Study1,U,72,64,Test,User,-,,Recall,Recall1,2737,business,100,1801,2642,1,1,,1
5d08b2a59b19d00018ad93d4,qws447241b,Nick_Dissertation_EX1,1,103,2020-06-02T09:28:27-07:00,3.4202589988708,1,versionA_stim.csv,READVersionA.csv,"Read Version A","Dissertation, read only version A",SLEEP,DROWSY,Study1,B,41,54,Test,User,-,,Recall,Recall1,2685,nigh,0,2210,2474,0,0,,1
5d08b2a59b19d00018ad93d4,qws447241b,Nick_Dissertation_EX1,1,104,2020-06-02T09:28:30-07:00,3.3001749515533,1,versionA_stim.csv,READVersionA.csv,"Read Version A","Dissertation, read only version A",SHOE,FOOT,Study1,S,60,51,Test,User,-,,Recall,Recall1,2574,foot,100,2093,2455,1,1,,1
5d08b2a59b19d00018ad93d4,qws447241b,Nick_Dissertation_EX1,1,105,2020-06-02T09:28:50-07:00,19.613211154938,1,versionA_stim.csv,READVersionA.csv,"Read Version A","Dissertation, read only version A",PLANE,PILOT,Study1,B,44,44,Test,User,-,,Recall,Recall1,17683,journey,16.666666666667,16635,17302,0,0,,1
5d08b2a59b19d00018ad93d4,qws447241b,Nick_Dissertation_EX1,1,106,2020-06-02T09:28:52-07:00,2.6189658641815,1,versionA_stim.csv,READVersionA.csv,"Read Version A","Dissertation, read only version A",FIRE,BLAZE,Study1,B,45,69,Test,User,-,,Recall,Recall1,1957,hot,0,1508,1747,0,0,,1
5d08b2a59b19d00018ad93d4,qws447241b,Nick_Dissertation_EX1,1,107,2020-06-02T09:28:56-07:00,3.2813670635223,1,versionA_stim.csv,READVersionA.csv,"Read Version A","Dissertation, read only version A",HUNGER,FAMINE,Study1,B,40,80,Test,User,-,,Recall,Recall1,2615,stomach,15.384615384615,1730,2384,0,0,,1
5d08b2a59b19d00018ad93d4,qws447241b,Nick_Dissertation_EX1,1,108,2020-06-02T09:29:31-07:00,35.087373018265,1,versionA_stim.csv,READVersionA.csv,"Read Version A","Dissertation, read only version A",CASH,WOULD,Study1,U,83,83,Test,User,-,,Recall,Recall1,1937,money,20,1324,1844,0,0,,1
5d08b2a59b19d00018ad93d4,qws447241b,Nick_Dissertation_EX1,1,109,2020-06-02T09:29:35-07:00,4.5391240119934,1,versionA_stim.csv,READVersionA.csv,"Read Version A","Dissertation, read only version A",POP,SODA,Study1,S,56,25,Test,User,-,,Recall,Recall1,3831,crackle,18.181818181818,1165,3625,0,0,,1
5d08b2a59b19d00018ad93d4,qws447241b,Nick_Dissertation_EX1,1,110,2020-06-02T09:29:39-07:00,3.620423078537,1,versionA_stim.csv,READVersionA.csv,"Read Version A","Dissertation, read only version A",WORK,CHORE,Study1,B,39,22,Test,User,-,,Recall,Recall1,2850,mone,44.444444444444,2135,2534,0,0,,1
5d08b2a59b19d00018ad93d4,qws447241b,Nick_Dissertation_EX1,1,111,2020-06-02T09:29:42-07:00,2.9476499557495,1,versionA_stim.csv,READVersionA.csv,"Read Version A","Dissertation, read only version A",HIDE,SICK,Study1,U,84,32,Test,User,-,,Recall,Recall1,2203,seek,50,1191,1772,0,0,,1
5d08b2a59b19d00018ad93d4,qws447241b,Nick_Dissertation_EX1,1,112,2020-06-02T09:29:51-07:00,8.6122150421143,1,versionA_stim.csv,READVersionA.csv,"Read Version A","Dissertation, read only version A",PUSHER,CLUTTER,Study1,U,66,15,Test,User,-,,Recall,Recall1,5521,puller,46.153846153846,1806,5404,0,0,,1
5d08b2a59b19d00018ad93d4,qws447241b,Nick_Dissertation_EX1,1,113,2020-06-02T09:29:55-07:00,4.5010268688202,1,versionA_stim.csv,READVersionA.csv,"Read Version A","Dissertation, read only version A",GREAT,FANTASTIC,Study1,B,35,29,Test,User,-,,Recall,Recall1,3749,big,16.666666666667,3196,3541,0,0,,1
5d08b2a59b19d00018ad93d4,qws447241b,Nick_Dissertation_EX1,1,114,2020-06-02T09:29:57-07:00,2.0088760852814,1,versionA_stim.csv,READVersionA.csv,"Read Version A","Dissertation, read only version A",WAY,OUT,Study1,F,16,58,Test,User,-,,Recall,Recall1,1425,out,100,975,1270,1,1,,1
5d08b2a59b19d00018ad93d4,qws447241b,Nick_Dissertation_EX1,1,115,2020-06-02T09:29:59-07:00,2.2297399044037,1,versionA_stim.csv,READVersionA.csv,"Read Version A","Dissertation, read only version A",REVOLUTION,WAR,Study1,F,20,47,Test,User,-,,Recall,Recall1,1606,war,100,1155,1432,1,1,,1
5d08b2a59b19d00018ad93d4,qws447241b,Nick_Dissertation_EX1,1,116,2020-06-02T09:30:03-07:00,3.7603261470795,1,versionA_stim.csv,READVersionA.csv,"Read Version A","Dissertation, read only version A",ARTERY,BRONZE,Study1,U,74,14,Test,User,-,,Recall,Recall1,2980,heart,18.181818181818,1946,2436,0,0,,1
5d08b2a59b19d00018ad93d4,qws447241b,Nick_Dissertation_EX1,1,117,2020-06-02T09:30:06-07:00,2.641040802002,1,versionA_stim.csv,READVersionA.csv,"Read Version A","Dissertation, read only version A",TAKE,SEIZE,Study1,B,29,11,Test,User,-,,Recall,Recall1,1864,give,44.444444444444,1337,1728,0,0,,1
5d08b2a59b19d00018ad93d4,qws447241b,Nick_Dissertation_EX1,1,118,2020-06-02T09:30:09-07:00,2.8097050189972,1,versionA_stim.csv,READVersionA.csv,"Read Version A","Dissertation, read only version A",PARK,HUNGRY,Study1,U,68,56,Test,User,-,,Recall,Recall1,2085,ride,20,1566,1943,0,0,,1
5d08b2a59b19d00018ad93d4,qws447241b,Nick_Dissertation_EX1,1,119,2020-06-02T09:30:11-07:00,2.6688830852509,1,versionA_stim.csv,READVersionA.csv,"Read Version A","Dissertation, read only version A",WINE,CHEESE,Study1,S,57,57,Test,User,-,,Recall,Recall1,1720,rack,20,961,1461,0,0,,1
5d08b2a59b19d00018ad93d4,qws447241b,Nick_Dissertation_EX1,1,120,2020-06-02T09:30:28-07:00,17.213203907013,1,versionA_stim.csv,READVersionA.csv,"Read Version A","Dissertation, read only version A",EDITOR,NEWS,Study1,F,10,73,Test,User,-,,Recall,Recall1,14552,journalist,28.571428571429,13203,14418,0,0,,1
5d08b2a59b19d00018ad93d4,qws447241b,Nick_Dissertation_EX1,1,121,2020-06-02T09:30:31-07:00,2.6968441009521,1,versionA_stim.csv,READVersionA.csv,"Read Version A","Dissertation, read only version A",CREDIT,CARD,Study1,F,23,78,Test,User,-,,Recall,Recall1,1908,card,100,1277,1751,1,1,,1
5d08b2a59b19d00018ad93d4,qws447241b,Nick_Dissertation_EX1,1,122,2020-06-02T09:30:39-07:00,7.5955300331116,1,versionA_stim.csv,READVersionA.csv,"Read Version A","Dissertation, read only version A",BALL,RACKET,Study1,B,38,79,Test,User,-,,Recall,Recall1,5097,catch,36.363636363636,1572,4634,0,0,,1
5d08b2a59b19d00018ad93d4,qws447241b,Nick_Dissertation_EX1,1,123,2020-06-02T09:30:43-07:00,4.1844618320465,1,versionA_stim.csv,READVersionA.csv,"Read Version A","Dissertation, read only version A",LIFT,WOMAN,Study1,U,69,10,Test,User,-,,Recall,Recall1,3471,high,0,3022,3265,0,0,,1
5d08b2a59b19d00018ad93d4,qws447241b,Nick_Dissertation_EX1,1,124,2020-06-02T09:30:47-07:00,4.2685160636902,1,versionA_stim.csv,READVersionA.csv,"Read Version A","Dissertation, read only version A",CHISEL,HAMMER,Study1,F,9,76,Test,User,-,,Recall,Recall1,3557,chalk,36.363636363636,2531,3303,0,0,,1
5d08b2a59b19d00018ad93d4,qws447241b,Nick_Dissertation_EX1,1,125,2020-06-02T09:30:53-07:00,6.3216760158539,1,versionA_stim.csv,READVersionA.csv,"Read Version A","Dissertation, read only version A",FULL,ENOUGH,Study1,B,26,82,Test,User,-,,Recall,Recall1,5641,hungry,16.666666666667,2085,5344,0,0,,1
5d08b2a59b19d00018ad93d4,qws447241b,Nick_Dissertation_EX1,1,126,2020-06-02T09:30:59-07:00,5.5190870761871,1,versionA_stim.csv,READVersionA.csv,"Read Version A","Dissertation, read only version A",HERD,COW,Study1,F,22,20,Test,User,-,,Recall,Recall1,4784,immunity,0,2870,4668,0,0,,1
5d08b2a59b19d00018ad93d4,qws447241b,Nick_Dissertation_EX1,1,127,2020-06-02T09:31:02-07:00,3.449481010437,1,versionA_stim.csv,READVersionA.csv,"Read Version A","Dissertation, read only version A",BEGIN,END,Study1,S,54,34,Test,User,-,,Recall,Recall1,2609,again,25,1175,2489,0,0,,1
5d08b2a59b19d00018ad93d4,qws447241b,Nick_Dissertation_EX1,1,128,2020-06-02T09:31:05-07:00,2.8912909030914,1,versionA_stim.csv,READVersionA.csv,"Read Version A","Dissertation, read only version A",BITTER,COLD,Study1,F,12,27,Test,User,-,,Recall,Recall1,2179,sweet,0,1116,2027,0,0,,1
5d08b2a59b19d00018ad93d4,qws447241b,Nick_Dissertation_EX1,1,129,2020-06-02T09:31:09-07:00,4.0504541397095,1,versionA_stim.csv,READVersionA.csv,"Read Version A","Dissertation, read only version A",KING,VASE,Study1,U,85,68,Test,User,-,,Recall,Recall1,2300,queen,22.222222222222,1671,2098,0,0,,1
5d08b2a59b19d00018ad93d4,qws447241b,Nick_Dissertation_EX1,1,130,2020-06-02T09:31:13-07:00,3.6588668823242,1,versionA_stim.csv,READVersionA.csv,"Read Version A","Dissertation, read only version A",BABY,CHILD,Study1,S,64,77,Test,User,-,,Recall,Recall1,2896,adult,20,2018,2656,0,0,,1
5d08b2a59b19d00018ad93d4,qws447241b,Nick_Dissertation_EX1,1,131,2020-06-02T09:31:17-07:00,4.3595759868622,1,versionA_stim.csv,READVersionA.csv,"Read Version A","Dissertation, read only version A",DISCUSSION,TALK,Study1,F,21,24,Test,User,-,,Recall,Recall1,2479,talk,100,1768,2114,1,1,,1
5d08b2a59b19d00018ad93d4,qws447241b,Nick_Dissertation_EX1,1,132,2020-06-02T09:31:21-07:00,3.2519409656525,1,versionA_stim.csv,READVersionA.csv,"Read Version A","Dissertation, read only version A",KEY,LATCH,Study1,B,36,67,Test,User,-,,Recall,Recall1,2427,lock,44.444444444444,1896,2237,0,0,,1
5d08b2a59b19d00018ad93d4,qws447241b,Nick_Dissertation_EX1,1,133,2020-06-02T09:31:23-07:00,2.0387511253357,1,versionA_stim.csv,READVersionA.csv,"Read Version A","Dissertation, read only version A",HOT,CHILI,Study1,B,37,26,Test,User,-,,Recall,Recall1,1431,cold,44.444444444444,989,1283,0,0,,1
5d08b2a59b19d00018ad93d4,qws447241b,Nick_Dissertation_EX1,1,134,2020-06-02T09:31:25-07:00,2.7408590316772,1,versionA_stim.csv,READVersionA.csv,"Read Version A","Dissertation, read only version A",VALLEY,ADD,Study1,U,82,75,Test,User,-,,Recall,Recall1,1736,king,0,1116,1540,0,0,,1
5d08b2a59b19d00018ad93d4,qws447241b,Nick_Dissertation_EX1,1,135,2020-06-02T09:31:29-07:00,3.6199398040771,1,versionA_stim.csv,READVersionA.csv,"Read Version A","Dissertation, read only version A",BATHROOM,TOILET,Study1,S,58,42,Test,User,-,,Recall,Recall1,2836,toilet,100,1966,2725,1,1,,1
5d08b2a59b19d00018ad93d4,qws447241b,Nick_Dissertation_EX1,1,136,2020-06-02T09:31:32-07:00,3.1593451499939,1,versionA_stim.csv,READVersionA.csv,"Read Version A","Dissertation, read only version A",LOCATION,SITE,Study1,S,48,85,Test,User,-,,Recall,Recall1,2433,,0,-1,-1,0,0,,1
5d08b2a59b19d00018ad93d4,qws447241b,Nick_Dissertation_EX1,1,137,2020-06-02T09:31:36-07:00,4.2495448589325,1,versionA_stim.csv,READVersionA.csv,"Read Version A","Dissertation, read only version A",SUGAR,RIDDLE,Study1,U,81,45,Test,User,-,,Recall,Recall1,3485,sweet,18.181818181818,2451,3249,0,0,,1
5d08b2a59b19d00018ad93d4,qws447241b,Nick_Dissertation_EX1,1,138,2020-06-02T09:31:40-07:00,3.1587719917297,1,versionA_stim.csv,READVersionA.csv,"Read Version A","Dissertation, read only version A",PAST,FUTURE,Study1,S,61,12,Test,User,-,,Recall,Recall1,2440,future,100,1150,2328,1,1,,1
5d08b2a59b19d00018ad93d4,qws447241b,Nick_Dissertation_EX1,1,139,2020-06-02T09:31:43-07:00,3.1929070949554,1,versionA_stim.csv,READVersionA.csv,"Read Version A","Dissertation, read only version A",DEBATE,SIGHT,Study1,U,73,37,Test,User,-,,Recall,Recall1,2467,discussion,26.666666666667,1204,2076,0,0,,1
5d08b2a59b19d00018ad93d4,qws447241b,Nick_Dissertation_EX1,1,140,2020-06-02T09:31:46-07:00,3.6670711040497,1,versionA_stim.csv,READVersionA.csv,"Read Version A","Dissertation, read only version A",GRILL,BAR,Study1,S,52,46,Test,User,-,,Recall,Recall1,2924,cook,0,1571,2704,0,0,,1
5d08b2a59b19d00018ad93d4,qws447241b,Nick_Dissertation_EX1,1,141,2020-06-02T09:31:51-07:00,4.9115278720856,1,versionA_stim.csv,READVersionA.csv,"Read Version A","Dissertation, read only version A",LETTUCE,SALAD,Study1,S,59,41,Test,User,-,,Recall,Recall1,4193,leaf,44.444444444444,3727,4081,0,0,,1
5d08b2a59b19d00018ad93d4,qws447241b,Nick_Dissertation_EX1,1,142,2020-06-02T09:31:54-07:00,3.0703151226044,1,versionA_stim.csv,READVersionA.csv,"Read Version A","Dissertation, read only version A",HEIGHT,GROWTH,Study1,B,30,18,Test,User,-,,Recall,Recall1,2307,tall,20,1693,2093,0,0,,1
5d08b2a59b19d00018ad93d4,qws447241b,Nick_Dissertation_EX1,1,143,2020-06-02T09:31:59-07:00,4.2700068950653,1,versionA_stim.csv,READVersionA.csv,"Read Version A","Dissertation, read only version A",ROOT,PLANT,Study1,F,13,49,Test,User,-,,Recall,Recall1,2542,vegetable,14.285714285714,1340,2407,0,0,,1
5d08b2a59b19d00018ad93d4,qws447241b,Nick_Dissertation_EX1,1,144,2020-06-02T09:32:03-07:00,3.9518790245056,1,versionA_stim.csv,READVersionA.csv,"Read Version A","Dissertation, read only version A",ALLOW,TUCK,Study1,U,78,52,Test,User,-,,Recall,Recall1,2183,,0,-1,-1,0,0,,1
5d08b2a59b19d00018ad93d4,qws447241b,Nick_Dissertation_EX1,1,145,2020-06-02T09:32:05-07:00,2.8083028793335,1,versionA_stim.csv,READVersionA.csv,"Read Version A","Dissertation, read only version A",CIRCLE,ROUND,Study1,S,65,55,Test,User,-,,Recall,Recall1,1840,round,100,1221,1694,1,1,,1
5d08b2a59b19d00018ad93d4,qws447241b,Nick_Dissertation_EX1,1,146,2020-06-02T09:32:09-07:00,3.1080470085144,1,versionA_stim.csv,READVersionA.csv,"Read Version A","Dissertation, read only version A",SMELL,STENCH,Study1,B,42,74,Test,User,-,,Recall,Recall1,2302,taste,54.545454545455,1601,2176,0,0,,1
5d08b2a59b19d00018ad93d4,qws447241b,Nick_Dissertation_EX1,1,147,2020-06-02T09:32:10-07:00,1.7609481811523,1,versionA_stim.csv,READVersionA.csv,"Read Version A","Dissertation, read only version A",HAPPY,CAR,Study1,U,77,65,Test,User,-,,Recall,Recall1,1173,sad,33.333333333333,870,1070,0,0,,1
5d08b2a59b19d00018ad93d4,qws447241b,Nick_Dissertation_EX1,1,148,2020-06-02T09:32:13-07:00,3.0122900009155,1,versionA_stim.csv,READVersionA.csv,"Read Version A","Dissertation, read only version A",DRINK,SIP,Study1,B,27,59,Test,User,-,,Recall,Recall1,2292,eat,0,1873,2165,0,0,,1
5d08b2a59b19d00018ad93d4,qws447241b,Nick_Dissertation_EX1,1,149,2020-06-02T09:32:17-07:00,3.2782509326935,1,versionA_stim.csv,READVersionA.csv,"Read Version A","Dissertation, read only version A",NUMBER,AMOUNT,Study1,S,47,60,Test,User,-,,Recall,Recall1,2534,,0,-1,-1,0,0,,1
5d08b2a59b19d00018ad93d4,qws447241b,Nick_Dissertation_EX1,1,150,2020-06-02T09:32:21-07:00,3.9651598930359,1,versionA_stim.csv,READVersionA.csv,"Read Version A","Dissertation, read only version A",PAW,DOG,Study1,F,15,31,Test,User,-,,Recall,Recall1,3099,dog,100,2748,2946,1,1,,1
5d08b2a59b19d00018ad93d4,qws447241b,Nick_Dissertation_EX1,1,151,2020-06-02T09:32:24-07:00,3.346449136734,1,versionA_stim.csv,READVersionA.csv,"Read Version A","Dissertation, read only version A",MATH,DIVISION,Study1,B,33,13,Test,User,-,,Recall,Recall1,2476,,0,-1,-1,0,0,,1
5d08b2a59b19d00018ad93d4,qws447241b,Nick_Dissertation_EX1,1,152,2020-06-02T09:32:26-07:00,2.0584759712219,1,versionA_stim.csv,READVersionA.csv,"Read Version A","Dissertation, read only version A",GEOLOGY,ROCK,Study1,F,19,84,Test,User,-,,Recall,Recall1,1461,rock,100,916,1241,1,1,,1
5d08b2a59b19d00018ad93d4,qws447241b,Nick_Dissertation_EX1,1,153,2020-06-02T09:32:29-07:00,3.0596458911896,1,versionA_stim.csv,READVersionA.csv,"Read Version A","Dissertation, read only version A",BRIDGE,WATER,Study1,F,18,81,Test,User,-,,Recall,Recall1,2281,high,0,1699,2037,0,0,,1
5d08b2a59b19d00018ad93d4,qws447241b,Nick_Dissertation_EX1,1,154,2020-06-02T09:32:32-07:00,2.5816919803619,1,versionA_stim.csv,READVersionA.csv,"Read Version A","Dissertation, read only version A",TUNA,FISH,Study1,F,25,48,Test,User,-,,Recall,Recall1,1715,fish,100,1257,1505,1,1,,1
5d08b2a59b19d00018ad93d4,qws447241b,Nick_Dissertation_EX1,1,155,2020-06-02T09:32:36-07:00,4.459055185318,1,versionA_stim.csv,READVersionA.csv,"Read Version A","Dissertation, read only version A",TRIAL,JURY,Study1,S,50,53,Test,User,-,,Recall,Recall1,3772,jury,100,1738,3509,1,1,,1
5d08b2a59b19d00018ad93d4,qws447241b,Nick_Dissertation_EX1,1,156,2020-06-02T09:32:44-07:00,7.7802720069885,1,versionA_stim.csv,READVersionA.csv,"Read Version A","Dissertation, read only version A",BLOW,WIND,Study1,S,55,23,Test,User,-,,Recall,Recall1,5257,air,28.571428571429,4569,5010,0,0,,1
5d08b2a59b19d00018ad93d4,qws447241b,Nick_Dissertation_EX1,1,157,2020-06-02T09:32:58-07:00,14.348392009735,1,versionA_stim.csv,READVersionA.csv,"Read Version A","Dissertation, read only version A",BUG,WASP,Study1,B,32,66,Test,User,-,,Recall,Recall1,4151,insect,20,3143,4092,0,0,,1
5d08b2a59b19d00018ad93d4,qws447241b,Nick_Dissertation_EX1,1,158,2020-06-02T09:33:02-07:00,3.7864079475403,1,versionA_stim.csv,READVersionA.csv,"Read Version A","Dissertation, read only version A",DUMP,WASTE,Study1,S,49,38,Test,User,-,,Recall,Recall1,2605,,0,-1,-1,0,0,,0.769
5d08b2a59b19d00018ad93d4,qws447241b,Nick_Dissertation_EX1,1,159,2020-06-02T09:33:15-07:00,12.672718048096,1,versionA_stim.csv,READVersionA.csv,"Read Version A","Dissertation, read only version A",HYGIENE,CLEAN,Study1,F,17,16,Test,User,-,,Recall,Recall1,11766,clean,100,11067,11557,1,1,,1
5d08b2a59b19d00018ad93d4,qws447241b,Nick_Dissertation_EX1,1,160,2020-06-02T09:33:32-07:00,17.01527094841,1,versionA_stim.csv,READVersionA.csv,"Read Version A","Dissertation, read only version A",MEANING,DEFINITION,Study1,S,62,43,Test,User,-,,Recall,Recall1,16176,,0,-1,-1,0,0,,1
5d08b2a59b19d00018ad93d4,qws447241b,Nick_Dissertation_EX1,1,161,2020-06-02T09:33:45-07:00,12.948444843292,1,versionA_stim.csv,READVersionA.csv,"Read Version A","Dissertation, read only version A",CLOTHES,ATTIRE,Study1,B,43,63,Test,User,-,,Recall,Recall1,10395,,0,-1,-1,0,0,,1
5d08b2a59b19d00018ad93d4,qws447241b,Nick_Dissertation_EX1,1,162,2020-06-02T09:33:52-07:00,6.8500862121582,1,versionA_stim.csv,READVersionA.csv,"Read Version A","Dissertation, read only version A",FIX,HAND,Study1,U,75,33,Test,User,-,,Recall,Recall1,5728,break,22.222222222222,4986,5520,0,0,,1
5d08b2a59b19d00018ad93d4,qws447241b,Nick_Dissertation_EX1,1,163,2020-06-02T09:33:55-07:00,3.0013749599457,1,versionA_stim.csv,READVersionA.csv,"Read Version A","Dissertation, read only version A",ORCHID,FLOWER,Study1,F,24,9,Test,User,-,,Recall,Recall1,1904,flower,100,986,1575,1,1,,1
5d08b2a59b19d00018ad93d4,qws447241b,Nick_Dissertation_EX1,1,164,2020-06-02T09:34:26-07:00,31.233648061752,1,versionA_stim.csv,READVersionA.csv,"Read Version A","Dissertation, read only version A",DELINQUENT,BAD,Study1,F,6,72,Test,User,-,,Recall,Recall1,29253,bad,100,28673,28989,1,1,,1
5d08b2a59b19d00018ad93d4,qws447241b,Nick_Dissertation_EX1,1,165,2020-06-02T09:34:28-07:00,2.6495318412781,1,versionA_stim.csv,READVersionA.csv,"Read Version A","Dissertation, read only version A",DUE,ASSIGNMENT,Study1,S,46,19,Test,User,-,,Recall,Recall1,1676,date,28.571428571429,1228,1566,0,0,,1
5d08b2a59b19d00018ad93d4,qws447241b,Nick_Dissertation_EX1,1,166,2020-06-02T09:34:32-07:00,3.4413130283356,1,versionA_stim.csv,READVersionA.csv,"Read Version A","Dissertation, read only version A",DISCOVER,FLOOR,Study1,U,71,61,Test,User,-,,Recall,Recall1,2389,journey,33.333333333333,1452,2161,0,0,,1
5d08b2a59b19d00018ad93d4,qws447241b,Nick_Dissertation_EX1,1,167,2020-06-02T09:34:51-07:00,19.435032129288,1,versionA_stim.csv,READVersionA.csv,"Read Version A","Dissertation, read only version A",ARCHITECTURE,DESIGN,Study1,S,51,71,Test,User,-,,Recall,Recall1,18543,design,100,16475,18283,1,1,,1
5d08b2a59b19d00018ad93d4,qws447241b,Nick_Dissertation_EX1,1,168,2020-06-02T09:35:11-07:00,19.559095859528,1,versionA_stim.csv,READVersionA.csv,"Read Version A","Dissertation, read only version A",STRONG,ACCIDENT,Study1,U,80,8,Test,User,-,,Recall,Recall1,18526,weak,16.666666666667,1491,18317,0,0,,1
5d08b2a59b19d00018ad93d4,qws447241b,Nick_Dissertation_EX1,1,169,2020-06-02T09:35:16-07:00,4.780375957489,1,versionA_stim.csv,READVersionA.csv,"Read Version A","Dissertation, read only version A",SENTENCE,WORD,Study1,B,31,86,Test,User,-,,Recall,Recall1,3021,stop,25,2332,2660,0,0,,1
5d08b2a59b19d00018ad93d4,qws447241b,Nick_Dissertation_EX1,1,170,2020-06-02T09:35:20-07:00,4.1592299938202,1,versionA_stim.csv,READVersionA.csv,"Read Version A","Dissertation, read only version A",MACHINE,POSITION,Study1,U,76,39,Test,User,-,,Recall,Recall1,2422,gun,18.181818181818,1962,2198,0,0,,1
5d08b2a59b19d00018ad93d4,qws447241b,Nick_Dissertation_EX1,1,171,2020-06-02T09:35:25-07:00,5.4201970100403,1,versionA_stim.csv,READVersionA.csv,"Read Version A","Dissertation, read only version A",HONEY,BEE,Study1,S,63,7,Test,User,-,,Recall,Recall1,3678,bee,100,1715,1965,1,1,,1
5d08b2a59b19d00018ad93d4,qws447241b,Nick_Dissertation_EX1,1,172,2020-06-02T09:35:28-07:00,3.2687680721283,1,versionA_stim.csv,READVersionA.csv,"Read Version A","Dissertation, read only version A",DIETARY,SACKING,Study1,U,67,70,Test,User,-,,Recall,Recall1,2365,milk,18.181818181818,1747,2171,0,0,,1
5d08b2a59b19d00018ad93d4,qws447241b,Nick_Dissertation_EX1,1,173,2020-06-02T09:35:32-07:00,3.1921379566193,1,versionA_stim.csv,READVersionA.csv,"Read Version A","Dissertation, read only version A",WAGE,MONEY,Study1,F,8,30,Test,User,-,,Recall,Recall1,2142,money,100,1533,2023,1,1,,1
5d08b2a59b19d00018ad93d4,qws447241b,Nick_Dissertation_EX1,1,174,2020-06-02T09:35:49-07:00,17.725826025009,1,versionA_stim.csv,READVersionA.csv,"Read Version A","Dissertation, read only version A",SOON,BELT,Study1,U,70,35,Test,User,-,,Recall,Recall1,16154,time,25,15710,16048,0,0,,1
5d08b2a59b19d00018ad93d4,qws447241b,Nick_Dissertation_EX1,1,175,2020-06-02T09:36:03-07:00,13.625472068787,1,versionA_stim.csv,READVersionA.csv,"Read Version A","Dissertation, read only version A",,,,,,0,Instruct,-,10,"You will now be presented with a new set of word pairs. Please study each pair. Remember that your memory will be tested! When finished, press Enter to move to the next pair.",Initial_Instruct,Instruct4,12516,,,-1,-1,,,,1
5d08b2a59b19d00018ad93d4,qws447241b,Nick_Dissertation_EX1,1,176,2020-06-02T09:36:06-07:00,3.0409188270569,1,versionA_stim.csv,READVersionA.csv,"Read Version A","Dissertation, read only version A",CARROT,POTATO,BUFFER3,Buffer,91,96,Study,User,-,,Study/JOL,BUFFER3,2064,,,2007,2008,,,,1
5d08b2a59b19d00018ad93d4,qws447241b,Nick_Dissertation_EX1,1,177,2020-06-02T09:36:09-07:00,2.8773331642151,1,versionA_stim.csv,READVersionA.csv,"Read Version A","Dissertation, read only version A",ICE,FROZEN,BUFFER3,Buffer,94,93,Study,User,-,,Study/JOL,BUFFER3,1575,,,1497,1497,,,,1
5d08b2a59b19d00018ad93d4,qws447241b,Nick_Dissertation_EX1,1,178,2020-06-02T09:36:13-07:00,4.5325479507446,1,versionA_stim.csv,READVersionA.csv,"Read Version A","Dissertation, read only version A",CAMP,ADVENTURE,BUFFER3,Buffer,95,94,Study,User,-,,Study/JOL,BUFFER3,3390,,,3276,3276,,,,1
5d08b2a59b19d00018ad93d4,qws447241b,Nick_Dissertation_EX1,1,179,2020-06-02T09:36:15-07:00,2.0090849399567,1,versionA_stim.csv,READVersionA.csv,"Read Version A","Dissertation, read only version A",SHRIMP,FISH,BUFFER3,Buffer,93,92,Study,User,-,,Study/JOL,BUFFER3,1281,,,1189,1189,,,,1
5d08b2a59b19d00018ad93d4,qws447241b,Nick_Dissertation_EX1,1,180,2020-06-02T09:36:17-07:00,1.849730014801,1,versionA_stim.csv,READVersionA.csv,"Read Version A","Dissertation, read only version A",NOODLE,STRING,BUFFER3,Buffer,92,95,Study,User,-,,Study/JOL,BUFFER3,1228,,,1081,1082,,,,1
5d08b2a59b19d00018ad93d4,qws447241b,Nick_Dissertation_EX1,1,181,2020-06-02T09:36:19-07:00,1.5995481014252,1,versionA_stim.csv,READVersionA.csv,"Read Version A","Dissertation, read only version A",CRACKLE,ABLE,Study2,U,162,160,Study,User,-,,Study/JOL,"Study Phase2",955,,,828,828,,,,1
5d08b2a59b19d00018ad93d4,qws447241b,Nick_Dissertation_EX1,1,182,2020-06-02T09:36:21-07:00,1.6974740028381,1,versionA_stim.csv,READVersionA.csv,"Read Version A","Dissertation, read only version A",GLASS,BREAKABLE,Study2,B,127,145,Study,User,-,,Study/JOL,"Study Phase2",984,,,858,859,,,,1
5d08b2a59b19d00018ad93d4,qws447241b,Nick_Dissertation_EX1,1,183,2020-06-02T09:36:22-07:00,1.7237899303436,1,versionA_stim.csv,READVersionA.csv,"Read Version A","Dissertation, read only version A",ADJOURN,END,Study2,F,101,133,Study,User,-,,Study/JOL,"Study Phase2",1103,,,983,983,,,,1
5d08b2a59b19d00018ad93d4,qws447241b,Nick_Dissertation_EX1,1,184,2020-06-02T09:36:24-07:00,1.4808759689331,1,versionA_stim.csv,READVersionA.csv,"Read Version A","Dissertation, read only version A",INCENSE,SMELL,Study2,F,110,108,Study,User,-,,Study/JOL,"Study Phase2",840,,,716,717,,,,1
5d08b2a59b19d00018ad93d4,qws447241b,Nick_Dissertation_EX1,1,185,2020-06-02T09:36:25-07:00,1.4486789703369,1,versionA_stim.csv,READVersionA.csv,"Read Version A","Dissertation, read only version A",TURN,FLIP,Study2,B,116,117,Study,User,-,,Study/JOL,"Study Phase2",780,,,688,688,,,,1
5d08b2a59b19d00018ad93d4,qws447241b,Nick_Dissertation_EX1,1,186,2020-06-02T09:36:27-07:00,1.540225982666,1,versionA_stim.csv,READVersionA.csv,"Read Version A","Dissertation, read only version A",FISH,SARDINE,Study2,B,130,109,Study,User,-,,Study/JOL,"Study Phase2",872,,,751,752,,,,1
5d08b2a59b19d00018ad93d4,qws447241b,Nick_Dissertation_EX1,1,187,2020-06-02T09:36:29-07:00,1.9534740447998,1,versionA_stim.csv,READVersionA.csv,"Read Version A","Dissertation, read only version A",DEAD,COFFIN,Study2,B,128,110,Study,User,-,,Study/JOL,"Study Phase2",1320,,,1248,1249,,,,1
5d08b2a59b19d00018ad93d4,qws447241b,Nick_Dissertation_EX1,1,188,2020-06-02T09:36:30-07:00,1.6775050163269,1,versionA_stim.csv,READVersionA.csv,"Read Version A","Dissertation, read only version A",EXTENSION,LONG,Study2,F,96,163,Study,User,-,,Study/JOL,"Study Phase2",789,,,633,633,,,,1
5d08b2a59b19d00018ad93d4,qws447241b,Nick_Dissertation_EX1,1,189,2020-06-02T09:36:32-07:00,1.4605119228363,1,versionA_stim.csv,READVersionA.csv,"Read Version A","Dissertation, read only version A",SHEARS,SCISSORS,Study2,F,112,175,Study,User,-,,Study/JOL,"Study Phase2",828,,,615,615,,,,1
5d08b2a59b19d00018ad93d4,qws447241b,Nick_Dissertation_EX1,1,190,2020-06-02T09:36:33-07:00,1.2687771320343,1,versionA_stim.csv,READVersionA.csv,"Read Version A","Dissertation, read only version A",CAKE,CLOTHES,Study2,U,166,99,Study,User,-,,Study/JOL,"Study Phase2",630,,,473,473,,,,1
5d08b2a59b19d00018ad93d4,qws447241b,Nick_Dissertation_EX1,1,191,2020-06-02T09:36:36-07:00,2.4416780471802,1,versionA_stim.csv,READVersionA.csv,"Read Version A","Dissertation, read only version A",MOAT,CLEAR,Study2,U,169,129,Study,User,-,,Study/JOL,"Study Phase2",820,,,608,609,,,,1
5d08b2a59b19d00018ad93d4,qws447241b,Nick_Dissertation_EX1,1,192,2020-06-02T09:36:36-07:00,0.88893795013428,1,versionA_stim.csv,READVersionA.csv,"Read Version A","Dissertation, read only version A",BOTH,OUNCE,Study2,U,172,116,Study,User,-,,Study/JOL,"Study Phase2",241,,,32,34,,,,1
5d08b2a59b19d00018ad93d4,qws447241b,Nick_Dissertation_EX1,1,193,2020-06-02T09:36:38-07:00,2.0000638961792,1,versionA_stim.csv,READVersionA.csv,"Read Version A","Dissertation, read only version A",SHOELACE,TIE,Study2,F,99,118,Study,User,-,,Study/JOL,"Study Phase2",1392,,,1285,1286,,,,1
5d08b2a59b19d00018ad93d4,qws447241b,Nick_Dissertation_EX1,1,194,2020-06-02T09:36:40-07:00,1.779335975647,1,versionA_stim.csv,READVersionA.csv,"Read Version A","Dissertation, read only version A",WRIST,BRACELET,Study2,S,140,113,Study,User,-,,Study/JOL,"Study Phase2",891,,,790,791,,,,1
5d08b2a59b19d00018ad93d4,qws447241b,Nick_Dissertation_EX1,1,195,2020-06-02T09:36:42-07:00,1.4907112121582,1,versionA_stim.csv,READVersionA.csv,"Read Version A","Dissertation, read only version A",MIRROR,CHILDREN,Study2,U,174,112,Study,User,-,,Study/JOL,"Study Phase2",725,,,557,557,,,,1
5d08b2a59b19d00018ad93d4,qws447241b,Nick_Dissertation_EX1,1,196,2020-06-02T09:36:44-07:00,1.9588479995728,1,versionA_stim.csv,READVersionA.csv,"Read Version A","Dissertation, read only version A",JUSTICE,MAROON,Study2,U,156,150,Study,User,-,,Study/JOL,"Study Phase2",1316,,,1172,1173,,,,1
5d08b2a59b19d00018ad93d4,qws447241b,Nick_Dissertation_EX1,1,197,2020-06-02T09:36:45-07:00,1.5308609008789,1,versionA_stim.csv,READVersionA.csv,"Read Version A","Dissertation, read only version A",ELEMENT,CARBON,Study2,S,141,170,Study,User,-,,Study/JOL,"Study Phase2",922,,,778,778,,,,1
5d08b2a59b19d00018ad93d4,qws447241b,Nick_Dissertation_EX1,1,198,2020-06-02T09:36:47-07:00,1.7204940319061,1,versionA_stim.csv,READVersionA.csv,"Read Version A","Dissertation, read only version A",SAFETY,SEATBELT,Study2,S,147,97,Study,User,-,,Study/JOL,"Study Phase2",1112,,,935,935,,,,1
5d08b2a59b19d00018ad93d4,qws447241b,Nick_Dissertation_EX1,1,199,2020-06-02T09:36:49-07:00,1.8987698554993,1,versionA_stim.csv,READVersionA.csv,"Read Version A","Dissertation, read only version A",FEUD,FIGHT,Study2,F,113,142,Study,User,-,,Study/JOL,"Study Phase2",1288,,,832,833,,,,1
5d08b2a59b19d00018ad93d4,qws447241b,Nick_Dissertation_EX1,1,200,2020-06-02T09:36:52-07:00,3.0026791095734,1,versionA_stim.csv,READVersionA.csv,"Read Version A","Dissertation, read only version A",KEYS,JOKE,Study2,U,165,157,Study,User,-,,Study/JOL,"Study Phase2",1140,,,962,962,,,,1
5d08b2a59b19d00018ad93d4,qws447241b,Nick_Dissertation_EX1,1,201,2020-06-02T09:36:53-07:00,1.0373420715332,1,versionA_stim.csv,READVersionA.csv,"Read Version A","Dissertation, read only version A",MAZE,ELECTION,Study2,U,159,171,Study,User,-,,Study/JOL,"Study Phase2",367,,,115,115,,,,1
5d08b2a59b19d00018ad93d4,qws447241b,Nick_Dissertation_EX1,1,202,2020-06-02T09:36:55-07:00,1.8200898170471,1,versionA_stim.csv,READVersionA.csv,"Read Version A","Dissertation, read only version A",CAR,WINDSHIELD,Study2,B,117,135,Study,User,-,,Study/JOL,"Study Phase2",1169,,,1059,1060,,,,1
5d08b2a59b19d00018ad93d4,qws447241b,Nick_Dissertation_EX1,1,203,2020-06-02T09:36:56-07:00,1.7312002182007,1,versionA_stim.csv,READVersionA.csv,"Read Version A","Dissertation, read only version A",CHOP,CUT,Study2,F,107,128,Study,User,-,,Study/JOL,"Study Phase2",1045,,,907,908,,,,1
5d08b2a59b19d00018ad93d4,qws447241b,Nick_Dissertation_EX1,1,204,2020-06-02T09:36:58-07:00,1.4106409549713,1,versionA_stim.csv,READVersionA.csv,"Read Version A","Dissertation, read only version A",LOAN,SIGN,Study2,U,171,166,Study,User,-,,Study/JOL,"Study Phase2",809,,,731,731,,,,1
5d08b2a59b19d00018ad93d4,qws447241b,Nick_Dissertation_EX1,1,205,2020-06-02T09:37:00-07:00,1.7681570053101,1,versionA_stim.csv,READVersionA.csv,"Read Version A","Dissertation, read only version A",RAZOR,SHAVE,Study2,S,136,104,Study,User,-,,Study/JOL,"Study Phase2",1120,,,989,989,,,,1
5d08b2a59b19d00018ad93d4,qws447241b,Nick_Dissertation_EX1,1,206,2020-06-02T09:37:01-07:00,1.7406778335571,1,versionA_stim.csv,READVersionA.csv,"Read Version A","Dissertation, read only version A",CANDLE,WAX,Study2,S,139,125,Study,User,-,,Study/JOL,"Study Phase2",876,,,731,732,,,,1
5d08b2a59b19d00018ad93d4,qws447241b,Nick_Dissertation_EX1,1,207,2020-06-02T09:37:03-07:00,1.789293050766,1,versionA_stim.csv,READVersionA.csv,"Read Version A","Dissertation, read only version A",PLANE,AIRCRAFT,Study2,B,129,176,Study,User,-,,Study/JOL,"Study Phase2",1168,,,1053,1053,,,,1
5d08b2a59b19d00018ad93d4,qws447241b,Nick_Dissertation_EX1,1,208,2020-06-02T09:37:05-07:00,1.4827110767365,1,versionA_stim.csv,READVersionA.csv,"Read Version A","Dissertation, read only version A",Shell,SHAKE,Study2,U,163,165,Study,User,-,,Study/JOL,"Study Phase2",861,,,724,724,,,,1
5d08b2a59b19d00018ad93d4,qws447241b,Nick_Dissertation_EX1,1,209,2020-06-02T09:37:06-07:00,1.5276939868927,1,versionA_stim.csv,READVersionA.csv,"Read Version A","Dissertation, read only version A",VEHICLE,CHARM,Study2,U,160,164,Study,User,-,,Study/JOL,"Study Phase2",921,,,766,767,,,,1
5d08b2a59b19d00018ad93d4,qws447241b,Nick_Dissertation_EX1,1,210,2020-06-02T09:37:08-07:00,1.3998138904572,1,versionA_stim.csv,READVersionA.csv,"Read Version A","Dissertation, read only version A",SCALP,HEAD,Study2,F,105,119,Study,User,-,,Study/JOL,"Study Phase2",806,,,689,690,,,,1
5d08b2a59b19d00018ad93d4,qws447241b,Nick_Dissertation_EX1,1,211,2020-06-02T09:37:09-07:00,1.2612700462341,1,versionA_stim.csv,READVersionA.csv,"Read Version A","Dissertation, read only version A",THREAD,THIMBLE,Study2,B,121,168,Study,User,-,,Study/JOL,"Study Phase2",654,,,587,587,,,,1
5d08b2a59b19d00018ad93d4,qws447241b,Nick_Dissertation_EX1,1,212,2020-06-02T09:37:10-07:00,1.4302561283112,1,versionA_stim.csv,READVersionA.csv,"Read Version A","Dissertation, read only version A",SUN,TAN,Study2,S,155,155,Study,User,-,,Study/JOL,"Study Phase2",671,,,598,599,,,,1
5d08b2a59b19d00018ad93d4,qws447241b,Nick_Dissertation_EX1,1,213,2020-06-02T09:37:12-07:00,1.4194989204407,1,versionA_stim.csv,READVersionA.csv,"Read Version A","Dissertation, read only version A",DETECTIVE,MYSTERY,Study2,F,100,126,Study,User,-,,Study/JOL,"Study Phase2",832,,,697,697,,,,1
5d08b2a59b19d00018ad93d4,qws447241b,Nick_Dissertation_EX1,1,214,2020-06-02T09:37:13-07:00,1.4405388832092,1,versionA_stim.csv,READVersionA.csv,"Read Version A","Dissertation, read only version A",EVEN,REVENGE,Study2,B,122,140,Study,User,-,,Study/JOL,"Study Phase2",831,,,746,746,,,,1
5d08b2a59b19d00018ad93d4,qws447241b,Nick_Dissertation_EX1,1,215,2020-06-02T09:37:14-07:00,1.3283340930939,1,versionA_stim.csv,READVersionA.csv,"Read Version A","Dissertation, read only version A",NAME,HATE,Study2,U,167,120,Study,User,-,,Study/JOL,"Study Phase2",664,,,545,545,,,,1
5d08b2a59b19d00018ad93d4,qws447241b,Nick_Dissertation_EX1,1,216,2020-06-02T09:37:16-07:00,1.4896130561829,1,versionA_stim.csv,READVersionA.csv,"Read Version A","Dissertation, read only version A",BIRD,PENGUIN,Study2,B,119,174,Study,User,-,,Study/JOL,"Study Phase2",865,,,753,754,,,,1
5d08b2a59b19d00018ad93d4,qws447241b,Nick_Dissertation_EX1,1,217,2020-06-02T09:37:17-07:00,1.2708818912506,1,versionA_stim.csv,READVersionA.csv,"Read Version A","Dissertation, read only version A",FRUIT,STRAWBERRY,Study2,B,124,114,Study,User,-,,Study/JOL,"Study Phase2",668,,,554,555,,,,1
5d08b2a59b19d00018ad93d4,qws447241b,Nick_Dissertation_EX1,1,218,2020-06-02T09:37:19-07:00,1.4016621112823,1,versionA_stim.csv,READVersionA.csv,"Read Version A","Dissertation, read only version A",MULE,DONKEY,Study2,F,108,124,Study,User,-,,Study/JOL,"Study Phase2",809,,,731,731,,,,1
5d08b2a59b19d00018ad93d4,qws447241b,Nick_Dissertation_EX1,1,219,2020-06-02T09:37:20-07:00,1.2892329692841,1,versionA_stim.csv,READVersionA.csv,"Read Version A","Dissertation, read only version A",SLEEP,NAP,Study2,B,134,137,Study,User,-,,Study/JOL,"Study Phase2",493,,,409,409,,,,1
5d08b2a59b19d00018ad93d4,qws447241b,Nick_Dissertation_EX1,1,220,2020-06-02T09:37:21-07:00,1.239382982254,1,versionA_stim.csv,READVersionA.csv,"Read Version A","Dissertation, read only version A",PHONE,COMMUNICATION,Study2,S,149,121,Study,User,-,,Study/JOL,"Study Phase2",598,,,498,498,,,,1
5d08b2a59b19d00018ad93d4,qws447241b,Nick_Dissertation_EX1,1,221,2020-06-02T09:37:22-07:00,1.1996428966522,1,versionA_stim.csv,READVersionA.csv,"Read Version A","Dissertation, read only version A",STRETCH,CLOTH,Study2,U,157,138,Study,User,-,,Study/JOL,"Study Phase2",607,,,551,551,,,,1
5d08b2a59b19d00018ad93d4,qws447241b,Nick_Dissertation_EX1,1,222,2020-06-02T09:37:24-07:00,1.3318130970001,1,versionA_stim.csv,READVersionA.csv,"Read Version A","Dissertation, read only version A",DOCUMENT,PAPER,Study2,F,109,167,Study,User,-,,Study/JOL,"Study Phase2",684,,,543,544,,,,1
5d08b2a59b19d00018ad93d4,qws447241b,Nick_Dissertation_EX1,1,223,2020-06-02T09:37:25-07:00,1.0820679664612,1,versionA_stim.csv,READVersionA.csv,"Read Version A","Dissertation, read only version A",POP,BALLOON,Study2,B,123,127,Study,User,-,,Study/JOL,"Study Phase2",483,,,331,332,,,,1
5d08b2a59b19d00018ad93d4,qws447241b,Nick_Dissertation_EX1,1,224,2020-06-02T09:37:26-07:00,1.2757251262665,1,versionA_stim.csv,READVersionA.csv,"Read Version A","Dissertation, read only version A",ROD,REEL,Study2,S,150,111,Study,User,-,,Study/JOL,"Study Phase2",629,,,486,487,,,,1
5d08b2a59b19d00018ad93d4,qws447241b,Nick_Dissertation_EX1,1,225,2020-06-02T09:37:27-07:00,1.3025898933411,1,versionA_stim.csv,READVersionA.csv,"Read Version A","Dissertation, read only version A",OWN,HAVE,Study2,S,153,152,Study,User,-,,Study/JOL,"Study Phase2",633,,,517,519,,,,1
5d08b2a59b19d00018ad93d4,qws447241b,Nick_Dissertation_EX1,1,226,2020-06-02T09:37:29-07:00,1.3992159366608,1,versionA_stim.csv,READVersionA.csv,"Read Version A","Dissertation, read only version A",LITTER,TRASH,Study2,F,103,98,Study,User,-,,Study/JOL,"Study Phase2",734,,,614,614,,,,1
5d08b2a59b19d00018ad93d4,qws447241b,Nick_Dissertation_EX1,1,227,2020-06-02T09:37:30-07:00,1.5189621448517,1,versionA_stim.csv,READVersionA.csv,"Read Version A","Dissertation, read only version A",BASEBALL,LEAGUE,Study2,B,131,169,Study,User,-,,Study/JOL,"Study Phase2",653,,,520,520,,,,1
5d08b2a59b19d00018ad93d4,qws447241b,Nick_Dissertation_EX1,1,228,2020-06-02T09:37:32-07:00,1.9901468753815,1,versionA_stim.csv,READVersionA.csv,"Read Version A","Dissertation, read only version A",DRIVER,CAR,Study2,F,106,148,Study,User,-,,Study/JOL,"Study Phase2",1087,,,983,983,,,,1
5d08b2a59b19d00018ad93d4,qws447241b,Nick_Dissertation_EX1,1,229,2020-06-02T09:37:34-07:00,1.3393321037292,1,versionA_stim.csv,READVersionA.csv,"Read Version A","Dissertation, read only version A",MASON,JAR,Study2,S,138,154,Study,User,-,,Study/JOL,"Study Phase2",468,,,392,392,,,,1
5d08b2a59b19d00018ad93d4,qws447241b,Nick_Dissertation_EX1,1,230,2020-06-02T09:37:35-07:00,1.3999719619751,1,versionA_stim.csv,READVersionA.csv,"Read Version A","Dissertation, read only version A",LEASE,TOIL,Study2,U,170,139,Study,User,-,,Study/JOL,"Study Phase2",647,,,559,561,,,,1
5d08b2a59b19d00018ad93d4,qws447241b,Nick_Dissertation_EX1,1,231,2020-06-02T09:37:36-07:00,1.2407290935516,1,versionA_stim.csv,READVersionA.csv,"Read Version A","Dissertation, read only version A",FIGHT,BRAWL,Study2,B,135,106,Study,User,-,,Study/JOL,"Study Phase2",470,,,384,386,,,,1
5d08b2a59b19d00018ad93d4,qws447241b,Nick_Dissertation_EX1,1,232,2020-06-02T09:37:37-07:00,1.2296419143677,1,versionA_stim.csv,READVersionA.csv,"Read Version A","Dissertation, read only version A",DINE,EAT,Study2,F,111,103,Study,User,-,,Study/JOL,"Study Phase2",507,,,448,448,,,,1
5d08b2a59b19d00018ad93d4,qws447241b,Nick_Dissertation_EX1,1,233,2020-06-02T09:37:39-07:00,1.0797910690308,1,versionA_stim.csv,READVersionA.csv,"Read Version A","Dissertation, read only version A",DRY,WET,Study2,S,146,151,Study,User,-,,Study/JOL,"Study Phase2",443,,,373,373,,,,1
5d08b2a59b19d00018ad93d4,qws447241b,Nick_Dissertation_EX1,1,234,2020-06-02T09:37:40-07:00,1.6217329502106,1,versionA_stim.csv,READVersionA.csv,"Read Version A","Dissertation, read only version A",EARTH,GROUND,Study2,S,144,115,Study,User,-,,Study/JOL,"Study Phase2",807,,,680,682,,,,1
5d08b2a59b19d00018ad93d4,qws447241b,Nick_Dissertation_EX1,1,235,2020-06-02T09:37:41-07:00,1.3184559345245,1,versionA_stim.csv,READVersionA.csv,"Read Version A","Dissertation, read only version A",FLEA,TICK,Study2,S,151,147,Study,User,-,,Study/JOL,"Study Phase2",598,,,466,466,,,,1
5d08b2a59b19d00018ad93d4,qws447241b,Nick_Dissertation_EX1,1,236,2020-06-02T09:37:43-07:00,1.350830078125,1,versionA_stim.csv,READVersionA.csv,"Read Version A","Dissertation, read only version A",RIGHTS,EQUAL,Study2,S,137,105,Study,User,-,,Study/JOL,"Study Phase2",688,,,580,581,,,,1
5d08b2a59b19d00018ad93d4,qws447241b,Nick_Dissertation_EX1,1,237,2020-06-02T09:37:44-07:00,1.468955039978,1,versionA_stim.csv,READVersionA.csv,"Read Version A","Dissertation, read only version A",HONEST,TRUTHFUL,Study2,B,133,101,Study,User,-,,Study/JOL,"Study Phase2",794,,,697,697,,,,1
5d08b2a59b19d00018ad93d4,qws447241b,Nick_Dissertation_EX1,1,238,2020-06-02T09:37:46-07:00,1.6389698982239,1,versionA_stim.csv,READVersionA.csv,"Read Version A","Dissertation, read only version A",BEST,FAVORITE,Study2,B,125,130,Study,User,-,,Study/JOL,"Study Phase2",996,,,849,849,,,,1
5d08b2a59b19d00018ad93d4,qws447241b,Nick_Dissertation_EX1,1,239,2020-06-02T09:37:47-07:00,1.3706769943237,1,versionA_stim.csv,READVersionA.csv,"Read Version A","Dissertation, read only version A",CACTUS,PLANT,Study2,F,98,144,Study,User,-,,Study/JOL,"Study Phase2",732,,,652,652,,,,1
5d08b2a59b19d00018ad93d4,qws447241b,Nick_Dissertation_EX1,1,240,2020-06-02T09:37:49-07:00,1.6305010318756,1,versionA_stim.csv,READVersionA.csv,"Read Version A","Dissertation, read only version A",CHERRY,RED,Study2,F,104,136,Study,User,-,,Study/JOL,"Study Phase2",998,,,905,906,,,,1
5d08b2a59b19d00018ad93d4,qws447241b,Nick_Dissertation_EX1,1,241,2020-06-02T09:37:51-07:00,1.9999530315399,1,versionA_stim.csv,READVersionA.csv,"Read Version A","Dissertation, read only version A",ALONE,LONELY,Study2,S,145,149,Study,User,-,,Study/JOL,"Study Phase2",582,,,527,529,,,,1
5d08b2a59b19d00018ad93d4,qws447241b,Nick_Dissertation_EX1,1,242,2020-06-02T09:37:52-07:00,1.3694930076599,1,versionA_stim.csv,READVersionA.csv,"Read Version A","Dissertation, read only version A",LISTEN,FICTION,Study2,U,164,153,Study,User,-,,Study/JOL,"Study Phase2",757,,,682,684,,,,1
5d08b2a59b19d00018ad93d4,qws447241b,Nick_Dissertation_EX1,1,243,2020-06-02T09:37:54-07:00,1.5107600688934,1,versionA_stim.csv,READVersionA.csv,"Read Version A","Dissertation, read only version A",MEAT,OBTAIN,Study2,U,161,131,Study,User,-,,Study/JOL,"Study Phase2",866,,,783,785,,,,1
5d08b2a59b19d00018ad93d4,qws447241b,Nick_Dissertation_EX1,1,244,2020-06-02T09:37:55-07:00,1.2204818725586,1,versionA_stim.csv,READVersionA.csv,"Read Version A","Dissertation, read only version A",LOUD,NOISE,Study2,S,152,134,Study,User,-,,Study/JOL,"Study Phase2",586,,,471,471,,,,1
5d08b2a59b19d00018ad93d4,qws447241b,Nick_Dissertation_EX1,1,245,2020-06-02T09:37:56-07:00,1.1690900325775,1,versionA_stim.csv,READVersionA.csv,"Read Version A","Dissertation, read only version A",GIVE,STEAK,Study2,U,158,162,Study,User,-,,Study/JOL,"Study Phase2",579,,,486,486,,,,1
5d08b2a59b19d00018ad93d4,qws447241b,Nick_Dissertation_EX1,1,246,2020-06-02T09:37:58-07:00,1.5103440284729,1,versionA_stim.csv,READVersionA.csv,"Read Version A","Dissertation, read only version A",CAT,PANTHER,Study2,B,126,159,Study,User,-,,Study/JOL,"Study Phase2",927,,,844,844,,,,1
5d08b2a59b19d00018ad93d4,qws447241b,Nick_Dissertation_EX1,1,247,2020-06-02T09:37:59-07:00,1.3605599403381,1,versionA_stim.csv,READVersionA.csv,"Read Version A","Dissertation, read only version A",TANTRUM,TEMPER,Study2,S,154,173,Study,User,-,,Study/JOL,"Study Phase2",712,,,597,597,,,,1
5d08b2a59b19d00018ad93d4,qws447241b,Nick_Dissertation_EX1,1,248,2020-06-02T09:38:02-07:00,2.7197930812836,1,versionA_stim.csv,READVersionA.csv,"Read Version A","Dissertation, read only version A",MAIN,SCAR,Study2,U,175,156,Study,User,-,,Study/JOL,"Study Phase2",708,,,593,595,,,,1
5d08b2a59b19d00018ad93d4,qws447241b,Nick_Dissertation_EX1,1,249,2020-06-02T09:38:03-07:00,1.5455038547516,1,versionA_stim.csv,READVersionA.csv,"Read Version A","Dissertation, read only version A",CLUE,GAME,Study2,F,97,158,Study,User,-,,Study/JOL,"Study Phase2",929,,,801,802,,,,1
5d08b2a59b19d00018ad93d4,qws447241b,Nick_Dissertation_EX1,1,250,2020-06-02T09:38:05-07:00,1.623202085495,1,versionA_stim.csv,READVersionA.csv,"Read Version A","Dissertation, read only version A",WATER,DRINK,Study2,S,143,102,Study,User,-,,Study/JOL,"Study Phase2",972,,,904,905,,,,1
5d08b2a59b19d00018ad93d4,qws447241b,Nick_Dissertation_EX1,1,251,2020-06-02T09:38:06-07:00,1.4210889339447,1,versionA_stim.csv,READVersionA.csv,"Read Version A","Dissertation, read only version A",GONE,AWAY,Study2,S,142,161,Study,User,-,,Study/JOL,"Study Phase2",786,,,705,705,,,,1
5d08b2a59b19d00018ad93d4,qws447241b,Nick_Dissertation_EX1,1,252,2020-06-02T09:38:08-07:00,1.5008420944214,1,versionA_stim.csv,READVersionA.csv,"Read Version A","Dissertation, read only version A",AFFECTION,LOVE,Study2,F,115,132,Study,User,-,,Study/JOL,"Study Phase2",856,,,797,798,,,,1
5d08b2a59b19d00018ad93d4,qws447241b,Nick_Dissertation_EX1,1,253,2020-06-02T09:38:10-07:00,1.5979380607605,1,versionA_stim.csv,READVersionA.csv,"Read Version A","Dissertation, read only version A",FUZZY,BANG,Study2,U,168,143,Study,User,-,,Study/JOL,"Study Phase2",873,,,826,827,,,,1
5d08b2a59b19d00018ad93d4,qws447241b,Nick_Dissertation_EX1,1,254,2020-06-02T09:38:11-07:00,1.6515498161316,1,versionA_stim.csv,READVersionA.csv,"Read Version A","Dissertation, read only version A",BAD,VILLAIN,Study2,B,118,146,Study,User,-,,Study/JOL,"Study Phase2",738,,,591,591,,,,1
5d08b2a59b19d00018ad93d4,qws447241b,Nick_Dissertation_EX1,1,255,2020-06-02T09:38:12-07:00,1.2893071174622,1,versionA_stim.csv,READVersionA.csv,"Read Version A","Dissertation, read only version A",CHILL,COLD,Study2,F,114,122,Study,User,-,,Study/JOL,"Study Phase2",654,,,510,511,,,,1
5d08b2a59b19d00018ad93d4,qws447241b,Nick_Dissertation_EX1,1,256,2020-06-02T09:38:14-07:00,1.410768032074,1,versionA_stim.csv,READVersionA.csv,"Read Version A","Dissertation, read only version A",FURRY,DOG,Study2,F,102,100,Study,User,-,,Study/JOL,"Study Phase2",804,,,640,641,,,,1
5d08b2a59b19d00018ad93d4,qws447241b,Nick_Dissertation_EX1,1,257,2020-06-02T09:38:15-07:00,1.5801939964294,1,versionA_stim.csv,READVersionA.csv,"Read Version A","Dissertation, read only version A",TEMPERATURE,Morning,Study2,U,173,123,Study,User,-,,Study/JOL,"Study Phase2",843,,,710,710,,,,1
5d08b2a59b19d00018ad93d4,qws447241b,Nick_Dissertation_EX1,1,258,2020-06-02T09:38:17-07:00,1.5086879730225,1,versionA_stim.csv,READVersionA.csv,"Read Version A","Dissertation, read only version A",TRUTH,LIE,Study2,S,148,107,Study,User,-,,Study/JOL,"Study Phase2",691,,,563,564,,,,1
5d08b2a59b19d00018ad93d4,qws447241b,Nick_Dissertation_EX1,1,259,2020-06-02T09:38:18-07:00,1.4608390331268,1,versionA_stim.csv,READVersionA.csv,"Read Version A","Dissertation, read only version A",MONEY,BANKER,Study2,B,132,172,Study,User,-,,Study/JOL,"Study Phase2",619,,,462,462,,,,1
5d08b2a59b19d00018ad93d4,qws447241b,Nick_Dissertation_EX1,1,260,2020-06-02T09:38:20-07:00,1.7896819114685,1,versionA_stim.csv,READVersionA.csv,"Read Version A","Dissertation, read only version A",STAR,ACTRESS,Study2,B,120,141,Study,User,-,,Study/JOL,"Study Phase2",651,,,498,499,,,,1
5d08b2a59b19d00018ad93d4,qws447241b,Nick_Dissertation_EX1,1,261,2020-06-02T09:38:22-07:00,1.449844121933,1,versionA_stim.csv,READVersionA.csv,"Read Version A","Dissertation, read only version A",SPRING,MARCH,BUFFER4,Buffer,179,177,Study,User,-,,Study/JOL,BUFFER4,623,,,486,487,,,,1
5d08b2a59b19d00018ad93d4,qws447241b,Nick_Dissertation_EX1,1,262,2020-06-02T09:38:23-07:00,1.6099770069122,1,versionA_stim.csv,READVersionA.csv,"Read Version A","Dissertation, read only version A",OCTOBER,SPOOKY,BUFFER4,Buffer,180,180,Study,User,-,,Study/JOL,BUFFER4,766,,,622,624,,,,1
5d08b2a59b19d00018ad93d4,qws447241b,Nick_Dissertation_EX1,1,263,2020-06-02T09:38:25-07:00,1.7395598888397,1,versionA_stim.csv,READVersionA.csv,"Read Version A","Dissertation, read only version A",TOOL,SHED,BUFFER4,Buffer,178,178,Study,User,-,,Study/JOL,BUFFER4,842,,,684,685,,,,1
5d08b2a59b19d00018ad93d4,qws447241b,Nick_Dissertation_EX1,1,264,2020-06-02T09:38:27-07:00,1.5608170032501,1,versionA_stim.csv,READVersionA.csv,"Read Version A","Dissertation, read only version A",MONTH,YEAR,BUFFER4,Buffer,177,179,Study,User,-,,Study/JOL,BUFFER4,750,,,610,611,,,,1
5d08b2a59b19d00018ad93d4,qws447241b,Nick_Dissertation_EX1,1,265,2020-06-02T09:38:28-07:00,1.5210030078888,1,versionA_stim.csv,READVersionA.csv,"Read Version A","Dissertation, read only version A",DAYS,WEAKS,BUFFER4,Buffer,176,181,Study,User,-,,Study/JOL,BUFFER4,762,,,614,617,,,,1
5d08b2a59b19d00018ad93d4,qws447241b,Nick_Dissertation_EX1,1,266,2020-06-02T09:38:32-07:00,3.4975850582123,1,versionA_stim.csv,READVersionA.csv,"Read Version A","Dissertation, read only version A",,,,,,0,Instruct,User,-,"You have completed this section. Please press Enter.",Filler_Instruction,Instruct5,2495,,,-1,-1,,,,1
5d08b2a59b19d00018ad93d4,qws447241b,Nick_Dissertation_EX1,1,267,2020-06-02T09:40:35-07:00,123.17474889755,1,versionA_stim.csv,READVersionA.csv,"Read Version A","Dissertation, read only version A",,,,,,0,FreeRecall,120,120,"Please list the 50 US states in reverse alphabetical order (z - a). The task will automatically advance to the next screen after two minutes.",,Filler2,120034,"ontario massacheussets montreal texas georgia florida alabama",0,4823,70511,0,0,,1
5d08b2a59b19d00018ad93d4,qws447241b,Nick_Dissertation_EX1,1,268,2020-06-02T09:40:50-07:00,15.669569015503,1,versionA_stim.csv,READVersionA.csv,"Read Version A","Dissertation, read only version A",,,,,,0,Instruct,-,10,"You will now be presented with the first word from each of the previously studied item pairs. Please type the missing word. If you do not know the word, you may guess or press Enter to skip forward to the next pair.",,Instruct6,11187,,,-1,-1,,,,1
5d08b2a59b19d00018ad93d4,qws447241b,Nick_Dissertation_EX1,1,269,2020-06-02T09:40:54-07:00,3.6303360462189,1,versionA_stim.csv,READVersionA.csv,"Read Version A","Dissertation, read only version A",FURRY,DOG,Study2,F,102,100,Test,User,-,,Recall,Recall2,1826,dog,100,1258,1492,1,1,,1
5d08b2a59b19d00018ad93d4,qws447241b,Nick_Dissertation_EX1,1,270,2020-06-02T09:40:58-07:00,4.3825390338898,1,versionA_stim.csv,READVersionA.csv,"Read Version A","Dissertation, read only version A",POP,BALLOON,Study2,B,123,127,Test,User,-,,Recall,Recall2,3531,crackle,28.571428571429,1853,3328,0,0,,1
5d08b2a59b19d00018ad93d4,qws447241b,Nick_Dissertation_EX1,1,271,2020-06-02T09:41:07-07:00,8.5072739124298,1,versionA_stim.csv,READVersionA.csv,"Read Version A","Dissertation, read only version A",BOTH,OUNCE,Study2,U,172,116,Test,User,-,,Recall,Recall2,7569,ounce,100,6750,7449,1,1,,1
5d08b2a59b19d00018ad93d4,qws447241b,Nick_Dissertation_EX1,1,272,2020-06-02T09:41:23-07:00,15.779470920563,1,versionA_stim.csv,READVersionA.csv,"Read Version A","Dissertation, read only version A",DRIVER,CAR,Study2,F,106,148,Test,User,-,,Recall,Recall2,14935,car,100,14191,14598,1,1,,1
5d08b2a59b19d00018ad93d4,qws447241b,Nick_Dissertation_EX1,1,273,2020-06-02T09:41:41-07:00,17.935767173767,1,versionA_stim.csv,READVersionA.csv,"Read Version A","Dissertation, read only version A",MAZE,ELECTION,Study2,U,159,171,Test,User,-,,Recall,Recall2,15159,jounrye,26.666666666667,14017,14777,0,0,,1
5d08b2a59b19d00018ad93d4,qws447241b,Nick_Dissertation_EX1,1,274,2020-06-02T09:41:47-07:00,6.7836828231812,1,versionA_stim.csv,READVersionA.csv,"Read Version A","Dissertation, read only version A",GLASS,BREAKABLE,Study2,B,127,145,Test,User,-,,Recall,Recall2,2324,shatter,25,1337,2141,0,0,,1
5d08b2a59b19d00018ad93d4,qws447241b,Nick_Dissertation_EX1,1,275,2020-06-02T09:41:51-07:00,3.1785712242126,1,versionA_stim.csv,READVersionA.csv,"Read Version A","Dissertation, read only version A",CAKE,CLOTHES,Study2,U,166,99,Test,User,-,,Recall,Recall2,1910,eat,20,1377,1735,0,0,,1
5d08b2a59b19d00018ad93d4,qws447241b,Nick_Dissertation_EX1,1,276,2020-06-02T09:41:55-07:00,4.3588829040527,1,versionA_stim.csv,READVersionA.csv,"Read Version A","Dissertation, read only version A",ELEMENT,CARBON,Study2,S,141,170,Test,User,-,,Recall,Recall2,3083,atom,40,2445,2864,0,0,,1
5d08b2a59b19d00018ad93d4,qws447241b,Nick_Dissertation_EX1,1,277,2020-06-02T09:42:23-07:00,27.788928031921,1,versionA_stim.csv,READVersionA.csv,"Read Version A","Dissertation, read only version A",MOAT,CLEAR,Study2,U,169,129,Test,User,-,,Recall,Recall2,26557,clear,100,25795,26401,1,1,,1
5d08b2a59b19d00018ad93d4,qws447241b,Nick_Dissertation_EX1,1,278,2020-06-02T09:42:33-07:00,9.9217410087585,1,versionA_stim.csv,READVersionA.csv,"Read Version A","Dissertation, read only version A",BIRD,PENGUIN,Study2,B,119,174,Test,User,-,,Recall,Recall2,8114,beak,18.181818181818,7555,7887,0,0,,1
5d08b2a59b19d00018ad93d4,qws447241b,Nick_Dissertation_EX1,1,279,2020-06-02T09:42:35-07:00,2.5697219371796,1,versionA_stim.csv,READVersionA.csv,"Read Version A","Dissertation, read only version A",STRETCH,CLOTH,Study2,U,157,138,Test,User,-,,Recall,Recall2,1700,out,50,1289,1542,0,0,,1
5d08b2a59b19d00018ad93d4,qws447241b,Nick_Dissertation_EX1,1,280,2020-06-02T09:42:41-07:00,5.9185800552368,1,versionA_stim.csv,READVersionA.csv,"Read Version A","Dissertation, read only version A",SHEARS,SCISSORS,Study2,F,112,175,Test,User,-,,Recall,Recall2,3269,hedge,0,1525,3166,0,0,,1
5d08b2a59b19d00018ad93d4,qws447241b,Nick_Dissertation_EX1,1,281,2020-06-02T09:42:50-07:00,8.7403440475464,1,versionA_stim.csv,READVersionA.csv,"Read Version A","Dissertation, read only version A",SLEEP,NAP,Study2,B,134,137,Test,User,-,,Recall,Recall2,4065,nigh,28.571428571429,3270,3932,0,0,,1
5d08b2a59b19d00018ad93d4,qws447241b,Nick_Dissertation_EX1,1,282,2020-06-02T09:42:57-07:00,7.2797229290009,1,versionA_stim.csv,READVersionA.csv,"Read Version A","Dissertation, read only version A",DEAD,COFFIN,Study2,B,128,110,Test,User,-,,Recall,Recall2,3110,business,28.571428571429,2133,2988,0,0,,1
5d08b2a59b19d00018ad93d4,qws447241b,Nick_Dissertation_EX1,1,283,2020-06-02T09:43:15-07:00,17.899117946625,1,versionA_stim.csv,READVersionA.csv,"Read Version A","Dissertation, read only version A",AFFECTION,LOVE,Study2,F,115,132,Test,User,-,,Recall,Recall2,15448,hugs,0,14555,15075,0,0,,1
5d08b2a59b19d00018ad93d4,qws447241b,Nick_Dissertation_EX1,1,284,2020-06-02T09:43:45-07:00,29.537641048431,1,versionA_stim.csv,READVersionA.csv,"Read Version A","Dissertation, read only version A",RAZOR,SHAVE,Study2,S,136,104,Test,User,-,,Recall,Recall2,27433,shave,100,26807,27240,1,1,,1
5d08b2a59b19d00018ad93d4,qws447241b,Nick_Dissertation_EX1,1,285,2020-06-02T09:43:47-07:00,2.6787650585175,1,versionA_stim.csv,READVersionA.csv,"Read Version A","Dissertation, read only version A",TRUTH,LIE,Study2,S,148,107,Test,User,-,,Recall,Recall2,1929,lie,100,1502,1777,1,1,,1
5d08b2a59b19d00018ad93d4,qws447241b,Nick_Dissertation_EX1,1,286,2020-06-02T09:44:09-07:00,21.832211971283,1,versionA_stim.csv,READVersionA.csv,"Read Version A","Dissertation, read only version A",WATER,DRINK,Study2,S,143,102,Test,User,-,,Recall,Recall2,21086,drink,100,20269,20789,1,1,,1
5d08b2a59b19d00018ad93d4,qws447241b,Nick_Dissertation_EX1,1,287,2020-06-02T09:44:12-07:00,2.887757062912,1,versionA_stim.csv,READVersionA.csv,"Read Version A","Dissertation, read only version A",DINE,EAT,Study2,F,111,103,Test,User,-,,Recall,Recall2,2134,eat,100,1617,1947,1,1,,1
5d08b2a59b19d00018ad93d4,qws447241b,Nick_Dissertation_EX1,1,288,2020-06-02T09:44:42-07:00,30.257197856903,1,versionA_stim.csv,READVersionA.csv,"Read Version A","Dissertation, read only version A",CAT,PANTHER,Study2,B,126,159,Test,User,-,,Recall,Recall2,28438,panther,100,27572,28321,1,1,,1
5d08b2a59b19d00018ad93d4,qws447241b,Nick_Dissertation_EX1,1,289,2020-06-02T09:44:49-07:00,6.6677300930023,1,versionA_stim.csv,READVersionA.csv,"Read Version A","Dissertation, read only version A",PLANE,AIRCRAFT,Study2,B,129,176,Test,User,-,,Recall,Recall2,5911,journey,13.333333333333,4163,5599,0,0,,1
5d08b2a59b19d00018ad93d4,qws447241b,Nick_Dissertation_EX1,1,290,2020-06-02T09:44:52-07:00,2.5601379871368,1,versionA_stim.csv,READVersionA.csv,"Read Version A","Dissertation, read only version A",LEASE,TOIL,Study2,U,170,139,Test,User,-,,Recall,Recall2,1856,hold,50,1335,1716,0,0,,1
5d08b2a59b19d00018ad93d4,qws447241b,Nick_Dissertation_EX1,1,291,2020-06-02T09:44:54-07:00,2.9074919223785,1,versionA_stim.csv,READVersionA.csv,"Read Version A","Dissertation, read only version A",INCENSE,SMELL,Study2,F,110,108,Test,User,-,,Recall,Recall2,2198,smell,100,1370,1848,1,1,,1
5d08b2a59b19d00018ad93d4,qws447241b,Nick_Dissertation_EX1,1,292,2020-06-02T09:45:00-07:00,5.3207190036774,1,versionA_stim.csv,READVersionA.csv,"Read Version A","Dissertation, read only version A",SUN,TAN,Study2,S,155,155,Test,User,-,,Recall,Recall2,4554,morning,20,1856,4317,0,0,,1
5d08b2a59b19d00018ad93d4,qws447241b,Nick_Dissertation_EX1,1,293,2020-06-02T09:45:05-07:00,5.1698620319366,1,versionA_stim.csv,READVersionA.csv,"Read Version A","Dissertation, read only version A",CHILL,COLD,Study2,F,114,122,Test,User,-,,Recall,Recall2,4334,freeze,0,2893,4077,0,0,,1
5d08b2a59b19d00018ad93d4,qws447241b,Nick_Dissertation_EX1,1,294,2020-06-02T09:45:08-07:00,2.6907958984375,1,versionA_stim.csv,READVersionA.csv,"Read Version A","Dissertation, read only version A",FUZZY,BANG,Study2,U,168,143,Test,User,-,,Recall,Recall2,1938,dog,28.571428571429,1203,1442,0,0,,1
5d08b2a59b19d00018ad93d4,qws447241b,Nick_Dissertation_EX1,1,295,2020-06-02T09:45:12-07:00,4.1811411380768,1,versionA_stim.csv,READVersionA.csv,"Read Version A","Dissertation, read only version A",OWN,HAVE,Study2,S,153,152,Test,User,-,,Recall,Recall2,3458,,0,-1,-1,0,0,,1
5d08b2a59b19d00018ad93d4,qws447241b,Nick_Dissertation_EX1,1,296,2020-06-02T09:45:15-07:00,3.0580179691315,1,versionA_stim.csv,READVersionA.csv,"Read Version A","Dissertation, read only version A",MEAT,OBTAIN,Study2,U,161,131,Test,User,-,,Recall,Recall2,2332,eat,22.222222222222,1888,2221,0,0,,1
5d08b2a59b19d00018ad93d4,qws447241b,Nick_Dissertation_EX1,1,297,2020-06-02T09:45:18-07:00,2.6906909942627,1,versionA_stim.csv,READVersionA.csv,"Read Version A","Dissertation, read only version A",MIRROR,CHILDREN,Study2,U,174,112,Test,User,-,,Recall,Recall2,1950,shiny,46.153846153846,1371,1790,0,0,,1
5d08b2a59b19d00018ad93d4,qws447241b,Nick_Dissertation_EX1,1,298,2020-06-02T09:45:21-07:00,3.5287349224091,1,versionA_stim.csv,READVersionA.csv,"Read Version A","Dissertation, read only version A",FIGHT,BRAWL,Study2,B,135,106,Test,User,-,,Recall,Recall2,2822,argue,20,2113,2641,0,0,,1
5d08b2a59b19d00018ad93d4,qws447241b,Nick_Dissertation_EX1,1,299,2020-06-02T09:45:26-07:00,4.5109891891479,1,versionA_stim.csv,READVersionA.csv,"Read Version A","Dissertation, read only version A",MAIN,SCAR,Study2,U,175,156,Test,User,-,,Recall,Recall2,3709,scar,100,3167,3445,1,1,,1
5d08b2a59b19d00018ad93d4,qws447241b,Nick_Dissertation_EX1,1,300,2020-06-02T09:45:34-07:00,8.1438038349152,1,versionA_stim.csv,READVersionA.csv,"Read Version A","Dissertation, read only version A",CACTUS,PLANT,Study2,F,98,144,Test,User,-,,Recall,Recall2,6209,sharp,20,5243,5808,0,0,,1
5d08b2a59b19d00018ad93d4,qws447241b,Nick_Dissertation_EX1,1,301,2020-06-02T09:45:36-07:00,2.5103390216827,1,versionA_stim.csv,READVersionA.csv,"Read Version A","Dissertation, read only version A",BASEBALL,LEAGUE,Study2,B,131,169,Test,User,-,,Recall,Recall2,1697,bat,22.222222222222,1335,1575,0,0,,1
5d08b2a59b19d00018ad93d4,qws447241b,Nick_Dissertation_EX1,1,302,2020-06-02T09:45:39-07:00,2.7913861274719,1,versionA_stim.csv,READVersionA.csv,"Read Version A","Dissertation, read only version A",TEMPERATURE,Morning,Study2,U,173,123,Test,User,-,,Recall,Recall2,2053,morning,100,1124,1697,1,1,,1
5d08b2a59b19d00018ad93d4,qws447241b,Nick_Dissertation_EX1,1,303,2020-06-02T09:45:43-07:00,4.2094118595123,1,versionA_stim.csv,READVersionA.csv,"Read Version A","Dissertation, read only version A",CHERRY,RED,Study2,F,104,136,Test,User,-,,Recall,Recall2,3401,fruit,25,2767,3261,0,0,,1
5d08b2a59b19d00018ad93d4,qws447241b,Nick_Dissertation_EX1,1,304,2020-06-02T09:45:46-07:00,3.1405620574951,1,versionA_stim.csv,READVersionA.csv,"Read Version A","Dissertation, read only version A",STAR,ACTRESS,Study2,B,120,141,Test,User,-,,Recall,Recall2,2400,night,16.666666666667,1926,2324,0,0,,1
5d08b2a59b19d00018ad93d4,qws447241b,Nick_Dissertation_EX1,1,305,2020-06-02T09:45:48-07:00,2.0894160270691,1,versionA_stim.csv,READVersionA.csv,"Read Version A","Dissertation, read only version A",EXTENSION,LONG,Study2,F,96,163,Test,User,-,,Recall,Recall2,1504,lead,25,1111,1419,0,0,,1
5d08b2a59b19d00018ad93d4,qws447241b,Nick_Dissertation_EX1,1,306,2020-06-02T09:45:51-07:00,2.0609078407288,1,versionA_stim.csv,READVersionA.csv,"Read Version A","Dissertation, read only version A",FEUD,FIGHT,Study2,F,113,142,Test,User,-,,Recall,Recall2,1500,fight,100,968,1384,1,1,,1
5d08b2a59b19d00018ad93d4,qws447241b,Nick_Dissertation_EX1,1,307,2020-06-02T09:45:58-07:00,7.0287160873413,1,versionA_stim.csv,READVersionA.csv,"Read Version A","Dissertation, read only version A",DRY,WET,Study2,S,146,151,Test,User,-,,Recall,Recall2,6016,heat,57.142857142857,5470,5876,0,0,,1
5d08b2a59b19d00018ad93d4,qws447241b,Nick_Dissertation_EX1,1,308,2020-06-02T09:46:01-07:00,3.5408599376678,1,versionA_stim.csv,READVersionA.csv,"Read Version A","Dissertation, read only version A",TANTRUM,TEMPER,Study2,S,154,173,Test,User,-,,Recall,Recall2,2754,fight,18.181818181818,2237,2643,0,0,,1
5d08b2a59b19d00018ad93d4,qws447241b,Nick_Dissertation_EX1,1,309,2020-06-02T09:46:04-07:00,2.8872849941254,1,versionA_stim.csv,READVersionA.csv,"Read Version A","Dissertation, read only version A",EARTH,GROUND,Study2,S,144,115,Test,User,-,,Recall,Recall2,1889,round,90.909090909091,1296,1745,0,1,,1
5d08b2a59b19d00018ad93d4,qws447241b,Nick_Dissertation_EX1,1,310,2020-06-02T09:46:06-07:00,2.2297971248627,1,versionA_stim.csv,READVersionA.csv,"Read Version A","Dissertation, read only version A",MASON,JAR,Study2,S,138,154,Test,User,-,,Recall,Recall2,1438,jar,100,1066,1315,1,1,,1
5d08b2a59b19d00018ad93d4,qws447241b,Nick_Dissertation_EX1,1,311,2020-06-02T09:46:10-07:00,3.6017489433289,1,versionA_stim.csv,READVersionA.csv,"Read Version A","Dissertation, read only version A",CHOP,CUT,Study2,F,107,128,Test,User,-,,Recall,Recall2,2811,chip,28.571428571429,2123,2460,0,0,,1
5d08b2a59b19d00018ad93d4,qws447241b,Nick_Dissertation_EX1,1,312,2020-06-02T09:46:13-07:00,3.100781917572,1,versionA_stim.csv,READVersionA.csv,"Read Version A","Dissertation, read only version A",LITTER,TRASH,Study2,F,103,98,Test,User,-,,Recall,Recall2,2083,bin,0,1587,1847,0,0,,1
5d08b2a59b19d00018ad93d4,qws447241b,Nick_Dissertation_EX1,1,313,2020-06-02T09:46:35-07:00,22.590886116028,1,versionA_stim.csv,READVersionA.csv,"Read Version A","Dissertation, read only version A",CLUE,GAME,Study2,F,97,158,Test,User,-,,Recall,Recall2,19422,game,100,18571,19286,1,1,,1
5d08b2a59b19d00018ad93d4,qws447241b,Nick_Dissertation_EX1,1,314,2020-06-02T09:46:41-07:00,5.800628900528,1,versionA_stim.csv,READVersionA.csv,"Read Version A","Dissertation, read only version A",JUSTICE,MAROON,Study2,U,156,150,Test,User,-,,Recall,Recall2,4992,system,16.666666666667,4024,4802,0,0,,1
5d08b2a59b19d00018ad93d4,qws447241b,Nick_Dissertation_EX1,1,315,2020-06-02T09:46:44-07:00,2.9501411914825,1,versionA_stim.csv,READVersionA.csv,"Read Version A","Dissertation, read only version A",HONEST,TRUTHFUL,Study2,B,133,101,Test,User,-,,Recall,Recall2,1986,lie,18.181818181818,1119,1613,0,0,,1
5d08b2a59b19d00018ad93d4,qws447241b,Nick_Dissertation_EX1,1,316,2020-06-02T09:46:49-07:00,4.2671618461609,1,versionA_stim.csv,READVersionA.csv,"Read Version A","Dissertation, read only version A",TURN,FLIP,Study2,B,116,117,Test,User,-,,Recall,Recall2,2658,round,0,1337,2527,0,0,,1
5d08b2a59b19d00018ad93d4,qws447241b,Nick_Dissertation_EX1,1,317,2020-06-02T09:46:53-07:00,4.4029610157013,1,versionA_stim.csv,READVersionA.csv,"Read Version A","Dissertation, read only version A",FISH,SARDINE,Study2,B,130,109,Test,User,-,,Recall,Recall2,3641,bowl,0,2334,3450,0,0,,1
5d08b2a59b19d00018ad93d4,qws447241b,Nick_Dissertation_EX1,1,318,2020-06-02T09:46:56-07:00,2.838828086853,1,versionA_stim.csv,READVersionA.csv,"Read Version A","Dissertation, read only version A",SHOELACE,TIE,Study2,F,99,118,Test,User,-,,Recall,Recall2,1686,tie,100,1406,1547,1,1,,1
5d08b2a59b19d00018ad93d4,qws447241b,Nick_Dissertation_EX1,1,319,2020-06-02T09:47:00-07:00,4.3803219795227,1,versionA_stim.csv,READVersionA.csv,"Read Version A","Dissertation, read only version A",ADJOURN,END,Study2,F,101,133,Test,User,-,,Recall,Recall2,2466,jury,0,1724,2215,0,0,,1
5d08b2a59b19d00018ad93d4,qws447241b,Nick_Dissertation_EX1,1,320,2020-06-02T09:47:02-07:00,1.6612250804901,1,versionA_stim.csv,READVersionA.csv,"Read Version A","Dissertation, read only version A",NAME,HATE,Study2,U,167,120,Test,User,-,,Recall,Recall2,1076,,0,-1,-1,0,0,,1
5d08b2a59b19d00018ad93d4,qws447241b,Nick_Dissertation_EX1,1,321,2020-06-02T09:47:04-07:00,2.2308609485626,1,versionA_stim.csv,READVersionA.csv,"Read Version A","Dissertation, read only version A",VEHICLE,CHARM,Study2,U,160,164,Test,User,-,,Recall,Recall2,1367,car,75,944,1215,0,1,,1
5d08b2a59b19d00018ad93d4,qws447241b,Nick_Dissertation_EX1,1,322,2020-06-02T09:47:09-07:00,4.9286859035492,1,versionA_stim.csv,READVersionA.csv,"Read Version A","Dissertation, read only version A",FRUIT,STRAWBERRY,Study2,B,124,114,Test,User,-,,Recall,Recall2,3817,vegetables,10,2262,3689,0,0,,1
5d08b2a59b19d00018ad93d4,qws447241b,Nick_Dissertation_EX1,1,323,2020-06-02T09:47:12-07:00,2.8013679981232,1,versionA_stim.csv,READVersionA.csv,"Read Version A","Dissertation, read only version A",EVEN,REVENGE,Study2,B,122,140,Test,User,-,,Recall,Recall2,1701,odd,0,1325,1578,0,0,,1
5d08b2a59b19d00018ad93d4,qws447241b,Nick_Dissertation_EX1,1,324,2020-06-02T09:47:16-07:00,3.7962801456451,1,versionA_stim.csv,READVersionA.csv,"Read Version A","Dissertation, read only version A",BAD,VILLAIN,Study2,B,118,146,Test,User,-,,Recall,Recall2,2880,good,0,2416,2740,0,0,,1
5d08b2a59b19d00018ad93d4,qws447241b,Nick_Dissertation_EX1,1,325,2020-06-02T09:47:19-07:00,3.4233949184418,1,versionA_stim.csv,READVersionA.csv,"Read Version A","Dissertation, read only version A",KEYS,JOKE,Study2,U,165,157,Test,User,-,,Recall,Recall2,2625,,0,-1,-1,0,0,,1
5d08b2a59b19d00018ad93d4,qws447241b,Nick_Dissertation_EX1,1,326,2020-06-02T09:47:22-07:00,3.3795058727264,1,versionA_stim.csv,READVersionA.csv,"Read Version A","Dissertation, read only version A",CANDLE,WAX,Study2,S,139,125,Test,User,-,,Recall,Recall2,2482,smell,0,1464,2032,0,0,,1
5d08b2a59b19d00018ad93d4,qws447241b,Nick_Dissertation_EX1,1,327,2020-06-02T09:47:25-07:00,2.5386090278625,1,versionA_stim.csv,READVersionA.csv,"Read Version A","Dissertation, read only version A",CRACKLE,ABLE,Study2,U,162,160,Test,User,-,,Recall,Recall2,1626,pop,0,964,1281,0,0,,1
5d08b2a59b19d00018ad93d4,qws447241b,Nick_Dissertation_EX1,1,328,2020-06-02T09:47:28-07:00,2.6996569633484,1,versionA_stim.csv,READVersionA.csv,"Read Version A","Dissertation, read only version A",GIVE,STEAK,Study2,U,158,162,Test,User,-,,Recall,Recall2,1951,take,66.666666666667,1462,1818,0,0,,1
5d08b2a59b19d00018ad93d4,qws447241b,Nick_Dissertation_EX1,1,329,2020-06-02T09:47:31-07:00,3.5406231880188,1,versionA_stim.csv,READVersionA.csv,"Read Version A","Dissertation, read only version A",LOUD,NOISE,Study2,S,152,134,Test,User,-,,Recall,Recall2,2781,quiet,40,1426,2694,0,0,,1
5d08b2a59b19d00018ad93d4,qws447241b,Nick_Dissertation_EX1,1,330,2020-06-02T09:47:34-07:00,2.5716550350189,1,versionA_stim.csv,READVersionA.csv,"Read Version A","Dissertation, read only version A",WRIST,BRACELET,Study2,S,140,113,Test,User,-,,Recall,Recall2,1782,hand,16.666666666667,1320,1671,0,0,,1
5d08b2a59b19d00018ad93d4,qws447241b,Nick_Dissertation_EX1,1,331,2020-06-02T09:47:37-07:00,2.9971299171448,1,versionA_stim.csv,READVersionA.csv,"Read Version A","Dissertation, read only version A",LOAN,SIGN,Study2,U,171,166,Test,User,-,,Recall,Recall2,2022,money,22.222222222222,1414,1946,0,0,,1
5d08b2a59b19d00018ad93d4,qws447241b,Nick_Dissertation_EX1,1,332,2020-06-02T09:47:39-07:00,2.0995180606842,1,versionA_stim.csv,READVersionA.csv,"Read Version A","Dissertation, read only version A",ROD,REEL,Study2,S,150,111,Test,User,-,,Recall,Recall2,1193,,0,-1,-1,0,0,,1
5d08b2a59b19d00018ad93d4,qws447241b,Nick_Dissertation_EX1,1,333,2020-06-02T09:47:42-07:00,3.5831208229065,1,versionA_stim.csv,READVersionA.csv,"Read Version A","Dissertation, read only version A",Shell,SHAKE,Study2,U,163,165,Test,User,-,,Recall,Recall2,2719,beach,20,2117,2500,0,0,,1
5d08b2a59b19d00018ad93d4,qws447241b,Nick_Dissertation_EX1,1,334,2020-06-02T09:47:46-07:00,3.3105001449585,1,versionA_stim.csv,READVersionA.csv,"Read Version A","Dissertation, read only version A",ALONE,LONELY,Study2,S,145,149,Test,User,-,,Recall,Recall2,2509,,0,-1,-1,0,0,,1
5d08b2a59b19d00018ad93d4,qws447241b,Nick_Dissertation_EX1,1,335,2020-06-02T09:47:49-07:00,3.2576508522034,1,versionA_stim.csv,READVersionA.csv,"Read Version A","Dissertation, read only version A",MONEY,BANKER,Study2,B,132,172,Test,User,-,,Recall,Recall2,2405,wages,36.363636363636,1716,2252,0,0,,1
5d08b2a59b19d00018ad93d4,qws447241b,Nick_Dissertation_EX1,1,336,2020-06-02T09:47:52-07:00,3.1007862091064,1,versionA_stim.csv,READVersionA.csv,"Read Version A","Dissertation, read only version A",CAR,WINDSHIELD,Study2,B,117,135,Test,User,-,,Recall,Recall2,2335,driver,37.5,1449,2108,0,0,,1
5d08b2a59b19d00018ad93d4,qws447241b,Nick_Dissertation_EX1,1,337,2020-06-02T09:47:54-07:00,2.0506467819214,1,versionA_stim.csv,READVersionA.csv,"Read Version A","Dissertation, read only version A",SAFETY,SEATBELT,Study2,S,147,97,Test,User,-,,Recall,Recall2,1407,gas,18.181818181818,1002,1256,0,0,,1
5d08b2a59b19d00018ad93d4,qws447241b,Nick_Dissertation_EX1,1,338,2020-06-02T09:47:57-07:00,2.9485239982605,1,versionA_stim.csv,READVersionA.csv,"Read Version A","Dissertation, read only version A",PHONE,COMMUNICATION,Study2,S,149,121,Test,User,-,,Recall,Recall2,2039,number,10.526315789474,1243,1911,0,0,,1
5d08b2a59b19d00018ad93d4,qws447241b,Nick_Dissertation_EX1,1,339,2020-06-02T09:48:00-07:00,2.9405801296234,1,versionA_stim.csv,READVersionA.csv,"Read Version A","Dissertation, read only version A",BEST,FAVORITE,Study2,B,125,130,Test,User,-,,Recall,Recall2,2215,worst,46.153846153846,1242,2121,0,0,,1
5d08b2a59b19d00018ad93d4,qws447241b,Nick_Dissertation_EX1,1,340,2020-06-02T09:48:05-07:00,4.9195699691772,1,versionA_stim.csv,READVersionA.csv,"Read Version A","Dissertation, read only version A",DETECTIVE,MYSTERY,Study2,F,100,126,Test,User,-,,Recall,Recall2,3808,mystery,100,2452,3652,1,1,,1
5d08b2a59b19d00018ad93d4,qws447241b,Nick_Dissertation_EX1,1,341,2020-06-02T09:48:11-07:00,5.6412808895111,1,versionA_stim.csv,READVersionA.csv,"Read Version A","Dissertation, read only version A",SCALP,HEAD,Study2,F,105,119,Test,User,-,,Recall,Recall2,4637,head,100,4113,4491,1,1,,1
5d08b2a59b19d00018ad93d4,qws447241b,Nick_Dissertation_EX1,1,342,2020-06-02T09:48:14-07:00,3.1797351837158,1,versionA_stim.csv,READVersionA.csv,"Read Version A","Dissertation, read only version A",MULE,DONKEY,Study2,F,108,124,Test,User,-,,Recall,Recall2,2016,donkey,100,1402,1916,1,1,,1
5d08b2a59b19d00018ad93d4,qws447241b,Nick_Dissertation_EX1,1,343,2020-06-02T09:48:40-07:00,26.241530895233,1,versionA_stim.csv,READVersionA.csv,"Read Version A","Dissertation, read only version A",DOCUMENT,PAPER,Study2,F,109,167,Test,User,-,,Recall,Recall2,24136,bank,22.222222222222,23471,23832,0,0,,1
5d08b2a59b19d00018ad93d4,qws447241b,Nick_Dissertation_EX1,1,344,2020-06-02T09:48:45-07:00,4.7852990627289,1,versionA_stim.csv,READVersionA.csv,"Read Version A","Dissertation, read only version A",THREAD,THIMBLE,Study2,B,121,168,Test,User,-,,Recall,Recall2,3197,needle,30.769230769231,1646,3102,0,0,,1
5d08b2a59b19d00018ad93d4,qws447241b,Nick_Dissertation_EX1,1,345,2020-06-02T09:48:48-07:00,2.7591788768768,1,versionA_stim.csv,READVersionA.csv,"Read Version A","Dissertation, read only version A",RIGHTS,EQUAL,Study2,S,137,105,Test,User,-,,Recall,Recall2,1380,,0,-1,-1,0,0,,1
5d08b2a59b19d00018ad93d4,qws447241b,Nick_Dissertation_EX1,1,346,2020-06-02T09:48:51-07:00,3.1202549934387,1,versionA_stim.csv,READVersionA.csv,"Read Version A","Dissertation, read only version A",FLEA,TICK,Study2,S,151,147,Test,User,-,,Recall,Recall2,2229,bite,25,1714,2002,0,0,,1
