Username,ID,ExperimentName,Session,Trial,Date,TimeDif,"Condition Number","Stimuli File","Order File","Condition Description","Condition Notes",Stimuli*Cue,Stimuli*Answer,Stimuli*Shuffle,"Stimuli*Stimuli Notes",Stimuli*Value,Procedure*Item,"Procedure*Trial Type","Procedure*Max Time","Procedure*Min Time",Procedure*Text,"Procedure*Procedure Notes",Procedure*Shuffle,Response*RT,Response*Response,Response*Accuracy,Response*RTfirst,Response*RTlast,Response*strictAcc,Response*lenientAcc,Response*focus,Response*Focus
5e8209ae9c77a701e51fd83b,tn26frwp0f,Nick_Dissertation_EX1,1,1,2020-06-02T09:07:30-07:00,13.866307020187,1,versionA_stim.csv,READVersionA.csv,"Read Version A","Dissertation, read only version A",,,,,,0,Instruct,-,10,"Please study each of the following word pairs. Remember that your memory will be tested! When finished, press Enter to move to the next pair.",Initial_Instruct,Instruct1,13604,,,-1,-1,,,,1
5e8209ae9c77a701e51fd83b,tn26frwp0f,Nick_Dissertation_EX1,1,2,2020-06-02T09:07:34-07:00,4.4837019443512,1,versionA_stim.csv,READVersionA.csv,"Read Version A","Dissertation, read only version A",SCARE,HIDE,BUFFER1,Buffer,4,5,Study,User,-,,Study/JOL,BUFFER,4157,,,-1,-1,,,,1
5e8209ae9c77a701e51fd83b,tn26frwp0f,Nick_Dissertation_EX1,1,3,2020-06-02T09:07:42-07:00,8.1594641208649,1,versionA_stim.csv,READVersionA.csv,"Read Version A","Dissertation, read only version A",TREES,GREEN,BUFFER1,Buffer,1,4,Study,User,-,,Study/JOL,BUFFER,7871,,,-1,-1,,,,1
5e8209ae9c77a701e51fd83b,tn26frwp0f,Nick_Dissertation_EX1,1,4,2020-06-02T09:07:45-07:00,2.7392020225525,1,versionA_stim.csv,READVersionA.csv,"Read Version A","Dissertation, read only version A",PEANUT,BUTTER,BUFFER1,Buffer,3,6,Study,User,-,,Study/JOL,BUFFER,2400,,,-1,-1,,,,1
5e8209ae9c77a701e51fd83b,tn26frwp0f,Nick_Dissertation_EX1,1,5,2020-06-02T09:07:48-07:00,2.5675377845764,1,versionA_stim.csv,READVersionA.csv,"Read Version A","Dissertation, read only version A",BASEBALL,CATCHER,BUFFER1,Buffer,2,3,Study,User,-,,Study/JOL,BUFFER,2172,,,-1,-1,,,,1
5e8209ae9c77a701e51fd83b,tn26frwp0f,Nick_Dissertation_EX1,1,6,2020-06-02T09:07:51-07:00,3.211364030838,1,versionA_stim.csv,READVersionA.csv,"Read Version A","Dissertation, read only version A",SPACE,JAM,BUFFER1,Buffer,5,2,Study,User,-,,Study/JOL,BUFFER,2810,,,-1,-1,,,,1
5e8209ae9c77a701e51fd83b,tn26frwp0f,Nick_Dissertation_EX1,1,7,2020-06-02T09:07:55-07:00,3.9169809818268,1,versionA_stim.csv,READVersionA.csv,"Read Version A","Dissertation, read only version A",EDITOR,NEWS,Study1,F,10,61,Study,User,-,,Study/JOL,"Study Phase",3627,,,-1,-1,,,,1
5e8209ae9c77a701e51fd83b,tn26frwp0f,Nick_Dissertation_EX1,1,8,2020-06-02T09:07:57-07:00,2.7277882099152,1,versionA_stim.csv,READVersionA.csv,"Read Version A","Dissertation, read only version A",WINE,CHEESE,Study1,S,57,84,Study,User,-,,Study/JOL,"Study Phase",2431,,,-1,-1,,,,1
5e8209ae9c77a701e51fd83b,tn26frwp0f,Nick_Dissertation_EX1,1,9,2020-06-02T09:08:02-07:00,4.5957028865814,1,versionA_stim.csv,READVersionA.csv,"Read Version A","Dissertation, read only version A",BUG,WASP,Study1,B,32,68,Study,User,-,,Study/JOL,"Study Phase",4304,,,-1,-1,,,,1
5e8209ae9c77a701e51fd83b,tn26frwp0f,Nick_Dissertation_EX1,1,10,2020-06-02T09:08:07-07:00,4.6805019378662,1,versionA_stim.csv,READVersionA.csv,"Read Version A","Dissertation, read only version A",PLANE,PILOT,Study1,B,44,24,Study,User,-,,Study/JOL,"Study Phase",4386,,,-1,-1,,,,1
5e8209ae9c77a701e51fd83b,tn26frwp0f,Nick_Dissertation_EX1,1,11,2020-06-02T09:08:09-07:00,2.6943380832672,1,versionA_stim.csv,READVersionA.csv,"Read Version A","Dissertation, read only version A",BALL,RACKET,Study1,B,38,20,Study,User,-,,Study/JOL,"Study Phase",2394,,,-1,-1,,,,1
5e8209ae9c77a701e51fd83b,tn26frwp0f,Nick_Dissertation_EX1,1,12,2020-06-02T09:08:12-07:00,2.3560650348663,1,versionA_stim.csv,READVersionA.csv,"Read Version A","Dissertation, read only version A",PARK,HUNGRY,Study1,U,68,36,Study,User,-,,Study/JOL,"Study Phase",2073,,,-1,-1,,,,1
5e8209ae9c77a701e51fd83b,tn26frwp0f,Nick_Dissertation_EX1,1,13,2020-06-02T09:08:14-07:00,2.3695209026337,1,versionA_stim.csv,READVersionA.csv,"Read Version A","Dissertation, read only version A",TUNA,FISH,Study1,F,25,32,Study,User,-,,Study/JOL,"Study Phase",2072,,,-1,-1,,,,1
5e8209ae9c77a701e51fd83b,tn26frwp0f,Nick_Dissertation_EX1,1,14,2020-06-02T09:08:16-07:00,2.150799036026,1,versionA_stim.csv,READVersionA.csv,"Read Version A","Dissertation, read only version A",BEGIN,END,Study1,S,54,51,Study,User,-,,Study/JOL,"Study Phase",1807,,,-1,-1,,,,1
5e8209ae9c77a701e51fd83b,tn26frwp0f,Nick_Dissertation_EX1,1,15,2020-06-02T09:08:21-07:00,4.6354660987854,1,versionA_stim.csv,READVersionA.csv,"Read Version A","Dissertation, read only version A",VALLEY,ADD,Study1,U,82,82,Study,User,-,,Study/JOL,"Study Phase",4320,,,-1,-1,,,,1
5e8209ae9c77a701e51fd83b,tn26frwp0f,Nick_Dissertation_EX1,1,16,2020-06-02T09:08:28-07:00,6.7852389812469,1,versionA_stim.csv,READVersionA.csv,"Read Version A","Dissertation, read only version A",DISCOVER,FLOOR,Study1,U,71,44,Study,User,-,,Study/JOL,"Study Phase",6494,,,-1,-1,,,,1
5e8209ae9c77a701e51fd83b,tn26frwp0f,Nick_Dissertation_EX1,1,17,2020-06-02T09:08:32-07:00,4.3444578647614,1,versionA_stim.csv,READVersionA.csv,"Read Version A","Dissertation, read only version A",HUNGER,FAMINE,Study1,B,40,43,Study,User,-,,Study/JOL,"Study Phase",4050,,,-1,-1,,,,1
5e8209ae9c77a701e51fd83b,tn26frwp0f,Nick_Dissertation_EX1,1,18,2020-06-02T09:08:34-07:00,2.2591390609741,1,versionA_stim.csv,READVersionA.csv,"Read Version A","Dissertation, read only version A",GREAT,FANTASTIC,Study1,B,35,35,Study,User,-,,Study/JOL,"Study Phase",1966,,,-1,-1,,,,1
5e8209ae9c77a701e51fd83b,tn26frwp0f,Nick_Dissertation_EX1,1,19,2020-06-02T09:08:38-07:00,3.9741399288177,1,versionA_stim.csv,READVersionA.csv,"Read Version A","Dissertation, read only version A",ARTERY,BRONZE,Study1,U,74,62,Study,User,-,,Study/JOL,"Study Phase",3583,,,-1,-1,,,,1
5e8209ae9c77a701e51fd83b,tn26frwp0f,Nick_Dissertation_EX1,1,20,2020-06-02T09:08:40-07:00,2.1101579666138,1,versionA_stim.csv,READVersionA.csv,"Read Version A","Dissertation, read only version A",CLOTHES,ATTIRE,Study1,B,43,45,Study,User,-,,Study/JOL,"Study Phase",1798,,,-1,-1,,,,1
5e8209ae9c77a701e51fd83b,tn26frwp0f,Nick_Dissertation_EX1,1,21,2020-06-02T09:08:47-07:00,6.2756490707397,1,versionA_stim.csv,READVersionA.csv,"Read Version A","Dissertation, read only version A",ORCHID,FLOWER,Study1,F,24,39,Study,User,-,,Study/JOL,"Study Phase",5422,,,-1,-1,,,,1
5e8209ae9c77a701e51fd83b,tn26frwp0f,Nick_Dissertation_EX1,1,22,2020-06-02T09:08:52-07:00,5.4257750511169,1,versionA_stim.csv,READVersionA.csv,"Read Version A","Dissertation, read only version A",LIFT,WOMAN,Study1,U,69,67,Study,User,-,,Study/JOL,"Study Phase",3959,,,-1,-1,,,,1
5e8209ae9c77a701e51fd83b,tn26frwp0f,Nick_Dissertation_EX1,1,23,2020-06-02T09:08:56-07:00,3.6302070617676,1,versionA_stim.csv,READVersionA.csv,"Read Version A","Dissertation, read only version A",SUGAR,RIDDLE,Study1,U,81,80,Study,User,-,,Study/JOL,"Study Phase",3291,,,-1,-1,,,,1
5e8209ae9c77a701e51fd83b,tn26frwp0f,Nick_Dissertation_EX1,1,24,2020-06-02T09:08:59-07:00,3.3615109920502,1,versionA_stim.csv,READVersionA.csv,"Read Version A","Dissertation, read only version A",CHISEL,HAMMER,Study1,F,9,66,Study,User,-,,Study/JOL,"Study Phase",1869,,,-1,-1,,,,1
5e8209ae9c77a701e51fd83b,tn26frwp0f,Nick_Dissertation_EX1,1,25,2020-06-02T09:09:01-07:00,2.1287128925323,1,versionA_stim.csv,READVersionA.csv,"Read Version A","Dissertation, read only version A",HOT,CHILI,Study1,B,37,69,Study,User,-,,Study/JOL,"Study Phase",1822,,,-1,-1,,,,1
5e8209ae9c77a701e51fd83b,tn26frwp0f,Nick_Dissertation_EX1,1,26,2020-06-02T09:09:05-07:00,3.685467004776,1,versionA_stim.csv,READVersionA.csv,"Read Version A","Dissertation, read only version A",ARCHITECTURE,DESIGN,Study1,S,51,10,Study,User,-,,Study/JOL,"Study Phase",3372,,,-1,-1,,,,1
5e8209ae9c77a701e51fd83b,tn26frwp0f,Nick_Dissertation_EX1,1,27,2020-06-02T09:09:09-07:00,4.6062021255493,1,versionA_stim.csv,READVersionA.csv,"Read Version A","Dissertation, read only version A",DIETARY,SACKING,Study1,U,67,56,Study,User,-,,Study/JOL,"Study Phase",4315,,,-1,-1,,,,1
5e8209ae9c77a701e51fd83b,tn26frwp0f,Nick_Dissertation_EX1,1,28,2020-06-02T09:09:12-07:00,2.2723019123077,1,versionA_stim.csv,READVersionA.csv,"Read Version A","Dissertation, read only version A",TRIAL,JURY,Study1,S,50,77,Study,User,-,,Study/JOL,"Study Phase",1963,,,-1,-1,,,,1
5e8209ae9c77a701e51fd83b,tn26frwp0f,Nick_Dissertation_EX1,1,29,2020-06-02T09:09:15-07:00,3.1596629619598,1,versionA_stim.csv,READVersionA.csv,"Read Version A","Dissertation, read only version A",DIGESTION,STOMACH,Study1,F,7,55,Study,User,-,,Study/JOL,"Study Phase",2776,,,-1,-1,,,,1
5e8209ae9c77a701e51fd83b,tn26frwp0f,Nick_Dissertation_EX1,1,30,2020-06-02T09:09:18-07:00,3.0619480609894,1,versionA_stim.csv,READVersionA.csv,"Read Version A","Dissertation, read only version A",ART,LION,Study1,U,79,14,Study,User,-,,Study/JOL,"Study Phase",2745,,,-1,-1,,,,1
5e8209ae9c77a701e51fd83b,tn26frwp0f,Nick_Dissertation_EX1,1,31,2020-06-02T09:09:20-07:00,2.47798204422,1,versionA_stim.csv,READVersionA.csv,"Read Version A","Dissertation, read only version A",POP,SODA,Study1,S,56,74,Study,User,-,,Study/JOL,"Study Phase",2171,,,-1,-1,,,,1
5e8209ae9c77a701e51fd83b,tn26frwp0f,Nick_Dissertation_EX1,1,32,2020-06-02T09:09:23-07:00,2.6449978351593,1,versionA_stim.csv,READVersionA.csv,"Read Version A","Dissertation, read only version A",ALLOW,TUCK,Study1,U,78,15,Study,User,-,,Study/JOL,"Study Phase",2344,,,-1,-1,,,,1
5e8209ae9c77a701e51fd83b,tn26frwp0f,Nick_Dissertation_EX1,1,33,2020-06-02T09:09:26-07:00,2.8399519920349,1,versionA_stim.csv,READVersionA.csv,"Read Version A","Dissertation, read only version A",HORNET,STING,Study1,F,11,64,Study,User,-,,Study/JOL,"Study Phase",2532,,,-1,-1,,,,1
5e8209ae9c77a701e51fd83b,tn26frwp0f,Nick_Dissertation_EX1,1,34,2020-06-02T09:09:30-07:00,3.614687204361,1,versionA_stim.csv,READVersionA.csv,"Read Version A","Dissertation, read only version A",WAGE,MONEY,Study1,F,8,12,Study,User,-,,Study/JOL,"Study Phase",3323,,,-1,-1,,,,1
5e8209ae9c77a701e51fd83b,tn26frwp0f,Nick_Dissertation_EX1,1,35,2020-06-02T09:09:33-07:00,3.109543800354,1,versionA_stim.csv,READVersionA.csv,"Read Version A","Dissertation, read only version A",SWAN,BIRD,Study1,F,14,75,Study,User,-,,Study/JOL,"Study Phase",2802,,,-1,-1,,,,1
5e8209ae9c77a701e51fd83b,tn26frwp0f,Nick_Dissertation_EX1,1,36,2020-06-02T09:09:36-07:00,3.8010621070862,1,versionA_stim.csv,READVersionA.csv,"Read Version A","Dissertation, read only version A",SLEEP,DROWSY,Study1,B,41,59,Study,User,-,,Study/JOL,"Study Phase",3494,,,-1,-1,,,,1
5e8209ae9c77a701e51fd83b,tn26frwp0f,Nick_Dissertation_EX1,1,37,2020-06-02T09:09:40-07:00,3.1915988922119,1,versionA_stim.csv,READVersionA.csv,"Read Version A","Dissertation, read only version A",REVOLUTION,WAR,Study1,F,20,34,Study,User,-,,Study/JOL,"Study Phase",2901,,,-1,-1,,,,1
5e8209ae9c77a701e51fd83b,tn26frwp0f,Nick_Dissertation_EX1,1,38,2020-06-02T09:09:42-07:00,2.4080610275269,1,versionA_stim.csv,READVersionA.csv,"Read Version A","Dissertation, read only version A",SHOE,FOOT,Study1,S,60,18,Study,User,-,,Study/JOL,"Study Phase",2121,,,-1,-1,,,,1
5e8209ae9c77a701e51fd83b,tn26frwp0f,Nick_Dissertation_EX1,1,39,2020-06-02T09:09:45-07:00,2.6558830738068,1,versionA_stim.csv,READVersionA.csv,"Read Version A","Dissertation, read only version A",FULL,ENOUGH,Study1,B,26,81,Study,User,-,,Study/JOL,"Study Phase",2350,,,-1,-1,,,,1
5e8209ae9c77a701e51fd83b,tn26frwp0f,Nick_Dissertation_EX1,1,40,2020-06-02T09:09:48-07:00,2.8856070041656,1,versionA_stim.csv,READVersionA.csv,"Read Version A","Dissertation, read only version A",DEATH,BUSINESS,Study1,U,72,17,Study,User,-,,Study/JOL,"Study Phase",2508,,,-1,-1,,,,1
5e8209ae9c77a701e51fd83b,tn26frwp0f,Nick_Dissertation_EX1,1,41,2020-06-02T09:09:50-07:00,2.2210299968719,1,versionA_stim.csv,READVersionA.csv,"Read Version A","Dissertation, read only version A",PAST,FUTURE,Study1,S,61,53,Study,User,-,,Study/JOL,"Study Phase",1756,,,-1,-1,,,,1
5e8209ae9c77a701e51fd83b,tn26frwp0f,Nick_Dissertation_EX1,1,42,2020-06-02T09:09:52-07:00,2.1352849006653,1,versionA_stim.csv,READVersionA.csv,"Read Version A","Dissertation, read only version A",CREDIT,CARD,Study1,F,23,29,Study,User,-,,Study/JOL,"Study Phase",1663,,,-1,-1,,,,1
5e8209ae9c77a701e51fd83b,tn26frwp0f,Nick_Dissertation_EX1,1,43,2020-06-02T09:09:55-07:00,2.5942289829254,1,versionA_stim.csv,READVersionA.csv,"Read Version A","Dissertation, read only version A",BABY,CHILD,Study1,S,64,11,Study,User,-,,Study/JOL,"Study Phase",2115,,,-1,-1,,,,1
5e8209ae9c77a701e51fd83b,tn26frwp0f,Nick_Dissertation_EX1,1,44,2020-06-02T09:09:57-07:00,2.4129462242126,1,versionA_stim.csv,READVersionA.csv,"Read Version A","Dissertation, read only version A",KING,VASE,Study1,U,85,46,Study,User,-,,Study/JOL,"Study Phase",2036,,,-1,-1,,,,1
5e8209ae9c77a701e51fd83b,tn26frwp0f,Nick_Dissertation_EX1,1,45,2020-06-02T09:09:59-07:00,2.0457949638367,1,versionA_stim.csv,READVersionA.csv,"Read Version A","Dissertation, read only version A",HERD,COW,Study1,F,22,85,Study,User,-,,Study/JOL,"Study Phase",1760,,,-1,-1,,,,1
5e8209ae9c77a701e51fd83b,tn26frwp0f,Nick_Dissertation_EX1,1,46,2020-06-02T09:10:01-07:00,2.1487159729004,1,versionA_stim.csv,READVersionA.csv,"Read Version A","Dissertation, read only version A",DARK,CAVE,Study1,B,28,37,Study,User,-,,Study/JOL,"Study Phase",1845,,,-1,-1,,,,1
5e8209ae9c77a701e51fd83b,tn26frwp0f,Nick_Dissertation_EX1,1,47,2020-06-02T09:10:03-07:00,2.247535943985,1,versionA_stim.csv,READVersionA.csv,"Read Version A","Dissertation, read only version A",FIX,HAND,Study1,U,75,47,Study,User,-,,Study/JOL,"Study Phase",1873,,,-1,-1,,,,1
5e8209ae9c77a701e51fd83b,tn26frwp0f,Nick_Dissertation_EX1,1,48,2020-06-02T09:10:06-07:00,2.7082140445709,1,versionA_stim.csv,READVersionA.csv,"Read Version A","Dissertation, read only version A",HYGIENE,CLEAN,Study1,F,17,21,Study,User,-,,Study/JOL,"Study Phase",2240,,,-1,-1,,,,1
5e8209ae9c77a701e51fd83b,tn26frwp0f,Nick_Dissertation_EX1,1,49,2020-06-02T09:10:09-07:00,2.7943918704987,1,versionA_stim.csv,READVersionA.csv,"Read Version A","Dissertation, read only version A",HAPPY,CAR,Study1,U,77,8,Study,User,-,,Study/JOL,"Study Phase",2472,,,-1,-1,,,,1
5e8209ae9c77a701e51fd83b,tn26frwp0f,Nick_Dissertation_EX1,1,50,2020-06-02T09:10:12-07:00,2.7388570308685,1,versionA_stim.csv,READVersionA.csv,"Read Version A","Dissertation, read only version A",STRONG,ACCIDENT,Study1,U,80,50,Study,User,-,,Study/JOL,"Study Phase",1975,,,-1,-1,,,,1
5e8209ae9c77a701e51fd83b,tn26frwp0f,Nick_Dissertation_EX1,1,51,2020-06-02T09:10:14-07:00,2.5804080963135,1,versionA_stim.csv,READVersionA.csv,"Read Version A","Dissertation, read only version A",DUE,ASSIGNMENT,Study1,S,46,79,Study,User,-,,Study/JOL,"Study Phase",2267,,,-1,-1,,,,1
5e8209ae9c77a701e51fd83b,tn26frwp0f,Nick_Dissertation_EX1,1,52,2020-06-02T09:10:17-07:00,2.546196937561,1,versionA_stim.csv,READVersionA.csv,"Read Version A","Dissertation, read only version A",CIRCLE,ROUND,Study1,S,65,57,Study,User,-,,Study/JOL,"Study Phase",2251,,,-1,-1,,,,1
5e8209ae9c77a701e51fd83b,tn26frwp0f,Nick_Dissertation_EX1,1,53,2020-06-02T09:10:19-07:00,2.3430600166321,1,versionA_stim.csv,READVersionA.csv,"Read Version A","Dissertation, read only version A",PUSHER,CLUTTER,Study1,U,66,31,Study,User,-,,Study/JOL,"Study Phase",2054,,,-1,-1,,,,1
5e8209ae9c77a701e51fd83b,tn26frwp0f,Nick_Dissertation_EX1,1,54,2020-06-02T09:10:21-07:00,2.2931909561157,1,versionA_stim.csv,READVersionA.csv,"Read Version A","Dissertation, read only version A",HONEY,BEE,Study1,S,63,83,Study,User,-,,Study/JOL,"Study Phase",1659,,,-1,-1,,,,1
5e8209ae9c77a701e51fd83b,tn26frwp0f,Nick_Dissertation_EX1,1,55,2020-06-02T09:10:24-07:00,2.5727159976959,1,versionA_stim.csv,READVersionA.csv,"Read Version A","Dissertation, read only version A",TAKE,SEIZE,Study1,B,29,22,Study,User,-,,Study/JOL,"Study Phase",2174,,,-1,-1,,,,1
5e8209ae9c77a701e51fd83b,tn26frwp0f,Nick_Dissertation_EX1,1,56,2020-06-02T09:10:27-07:00,2.7921421527863,1,versionA_stim.csv,READVersionA.csv,"Read Version A","Dissertation, read only version A",HEIGHT,GROWTH,Study1,B,30,71,Study,User,-,,Study/JOL,"Study Phase",2491,,,-1,-1,,,,1
5e8209ae9c77a701e51fd83b,tn26frwp0f,Nick_Dissertation_EX1,1,57,2020-06-02T09:10:29-07:00,2.1483869552612,1,versionA_stim.csv,READVersionA.csv,"Read Version A","Dissertation, read only version A",LAW,ATTORNEY,Study1,B,34,33,Study,User,-,,Study/JOL,"Study Phase",1833,,,-1,-1,,,,1
5e8209ae9c77a701e51fd83b,tn26frwp0f,Nick_Dissertation_EX1,1,58,2020-06-02T09:10:32-07:00,3.1362779140472,1,versionA_stim.csv,READVersionA.csv,"Read Version A","Dissertation, read only version A",MACHINE,POSITION,Study1,U,76,23,Study,User,-,,Study/JOL,"Study Phase",2836,,,-1,-1,,,,1
5e8209ae9c77a701e51fd83b,tn26frwp0f,Nick_Dissertation_EX1,1,59,2020-06-02T09:10:34-07:00,2.2748711109161,1,versionA_stim.csv,READVersionA.csv,"Read Version A","Dissertation, read only version A",SMELL,STENCH,Study1,B,42,52,Study,User,-,,Study/JOL,"Study Phase",1961,,,-1,-1,,,,1
5e8209ae9c77a701e51fd83b,tn26frwp0f,Nick_Dissertation_EX1,1,60,2020-06-02T09:10:38-07:00,3.7922768592834,1,versionA_stim.csv,READVersionA.csv,"Read Version A","Dissertation, read only version A",DUMP,WASTE,Study1,S,49,25,Study,User,-,,Study/JOL,"Study Phase",3406,,,-1,-1,,,,1
5e8209ae9c77a701e51fd83b,tn26frwp0f,Nick_Dissertation_EX1,1,61,2020-06-02T09:10:40-07:00,2.2543330192566,1,versionA_stim.csv,READVersionA.csv,"Read Version A","Dissertation, read only version A",MATH,DIVISION,Study1,B,33,76,Study,User,-,,Study/JOL,"Study Phase",1875,,,-1,-1,,,,1
5e8209ae9c77a701e51fd83b,tn26frwp0f,Nick_Dissertation_EX1,1,62,2020-06-02T09:10:43-07:00,2.4073779582977,1,versionA_stim.csv,READVersionA.csv,"Read Version A","Dissertation, read only version A",DRINK,SIP,Study1,B,27,73,Study,User,-,,Study/JOL,"Study Phase",2002,,,-1,-1,,,,1
5e8209ae9c77a701e51fd83b,tn26frwp0f,Nick_Dissertation_EX1,1,63,2020-06-02T09:10:47-07:00,4.5996310710907,1,versionA_stim.csv,READVersionA.csv,"Read Version A","Dissertation, read only version A",HIDE,SICK,Study1,U,84,70,Study,User,-,,Study/JOL,"Study Phase",4066,,,-1,-1,,,,1
5e8209ae9c77a701e51fd83b,tn26frwp0f,Nick_Dissertation_EX1,1,64,2020-06-02T09:10:51-07:00,3.6855731010437,1,versionA_stim.csv,READVersionA.csv,"Read Version A","Dissertation, read only version A",NUMBER,AMOUNT,Study1,S,47,38,Study,User,-,,Study/JOL,"Study Phase",2233,,,-1,-1,,,,1
5e8209ae9c77a701e51fd83b,tn26frwp0f,Nick_Dissertation_EX1,1,65,2020-06-02T09:10:53-07:00,2.2790968418121,1,versionA_stim.csv,READVersionA.csv,"Read Version A","Dissertation, read only version A",CASH,WOULD,Study1,U,83,26,Study,User,-,,Study/JOL,"Study Phase",1966,,,-1,-1,,,,1
5e8209ae9c77a701e51fd83b,tn26frwp0f,Nick_Dissertation_EX1,1,66,2020-06-02T09:10:56-07:00,2.8087310791016,1,versionA_stim.csv,READVersionA.csv,"Read Version A","Dissertation, read only version A",BLOW,WIND,Study1,S,55,58,Study,User,-,,Study/JOL,"Study Phase",2413,,,-1,-1,,,,1
5e8209ae9c77a701e51fd83b,tn26frwp0f,Nick_Dissertation_EX1,1,67,2020-06-02T09:10:58-07:00,1.9395990371704,1,versionA_stim.csv,READVersionA.csv,"Read Version A","Dissertation, read only version A",GEOLOGY,ROCK,Study1,F,19,16,Study,User,-,,Study/JOL,"Study Phase",1629,,,-1,-1,,,,1
5e8209ae9c77a701e51fd83b,tn26frwp0f,Nick_Dissertation_EX1,1,68,2020-06-02T09:11:01-07:00,2.8772449493408,1,versionA_stim.csv,READVersionA.csv,"Read Version A","Dissertation, read only version A",WAY,OUT,Study1,F,16,42,Study,User,-,,Study/JOL,"Study Phase",2572,,,-1,-1,,,,1
5e8209ae9c77a701e51fd83b,tn26frwp0f,Nick_Dissertation_EX1,1,69,2020-06-02T09:11:04-07:00,2.7205591201782,1,versionA_stim.csv,READVersionA.csv,"Read Version A","Dissertation, read only version A",SOON,BELT,Study1,U,70,49,Study,User,-,,Study/JOL,"Study Phase",2413,,,-1,-1,,,,1
5e8209ae9c77a701e51fd83b,tn26frwp0f,Nick_Dissertation_EX1,1,70,2020-06-02T09:11:06-07:00,2.2610428333282,1,versionA_stim.csv,READVersionA.csv,"Read Version A","Dissertation, read only version A",KIDNEY,LIVER,Study1,S,53,13,Study,User,-,,Study/JOL,"Study Phase",1572,,,-1,-1,,,,1
5e8209ae9c77a701e51fd83b,tn26frwp0f,Nick_Dissertation_EX1,1,71,2020-06-02T09:11:08-07:00,1.743674993515,1,versionA_stim.csv,READVersionA.csv,"Read Version A","Dissertation, read only version A",BITTER,COLD,Study1,F,12,19,Study,User,-,,Study/JOL,"Study Phase",1443,,,-1,-1,,,,1
5e8209ae9c77a701e51fd83b,tn26frwp0f,Nick_Dissertation_EX1,1,72,2020-06-02T09:11:10-07:00,1.8982951641083,1,versionA_stim.csv,READVersionA.csv,"Read Version A","Dissertation, read only version A",GRILL,BAR,Study1,S,52,65,Study,User,-,,Study/JOL,"Study Phase",1604,,,-1,-1,,,,1
5e8209ae9c77a701e51fd83b,tn26frwp0f,Nick_Dissertation_EX1,1,73,2020-06-02T09:11:12-07:00,2.3231208324432,1,versionA_stim.csv,READVersionA.csv,"Read Version A","Dissertation, read only version A",LOCATION,SITE,Study1,S,48,48,Study,User,-,,Study/JOL,"Study Phase",2027,,,-1,-1,,,,1
5e8209ae9c77a701e51fd83b,tn26frwp0f,Nick_Dissertation_EX1,1,74,2020-06-02T09:11:14-07:00,1.8797409534454,1,versionA_stim.csv,READVersionA.csv,"Read Version A","Dissertation, read only version A",LETTUCE,SALAD,Study1,S,59,30,Study,User,-,,Study/JOL,"Study Phase",1578,,,-1,-1,,,,1
5e8209ae9c77a701e51fd83b,tn26frwp0f,Nick_Dissertation_EX1,1,75,2020-06-02T09:11:16-07:00,2.2952880859375,1,versionA_stim.csv,READVersionA.csv,"Read Version A","Dissertation, read only version A",BATHROOM,TOILET,Study1,S,58,63,Study,User,-,,Study/JOL,"Study Phase",1950,,,-1,-1,,,,1
5e8209ae9c77a701e51fd83b,tn26frwp0f,Nick_Dissertation_EX1,1,76,2020-06-02T09:11:18-07:00,2.1080229282379,1,versionA_stim.csv,READVersionA.csv,"Read Version A","Dissertation, read only version A",BRIDGE,WATER,Study1,F,18,54,Study,User,-,,Study/JOL,"Study Phase",1802,,,-1,-1,,,,1
5e8209ae9c77a701e51fd83b,tn26frwp0f,Nick_Dissertation_EX1,1,77,2020-06-02T09:11:21-07:00,3.1185111999512,1,versionA_stim.csv,READVersionA.csv,"Read Version A","Dissertation, read only version A",DELINQUENT,BAD,Study1,F,6,60,Study,User,-,,Study/JOL,"Study Phase",2819,,,-1,-1,,,,1
5e8209ae9c77a701e51fd83b,tn26frwp0f,Nick_Dissertation_EX1,1,78,2020-06-02T09:11:23-07:00,2.037202835083,1,versionA_stim.csv,READVersionA.csv,"Read Version A","Dissertation, read only version A",ROOT,PLANT,Study1,F,13,86,Study,User,-,,Study/JOL,"Study Phase",1738,,,-1,-1,,,,1
5e8209ae9c77a701e51fd83b,tn26frwp0f,Nick_Dissertation_EX1,1,79,2020-06-02T09:11:26-07:00,2.6780230998993,1,versionA_stim.csv,READVersionA.csv,"Read Version A","Dissertation, read only version A",KEY,LATCH,Study1,B,36,72,Study,User,-,,Study/JOL,"Study Phase",1860,,,-1,-1,,,,1
5e8209ae9c77a701e51fd83b,tn26frwp0f,Nick_Dissertation_EX1,1,80,2020-06-02T09:11:29-07:00,2.5539429187775,1,versionA_stim.csv,READVersionA.csv,"Read Version A","Dissertation, read only version A",MEANING,DEFINITION,Study1,S,62,40,Study,User,-,,Study/JOL,"Study Phase",2169,,,-1,-1,,,,1
5e8209ae9c77a701e51fd83b,tn26frwp0f,Nick_Dissertation_EX1,1,81,2020-06-02T09:11:30-07:00,1.8250451087952,1,versionA_stim.csv,READVersionA.csv,"Read Version A","Dissertation, read only version A",PAW,DOG,Study1,F,15,41,Study,User,-,,Study/JOL,"Study Phase",1500,,,-1,-1,,,,1
5e8209ae9c77a701e51fd83b,tn26frwp0f,Nick_Dissertation_EX1,1,82,2020-06-02T09:11:32-07:00,2.0211679935455,1,versionA_stim.csv,READVersionA.csv,"Read Version A","Dissertation, read only version A",WORK,CHORE,Study1,B,39,9,Study,User,-,,Study/JOL,"Study Phase",1698,,,-1,-1,,,,1
5e8209ae9c77a701e51fd83b,tn26frwp0f,Nick_Dissertation_EX1,1,83,2020-06-02T09:11:35-07:00,2.3313908576965,1,versionA_stim.csv,READVersionA.csv,"Read Version A","Dissertation, read only version A",SENTENCE,WORD,Study1,B,31,27,Study,User,-,,Study/JOL,"Study Phase",2016,,,-1,-1,,,,1
5e8209ae9c77a701e51fd83b,tn26frwp0f,Nick_Dissertation_EX1,1,84,2020-06-02T09:11:37-07:00,2.2664580345154,1,versionA_stim.csv,READVersionA.csv,"Read Version A","Dissertation, read only version A",FIRE,BLAZE,Study1,B,45,28,Study,User,-,,Study/JOL,"Study Phase",1854,,,-1,-1,,,,1
5e8209ae9c77a701e51fd83b,tn26frwp0f,Nick_Dissertation_EX1,1,85,2020-06-02T09:11:39-07:00,2.0159029960632,1,versionA_stim.csv,READVersionA.csv,"Read Version A","Dissertation, read only version A",DISCUSSION,TALK,Study1,F,21,78,Study,User,-,,Study/JOL,"Study Phase",1695,,,-1,-1,,,,1
5e8209ae9c77a701e51fd83b,tn26frwp0f,Nick_Dissertation_EX1,1,86,2020-06-02T09:11:41-07:00,1.9620130062103,1,versionA_stim.csv,READVersionA.csv,"Read Version A","Dissertation, read only version A",DEBATE,SIGHT,Study1,U,73,7,Study,User,-,,Study/JOL,"Study Phase",1646,,,-1,-1,,,,1
5e8209ae9c77a701e51fd83b,tn26frwp0f,Nick_Dissertation_EX1,1,87,2020-06-02T09:11:43-07:00,2.1327381134033,1,versionA_stim.csv,READVersionA.csv,"Read Version A","Dissertation, read only version A",MOON,SPACE,BUFFER2,Buffer,89,87,Study,User,-,,Study/JOL,BUFFER2,1805,,,-1,-1,,,,1
5e8209ae9c77a701e51fd83b,tn26frwp0f,Nick_Dissertation_EX1,1,88,2020-06-02T09:11:46-07:00,3.2199928760529,1,versionA_stim.csv,READVersionA.csv,"Read Version A","Dissertation, read only version A",SHERRIF,POLICE,BUFFER2,Buffer,87,88,Study,User,-,,Study/JOL,BUFFER2,2835,,,-1,-1,,,,1
5e8209ae9c77a701e51fd83b,tn26frwp0f,Nick_Dissertation_EX1,1,89,2020-06-02T09:11:50-07:00,3.9342169761658,1,versionA_stim.csv,READVersionA.csv,"Read Version A","Dissertation, read only version A",MALT,CHOCOLATE,BUFFER2,Buffer,88,90,Study,User,-,,Study/JOL,BUFFER2,3370,,,-1,-1,,,,1
5e8209ae9c77a701e51fd83b,tn26frwp0f,Nick_Dissertation_EX1,1,90,2020-06-02T09:11:53-07:00,3.1701171398163,1,versionA_stim.csv,READVersionA.csv,"Read Version A","Dissertation, read only version A",GEESE,GOOSE,BUFFER2,Buffer,86,91,Study,User,-,,Study/JOL,BUFFER2,2874,,,-1,-1,,,,1
5e8209ae9c77a701e51fd83b,tn26frwp0f,Nick_Dissertation_EX1,1,91,2020-06-02T09:11:55-07:00,1.5340819358826,1,versionA_stim.csv,READVersionA.csv,"Read Version A","Dissertation, read only version A",THING,STUFF,BUFFER2,Buffer,90,89,Study,User,-,,Study/JOL,BUFFER2,1222,,,-1,-1,,,,1
5e8209ae9c77a701e51fd83b,tn26frwp0f,Nick_Dissertation_EX1,1,92,2020-06-02T09:11:58-07:00,2.7132420539856,1,versionA_stim.csv,READVersionA.csv,"Read Version A","Dissertation, read only version A",,,,,,0,Instruct,User,-,"You have completed this section. Please press Enter.",Filler_Instruction,Instruct2,2413,,,-1,-1,,,,1
5e8209ae9c77a701e51fd83b,tn26frwp0f,Nick_Dissertation_EX1,1,93,2020-06-02T09:13:58-07:00,120.65543889999,1,versionA_stim.csv,READVersionA.csv,"Read Version A","Dissertation, read only version A",,,,,,0,FreeRecall,120,120,"Please list the 50 US states in alphabetical order. The task will automatically advance to the next screen after two minutes.",,Filler1,120257,"alabama alaska arizona arkansas california colorado conneticut delaware",0,42909,102234,0,0,,0.921
5e8209ae9c77a701e51fd83b,tn26frwp0f,Nick_Dissertation_EX1,1,94,2020-06-02T09:14:11-07:00,12.332718133926,1,versionA_stim.csv,READVersionA.csv,"Read Version A","Dissertation, read only version A",,,,,,0,Instruct,-,10,"You will now be presented with the first word from each of the previously studied item pairs. Please type the missing word. If you do not know the word, you may guess or press Enter to skip forward to the next pair.",,Instruct3,11703,,,-1,-1,,,,0.857
5e8209ae9c77a701e51fd83b,tn26frwp0f,Nick_Dissertation_EX1,1,95,2020-06-02T09:14:15-07:00,4.5964720249176,1,versionA_stim.csv,READVersionA.csv,"Read Version A","Dissertation, read only version A",HIDE,SICK,Study1,U,84,70,Test,User,-,,Recall,Recall1,4293,sick,100,1387,2769,1,1,,1
5e8209ae9c77a701e51fd83b,tn26frwp0f,Nick_Dissertation_EX1,1,96,2020-06-02T09:14:20-07:00,4.8283948898315,1,versionA_stim.csv,READVersionA.csv,"Read Version A","Dissertation, read only version A",SHOE,FOOT,Study1,S,60,18,Test,User,-,,Recall,Recall1,4533,lace,0,2682,3801,0,0,,1
5e8209ae9c77a701e51fd83b,tn26frwp0f,Nick_Dissertation_EX1,1,97,2020-06-02T09:14:24-07:00,3.6046950817108,1,versionA_stim.csv,READVersionA.csv,"Read Version A","Dissertation, read only version A",DUE,ASSIGNMENT,Study1,S,46,79,Test,User,-,,Recall,Recall1,3293,date,28.571428571429,1613,2610,0,0,,1
5e8209ae9c77a701e51fd83b,tn26frwp0f,Nick_Dissertation_EX1,1,98,2020-06-02T09:14:46-07:00,22.355415821075,1,versionA_stim.csv,READVersionA.csv,"Read Version A","Dissertation, read only version A",MACHINE,POSITION,Study1,U,76,23,Test,User,-,,Recall,Recall1,21816,lift,33.333333333333,20563,21311,0,0,,1
5e8209ae9c77a701e51fd83b,tn26frwp0f,Nick_Dissertation_EX1,1,99,2020-06-02T09:14:51-07:00,5.2781310081482,1,versionA_stim.csv,READVersionA.csv,"Read Version A","Dissertation, read only version A",KING,VASE,Study1,U,85,46,Test,User,-,,Recall,Recall1,4693,queen,22.222222222222,2598,4298,0,0,,1
5e8209ae9c77a701e51fd83b,tn26frwp0f,Nick_Dissertation_EX1,1,100,2020-06-02T09:14:54-07:00,3.1387531757355,1,versionA_stim.csv,READVersionA.csv,"Read Version A","Dissertation, read only version A",REVOLUTION,WAR,Study1,F,20,34,Test,User,-,,Recall,Recall1,2792,war,100,1924,2419,1,1,,1
5e8209ae9c77a701e51fd83b,tn26frwp0f,Nick_Dissertation_EX1,1,101,2020-06-02T09:15:01-07:00,6.8310070037842,1,versionA_stim.csv,READVersionA.csv,"Read Version A","Dissertation, read only version A",NUMBER,AMOUNT,Study1,S,47,38,Test,User,-,,Recall,Recall1,6512,digit,18.181818181818,4018,5974,0,0,,1
5e8209ae9c77a701e51fd83b,tn26frwp0f,Nick_Dissertation_EX1,1,102,2020-06-02T09:15:06-07:00,4.5336449146271,1,versionA_stim.csv,READVersionA.csv,"Read Version A","Dissertation, read only version A",LETTUCE,SALAD,Study1,S,59,30,Test,User,-,,Recall,Recall1,4226,ice,0,3097,3792,0,0,,1
5e8209ae9c77a701e51fd83b,tn26frwp0f,Nick_Dissertation_EX1,1,103,2020-06-02T09:15:09-07:00,3.6019310951233,1,versionA_stim.csv,READVersionA.csv,"Read Version A","Dissertation, read only version A",WORK,CHORE,Study1,B,39,9,Test,User,-,,Recall,Recall1,3282,play,0,1548,2846,0,0,,1
5e8209ae9c77a701e51fd83b,tn26frwp0f,Nick_Dissertation_EX1,1,104,2020-06-02T09:15:13-07:00,3.6225957870483,1,versionA_stim.csv,READVersionA.csv,"Read Version A","Dissertation, read only version A",HAPPY,CAR,Study1,U,77,8,Test,User,-,,Recall,Recall1,3305,"sad\",28.571428571429,1638,2596,0,0,,1
5e8209ae9c77a701e51fd83b,tn26frwp0f,Nick_Dissertation_EX1,1,105,2020-06-02T09:15:18-07:00,4.462443113327,1,versionA_stim.csv,READVersionA.csv,"Read Version A","Dissertation, read only version A",GEOLOGY,ROCK,Study1,F,19,16,Test,User,-,,Recall,Recall1,4148,rocks,88.888888888889,2154,3795,0,1,,1
5e8209ae9c77a701e51fd83b,tn26frwp0f,Nick_Dissertation_EX1,1,106,2020-06-02T09:15:21-07:00,3.4016919136047,1,versionA_stim.csv,READVersionA.csv,"Read Version A","Dissertation, read only version A",WAGE,MONEY,Study1,F,8,12,Test,User,-,,Recall,Recall1,3084,war,0,1353,2154,0,0,,1
5e8209ae9c77a701e51fd83b,tn26frwp0f,Nick_Dissertation_EX1,1,107,2020-06-02T09:15:28-07:00,6.7707750797272,1,versionA_stim.csv,READVersionA.csv,"Read Version A","Dissertation, read only version A",ARTERY,BRONZE,Study1,U,74,62,Test,User,-,,Recall,Recall1,6455,vein,20,4840,5926,0,0,,1
5e8209ae9c77a701e51fd83b,tn26frwp0f,Nick_Dissertation_EX1,1,108,2020-06-02T09:15:34-07:00,6.388111114502,1,versionA_stim.csv,READVersionA.csv,"Read Version A","Dissertation, read only version A",FIX,HAND,Study1,U,75,47,Test,User,-,,Recall,Recall1,6092,screw,0,4803,5734,0,0,,1
5e8209ae9c77a701e51fd83b,tn26frwp0f,Nick_Dissertation_EX1,1,109,2020-06-02T09:15:39-07:00,4.6555550098419,1,versionA_stim.csv,READVersionA.csv,"Read Version A","Dissertation, read only version A",BABY,CHILD,Study1,S,64,11,Test,User,-,,Recall,Recall1,3932,showet,18.181818181818,1574,3545,0,0,,1
5e8209ae9c77a701e51fd83b,tn26frwp0f,Nick_Dissertation_EX1,1,110,2020-06-02T09:15:45-07:00,6.5559678077698,1,versionA_stim.csv,READVersionA.csv,"Read Version A","Dissertation, read only version A",PLANE,PILOT,Study1,B,44,24,Test,User,-,,Recall,Recall1,6241,fly,25,5120,5962,0,0,,1
5e8209ae9c77a701e51fd83b,tn26frwp0f,Nick_Dissertation_EX1,1,111,2020-06-02T09:15:49-07:00,4.136528968811,1,versionA_stim.csv,READVersionA.csv,"Read Version A","Dissertation, read only version A",HUNGER,FAMINE,Study1,B,40,43,Test,User,-,,Recall,Recall1,3774,eat,22.222222222222,2662,3176,0,0,,1
5e8209ae9c77a701e51fd83b,tn26frwp0f,Nick_Dissertation_EX1,1,112,2020-06-02T09:15:54-07:00,4.6256639957428,1,versionA_stim.csv,READVersionA.csv,"Read Version A","Dissertation, read only version A",BITTER,COLD,Study1,F,12,19,Test,User,-,,Recall,Recall1,4305,sour,25,2768,3961,0,0,,1
5e8209ae9c77a701e51fd83b,tn26frwp0f,Nick_Dissertation_EX1,1,113,2020-06-02T09:16:01-07:00,6.5662171840668,1,versionA_stim.csv,READVersionA.csv,"Read Version A","Dissertation, read only version A",VALLEY,ADD,Study1,U,82,82,Test,User,-,,Recall,Recall1,6267,hill,0,4928,5692,0,0,,1
5e8209ae9c77a701e51fd83b,tn26frwp0f,Nick_Dissertation_EX1,1,114,2020-06-02T09:16:05-07:00,4.352874994278,1,versionA_stim.csv,READVersionA.csv,"Read Version A","Dissertation, read only version A",KEY,LATCH,Study1,B,36,72,Test,User,-,,Recall,Recall1,4044,lock,44.444444444444,2761,3769,0,0,,1
5e8209ae9c77a701e51fd83b,tn26frwp0f,Nick_Dissertation_EX1,1,115,2020-06-02T09:16:11-07:00,6.0804159641266,1,versionA_stim.csv,READVersionA.csv,"Read Version A","Dissertation, read only version A",POP,SODA,Study1,S,56,74,Test,User,-,,Recall,Recall1,5779,snap,50,4123,5462,0,0,,1
5e8209ae9c77a701e51fd83b,tn26frwp0f,Nick_Dissertation_EX1,1,116,2020-06-02T09:16:15-07:00,4.145271062851,1,versionA_stim.csv,READVersionA.csv,"Read Version A","Dissertation, read only version A",BUG,WASP,Study1,B,32,68,Test,User,-,,Recall,Recall1,3843,wasp,100,2157,3268,1,1,,1
5e8209ae9c77a701e51fd83b,tn26frwp0f,Nick_Dissertation_EX1,1,117,2020-06-02T09:16:18-07:00,3.1520998477936,1,versionA_stim.csv,READVersionA.csv,"Read Version A","Dissertation, read only version A",DIGESTION,STOMACH,Study1,F,7,55,Test,User,-,,Recall,Recall1,2857,eat,20,2047,2552,0,0,,1
5e8209ae9c77a701e51fd83b,tn26frwp0f,Nick_Dissertation_EX1,1,118,2020-06-02T09:16:22-07:00,3.3734440803528,1,versionA_stim.csv,READVersionA.csv,"Read Version A","Dissertation, read only version A",PAW,DOG,Study1,F,15,41,Test,User,-,,Recall,Recall1,3066,cat,0,1968,2515,0,0,,1
5e8209ae9c77a701e51fd83b,tn26frwp0f,Nick_Dissertation_EX1,1,119,2020-06-02T09:16:32-07:00,9.9744019508362,1,versionA_stim.csv,READVersionA.csv,"Read Version A","Dissertation, read only version A",BLOW,WIND,Study1,S,55,58,Test,User,-,,Recall,Recall1,9648,wish,50,7451,8950,0,0,,1
5e8209ae9c77a701e51fd83b,tn26frwp0f,Nick_Dissertation_EX1,1,120,2020-06-02T09:16:36-07:00,4.3921680450439,1,versionA_stim.csv,READVersionA.csv,"Read Version A","Dissertation, read only version A",HERD,COW,Study1,F,22,85,Test,User,-,,Recall,Recall1,4079,sheep,0,1699,3514,0,0,,1
5e8209ae9c77a701e51fd83b,tn26frwp0f,Nick_Dissertation_EX1,1,121,2020-06-02T09:16:39-07:00,2.8937439918518,1,versionA_stim.csv,READVersionA.csv,"Read Version A","Dissertation, read only version A",TRIAL,JURY,Study1,S,50,77,Test,User,-,,Recall,Recall1,2577,jury,100,1469,2261,1,1,,1
5e8209ae9c77a701e51fd83b,tn26frwp0f,Nick_Dissertation_EX1,1,122,2020-06-02T09:16:48-07:00,9.1288681030273,1,versionA_stim.csv,READVersionA.csv,"Read Version A","Dissertation, read only version A",DELINQUENT,BAD,Study1,F,6,60,Test,User,-,,Recall,Recall1,8820,man,33.333333333333,4025,8180,0,0,,1
5e8209ae9c77a701e51fd83b,tn26frwp0f,Nick_Dissertation_EX1,1,123,2020-06-02T09:16:53-07:00,5.3361389636993,1,versionA_stim.csv,READVersionA.csv,"Read Version A","Dissertation, read only version A",PARK,HUNGRY,Study1,U,68,36,Test,User,-,,Recall,Recall1,4378,play,20,2242,3765,0,0,,1
5e8209ae9c77a701e51fd83b,tn26frwp0f,Nick_Dissertation_EX1,1,124,2020-06-02T09:16:59-07:00,5.5723249912262,1,versionA_stim.csv,READVersionA.csv,"Read Version A","Dissertation, read only version A",LAW,ATTORNEY,Study1,B,34,33,Test,User,-,,Recall,Recall1,5274,abide,30.769230769231,3128,4862,0,0,,1
5e8209ae9c77a701e51fd83b,tn26frwp0f,Nick_Dissertation_EX1,1,125,2020-06-02T09:17:03-07:00,4.055016040802,1,versionA_stim.csv,READVersionA.csv,"Read Version A","Dissertation, read only version A",LOCATION,SITE,Study1,S,48,48,Test,User,-,,Recall,Recall1,3734,site,100,2238,3450,1,1,,1
5e8209ae9c77a701e51fd83b,tn26frwp0f,Nick_Dissertation_EX1,1,126,2020-06-02T09:17:15-07:00,11.48842382431,1,versionA_stim.csv,READVersionA.csv,"Read Version A","Dissertation, read only version A",DUMP,WASTE,Study1,S,49,25,Test,User,-,,Recall,Recall1,11098,junk,0,10068,10686,0,0,,1
5e8209ae9c77a701e51fd83b,tn26frwp0f,Nick_Dissertation_EX1,1,127,2020-06-02T09:17:19-07:00,4.3746480941772,1,versionA_stim.csv,READVersionA.csv,"Read Version A","Dissertation, read only version A",EDITOR,NEWS,Study1,F,10,61,Test,User,-,,Recall,Recall1,4034,news,100,1705,3654,1,1,,1
5e8209ae9c77a701e51fd83b,tn26frwp0f,Nick_Dissertation_EX1,1,128,2020-06-02T09:17:23-07:00,3.6374180316925,1,versionA_stim.csv,READVersionA.csv,"Read Version A","Dissertation, read only version A",SWAN,BIRD,Study1,F,14,75,Test,User,-,,Recall,Recall1,3324,lake,0,1444,2928,0,0,,1
5e8209ae9c77a701e51fd83b,tn26frwp0f,Nick_Dissertation_EX1,1,129,2020-06-02T09:17:27-07:00,4.8898868560791,1,versionA_stim.csv,READVersionA.csv,"Read Version A","Dissertation, read only version A",BATHROOM,TOILET,Study1,S,58,63,Test,User,-,,Recall,Recall1,4546,tap,22.222222222222,3395,4238,0,0,,1
5e8209ae9c77a701e51fd83b,tn26frwp0f,Nick_Dissertation_EX1,1,130,2020-06-02T09:17:35-07:00,7.5768570899963,1,versionA_stim.csv,READVersionA.csv,"Read Version A","Dissertation, read only version A",PUSHER,CLUTTER,Study1,U,66,31,Test,User,-,,Recall,Recall1,7255,press,16.666666666667,5915,6920,0,0,,1
5e8209ae9c77a701e51fd83b,tn26frwp0f,Nick_Dissertation_EX1,1,131,2020-06-02T09:17:44-07:00,8.7941370010376,1,versionA_stim.csv,READVersionA.csv,"Read Version A","Dissertation, read only version A",DISCOVER,FLOOR,Study1,U,71,44,Test,User,-,,Recall,Recall1,8467,find,22.222222222222,6342,7783,0,0,,1
5e8209ae9c77a701e51fd83b,tn26frwp0f,Nick_Dissertation_EX1,1,132,2020-06-02T09:17:49-07:00,4.9686949253082,1,versionA_stim.csv,READVersionA.csv,"Read Version A","Dissertation, read only version A",PAST,FUTURE,Study1,S,61,53,Test,User,-,,Recall,Recall1,4649,future,100,2185,4186,1,1,,1
5e8209ae9c77a701e51fd83b,tn26frwp0f,Nick_Dissertation_EX1,1,133,2020-06-02T09:17:54-07:00,5.2547459602356,1,versionA_stim.csv,READVersionA.csv,"Read Version A","Dissertation, read only version A",DEATH,BUSINESS,Study1,U,72,17,Test,User,-,,Recall,Recall1,4873,life,33.333333333333,3583,4418,0,0,,1
5e8209ae9c77a701e51fd83b,tn26frwp0f,Nick_Dissertation_EX1,1,134,2020-06-02T09:18:00-07:00,5.9973220825195,1,versionA_stim.csv,READVersionA.csv,"Read Version A","Dissertation, read only version A",SUGAR,RIDDLE,Study1,U,81,80,Test,User,-,,Recall,Recall1,5273,honey,18.181818181818,3261,4802,0,0,,1
5e8209ae9c77a701e51fd83b,tn26frwp0f,Nick_Dissertation_EX1,1,135,2020-06-02T09:18:06-07:00,6.2391970157623,1,versionA_stim.csv,READVersionA.csv,"Read Version A","Dissertation, read only version A",SMELL,STENCH,Study1,B,42,52,Test,User,-,,Recall,Recall1,5938,scent,54.545454545455,4291,5572,0,0,,1
5e8209ae9c77a701e51fd83b,tn26frwp0f,Nick_Dissertation_EX1,1,136,2020-06-02T09:18:13-07:00,6.2941029071808,1,versionA_stim.csv,READVersionA.csv,"Read Version A","Dissertation, read only version A",BALL,RACKET,Study1,B,38,20,Test,User,-,,Recall,Recall1,5992,kick,40,4335,5319,0,0,,1
5e8209ae9c77a701e51fd83b,tn26frwp0f,Nick_Dissertation_EX1,1,137,2020-06-02T09:18:18-07:00,5.7584311962128,1,versionA_stim.csv,READVersionA.csv,"Read Version A","Dissertation, read only version A",KIDNEY,LIVER,Study1,S,53,13,Test,User,-,,Recall,Recall1,5445,stone,20,2888,4934,0,0,,1
5e8209ae9c77a701e51fd83b,tn26frwp0f,Nick_Dissertation_EX1,1,138,2020-06-02T09:18:25-07:00,6.2682127952576,1,versionA_stim.csv,READVersionA.csv,"Read Version A","Dissertation, read only version A",ORCHID,FLOWER,Study1,F,24,39,Test,User,-,,Recall,Recall1,5961,flowers,92.307692307692,3595,5604,0,1,,1
5e8209ae9c77a701e51fd83b,tn26frwp0f,Nick_Dissertation_EX1,1,139,2020-06-02T09:18:34-07:00,9.0410521030426,1,versionA_stim.csv,READVersionA.csv,"Read Version A","Dissertation, read only version A",HYGIENE,CLEAN,Study1,F,17,21,Test,User,-,,Recall,Recall1,8718,tidy,0,5403,8188,0,0,,1
5e8209ae9c77a701e51fd83b,tn26frwp0f,Nick_Dissertation_EX1,1,140,2020-06-02T09:18:38-07:00,3.8409230709076,1,versionA_stim.csv,READVersionA.csv,"Read Version A","Dissertation, read only version A",TUNA,FISH,Study1,F,25,32,Test,User,-,,Recall,Recall1,3505,fish,100,1332,2833,1,1,,1
5e8209ae9c77a701e51fd83b,tn26frwp0f,Nick_Dissertation_EX1,1,141,2020-06-02T09:18:43-07:00,5.2201750278473,1,versionA_stim.csv,READVersionA.csv,"Read Version A","Dissertation, read only version A",DIETARY,SACKING,Study1,U,67,56,Test,User,-,,Recall,Recall1,4921,health,15.384615384615,2641,4634,0,0,,1
5e8209ae9c77a701e51fd83b,tn26frwp0f,Nick_Dissertation_EX1,1,142,2020-06-02T09:18:47-07:00,3.9299259185791,1,versionA_stim.csv,READVersionA.csv,"Read Version A","Dissertation, read only version A",BEGIN,END,Study1,S,54,51,Test,User,-,,Recall,Recall1,3612,end,100,2257,3238,1,1,,1
5e8209ae9c77a701e51fd83b,tn26frwp0f,Nick_Dissertation_EX1,1,143,2020-06-02T09:18:53-07:00,6.6917140483856,1,versionA_stim.csv,READVersionA.csv,"Read Version A","Dissertation, read only version A",MATH,DIVISION,Study1,B,33,76,Test,User,-,,Recall,Recall1,6269,numbers,13.333333333333,3296,5587,0,0,,1
5e8209ae9c77a701e51fd83b,tn26frwp0f,Nick_Dissertation_EX1,1,144,2020-06-02T09:18:57-07:00,3.7882609367371,1,versionA_stim.csv,READVersionA.csv,"Read Version A","Dissertation, read only version A",ARCHITECTURE,DESIGN,Study1,S,51,10,Test,User,-,,Recall,Recall1,3471,design,100,1287,2947,1,1,,1
5e8209ae9c77a701e51fd83b,tn26frwp0f,Nick_Dissertation_EX1,1,145,2020-06-02T09:19:01-07:00,4.0037031173706,1,versionA_stim.csv,READVersionA.csv,"Read Version A","Dissertation, read only version A",SOON,BELT,Study1,U,70,49,Test,User,-,,Recall,Recall1,3691,now,0,2111,3085,0,0,,1
5e8209ae9c77a701e51fd83b,tn26frwp0f,Nick_Dissertation_EX1,1,146,2020-06-02T09:19:06-07:00,4.6155469417572,1,versionA_stim.csv,READVersionA.csv,"Read Version A","Dissertation, read only version A",DISCUSSION,TALK,Study1,F,21,78,Test,User,-,,Recall,Recall1,4306,talk,100,3024,4111,1,1,,1
5e8209ae9c77a701e51fd83b,tn26frwp0f,Nick_Dissertation_EX1,1,147,2020-06-02T09:19:09-07:00,3.0014250278473,1,versionA_stim.csv,READVersionA.csv,"Read Version A","Dissertation, read only version A",HONEY,BEE,Study1,S,63,83,Test,User,-,,Recall,Recall1,2699,bee,100,1749,2253,1,1,,1
5e8209ae9c77a701e51fd83b,tn26frwp0f,Nick_Dissertation_EX1,1,148,2020-06-02T09:19:20-07:00,11.642727851868,1,versionA_stim.csv,READVersionA.csv,"Read Version A","Dissertation, read only version A",ALLOW,TUCK,Study1,U,78,15,Test,User,-,,Recall,Recall1,11241,take,50,9738,10922,0,0,,1
5e8209ae9c77a701e51fd83b,tn26frwp0f,Nick_Dissertation_EX1,1,149,2020-06-02T09:19:26-07:00,5.1217880249023,1,versionA_stim.csv,READVersionA.csv,"Read Version A","Dissertation, read only version A",FIRE,BLAZE,Study1,B,45,28,Test,User,-,,Recall,Recall1,4815,wood,0,1966,4409,0,0,,1
5e8209ae9c77a701e51fd83b,tn26frwp0f,Nick_Dissertation_EX1,1,150,2020-06-02T09:19:32-07:00,6.044853925705,1,versionA_stim.csv,READVersionA.csv,"Read Version A","Dissertation, read only version A",SLEEP,DROWSY,Study1,B,41,59,Test,User,-,,Recall,Recall1,4731,pillow,33.333333333333,2761,4090,0,0,,1
5e8209ae9c77a701e51fd83b,tn26frwp0f,Nick_Dissertation_EX1,1,151,2020-06-02T09:19:35-07:00,3.1846752166748,1,versionA_stim.csv,READVersionA.csv,"Read Version A","Dissertation, read only version A",CREDIT,CARD,Study1,F,23,29,Test,User,-,,Recall,Recall1,2791,card,100,1129,2174,1,1,,1
5e8209ae9c77a701e51fd83b,tn26frwp0f,Nick_Dissertation_EX1,1,152,2020-06-02T09:19:39-07:00,3.8027520179749,1,versionA_stim.csv,READVersionA.csv,"Read Version A","Dissertation, read only version A",CLOTHES,ATTIRE,Study1,B,43,45,Test,User,-,,Recall,Recall1,3495,attire,100,1255,3153,1,1,,1
5e8209ae9c77a701e51fd83b,tn26frwp0f,Nick_Dissertation_EX1,1,153,2020-06-02T09:19:44-07:00,5.8782408237457,1,versionA_stim.csv,READVersionA.csv,"Read Version A","Dissertation, read only version A",FULL,ENOUGH,Study1,B,26,81,Test,User,-,,Recall,Recall1,5544,empty,18.181818181818,2987,5222,0,0,,1
5e8209ae9c77a701e51fd83b,tn26frwp0f,Nick_Dissertation_EX1,1,154,2020-06-02T09:19:57-07:00,12.146500110626,1,versionA_stim.csv,READVersionA.csv,"Read Version A","Dissertation, read only version A",SENTENCE,WORD,Study1,B,31,27,Test,User,-,,Recall,Recall1,11101,title,0,8950,10747,0,0,,1
5e8209ae9c77a701e51fd83b,tn26frwp0f,Nick_Dissertation_EX1,1,155,2020-06-02T09:20:01-07:00,4.5036070346832,1,versionA_stim.csv,READVersionA.csv,"Read Version A","Dissertation, read only version A",TAKE,SEIZE,Study1,B,29,22,Test,User,-,,Recall,Recall1,4193,give,44.444444444444,2909,3879,0,0,,1
5e8209ae9c77a701e51fd83b,tn26frwp0f,Nick_Dissertation_EX1,1,156,2020-06-02T09:20:04-07:00,3.2221038341522,1,versionA_stim.csv,READVersionA.csv,"Read Version A","Dissertation, read only version A",DRINK,SIP,Study1,B,27,73,Test,User,-,,Recall,Recall1,2898,water,0,1617,2609,0,0,,1
5e8209ae9c77a701e51fd83b,tn26frwp0f,Nick_Dissertation_EX1,1,157,2020-06-02T09:20:11-07:00,6.2259089946747,1,versionA_stim.csv,READVersionA.csv,"Read Version A","Dissertation, read only version A",GRILL,BAR,Study1,S,52,65,Test,User,-,,Recall,Recall1,5897,oven,0,4417,5514,0,0,,1
5e8209ae9c77a701e51fd83b,tn26frwp0f,Nick_Dissertation_EX1,1,158,2020-06-02T09:20:18-07:00,7.9307541847229,1,versionA_stim.csv,READVersionA.csv,"Read Version A","Dissertation, read only version A",LIFT,WOMAN,Study1,U,69,67,Test,User,-,,Recall,Recall1,7605,pull,0,6595,7342,0,0,,1
5e8209ae9c77a701e51fd83b,tn26frwp0f,Nick_Dissertation_EX1,1,159,2020-06-02T09:20:24-07:00,5.264631986618,1,versionA_stim.csv,READVersionA.csv,"Read Version A","Dissertation, read only version A",HORNET,STING,Study1,F,11,64,Test,User,-,,Recall,Recall1,4935,catch,20,3118,4620,0,0,,1
5e8209ae9c77a701e51fd83b,tn26frwp0f,Nick_Dissertation_EX1,1,160,2020-06-02T09:20:27-07:00,2.922178030014,1,versionA_stim.csv,READVersionA.csv,"Read Version A","Dissertation, read only version A",WAY,OUT,Study1,F,16,42,Test,User,-,,Recall,Recall1,2600,out,100,1791,2338,1,1,,1
5e8209ae9c77a701e51fd83b,tn26frwp0f,Nick_Dissertation_EX1,1,161,2020-06-02T09:20:35-07:00,8.027156829834,1,versionA_stim.csv,READVersionA.csv,"Read Version A","Dissertation, read only version A",GREAT,FANTASTIC,Study1,B,35,35,Test,User,-,,Recall,Recall1,7699,free,15.384615384615,6786,7364,0,0,,1
5e8209ae9c77a701e51fd83b,tn26frwp0f,Nick_Dissertation_EX1,1,162,2020-06-02T09:20:39-07:00,3.9795441627502,1,versionA_stim.csv,READVersionA.csv,"Read Version A","Dissertation, read only version A",CASH,WOULD,Study1,U,83,26,Test,User,-,,Recall,Recall1,3667,king,0,2269,3027,0,0,,1
5e8209ae9c77a701e51fd83b,tn26frwp0f,Nick_Dissertation_EX1,1,163,2020-06-02T09:20:44-07:00,5.70973777771,1,versionA_stim.csv,READVersionA.csv,"Read Version A","Dissertation, read only version A",MEANING,DEFINITION,Study1,S,62,40,Test,User,-,,Recall,Recall1,5408,memory,25,3554,5305,0,0,,1
5e8209ae9c77a701e51fd83b,tn26frwp0f,Nick_Dissertation_EX1,1,164,2020-06-02T09:20:47-07:00,2.9963150024414,1,versionA_stim.csv,READVersionA.csv,"Read Version A","Dissertation, read only version A",ROOT,PLANT,Study1,F,13,86,Test,User,-,,Recall,Recall1,2679,evil,22.222222222222,1558,2428,0,0,,1
5e8209ae9c77a701e51fd83b,tn26frwp0f,Nick_Dissertation_EX1,1,165,2020-06-02T09:21:00-07:00,12.956493139267,1,versionA_stim.csv,READVersionA.csv,"Read Version A","Dissertation, read only version A",BRIDGE,WATER,Study1,F,18,54,Test,User,-,,Recall,Recall1,12478,boat,44.444444444444,11180,11994,0,0,,1
5e8209ae9c77a701e51fd83b,tn26frwp0f,Nick_Dissertation_EX1,1,166,2020-06-02T09:21:03-07:00,3.0649020671844,1,versionA_stim.csv,READVersionA.csv,"Read Version A","Dissertation, read only version A",HOT,CHILI,Study1,B,37,69,Test,User,-,,Recall,Recall1,2752,cold,44.444444444444,1978,2610,0,0,,1
5e8209ae9c77a701e51fd83b,tn26frwp0f,Nick_Dissertation_EX1,1,167,2020-06-02T09:21:08-07:00,4.8427147865295,1,versionA_stim.csv,READVersionA.csv,"Read Version A","Dissertation, read only version A",WINE,CHEESE,Study1,S,57,84,Test,User,-,,Recall,Recall1,4518,grapes,33.333333333333,2867,4356,0,0,,1
5e8209ae9c77a701e51fd83b,tn26frwp0f,Nick_Dissertation_EX1,1,168,2020-06-02T09:21:14-07:00,5.5084080696106,1,versionA_stim.csv,READVersionA.csv,"Read Version A","Dissertation, read only version A",STRONG,ACCIDENT,Study1,U,80,50,Test,User,-,,Recall,Recall1,5202,fit,36.363636363636,4663,5045,0,0,,1
5e8209ae9c77a701e51fd83b,tn26frwp0f,Nick_Dissertation_EX1,1,169,2020-06-02T09:21:17-07:00,3.4077751636505,1,versionA_stim.csv,READVersionA.csv,"Read Version A","Dissertation, read only version A",CIRCLE,ROUND,Study1,S,65,57,Test,User,-,,Recall,Recall1,3090,round,100,1534,2912,1,1,,1
5e8209ae9c77a701e51fd83b,tn26frwp0f,Nick_Dissertation_EX1,1,170,2020-06-02T09:21:22-07:00,5.1015329360962,1,versionA_stim.csv,READVersionA.csv,"Read Version A","Dissertation, read only version A",DARK,CAVE,Study1,B,28,37,Test,User,-,,Recall,Recall1,4779,light,0,3610,4601,0,0,,1
5e8209ae9c77a701e51fd83b,tn26frwp0f,Nick_Dissertation_EX1,1,171,2020-06-02T09:21:26-07:00,3.4852669239044,1,versionA_stim.csv,READVersionA.csv,"Read Version A","Dissertation, read only version A",CHISEL,HAMMER,Study1,F,9,66,Test,User,-,,Recall,Recall1,3158,hammer,100,1601,2867,1,1,,1
5e8209ae9c77a701e51fd83b,tn26frwp0f,Nick_Dissertation_EX1,1,172,2020-06-02T09:21:29-07:00,3.7477850914001,1,versionA_stim.csv,READVersionA.csv,"Read Version A","Dissertation, read only version A",DEBATE,SIGHT,Study1,U,73,7,Test,User,-,,Recall,Recall1,3435,argue,20,1941,3253,0,0,,1
5e8209ae9c77a701e51fd83b,tn26frwp0f,Nick_Dissertation_EX1,1,173,2020-06-02T09:21:37-07:00,7.4674608707428,1,versionA_stim.csv,READVersionA.csv,"Read Version A","Dissertation, read only version A",ART,LION,Study1,U,79,14,Test,User,-,,Recall,Recall1,7140,gallery,18.181818181818,5718,6984,0,0,,1
5e8209ae9c77a701e51fd83b,tn26frwp0f,Nick_Dissertation_EX1,1,174,2020-06-02T09:21:42-07:00,4.8421890735626,1,versionA_stim.csv,READVersionA.csv,"Read Version A","Dissertation, read only version A",HEIGHT,GROWTH,Study1,B,30,71,Test,User,-,,Recall,Recall1,4534,weight,33.333333333333,3188,4283,0,0,,1
5e8209ae9c77a701e51fd83b,tn26frwp0f,Nick_Dissertation_EX1,1,175,2020-06-02T09:21:54-07:00,12.704483985901,1,versionA_stim.csv,READVersionA.csv,"Read Version A","Dissertation, read only version A",,,,,,0,Instruct,-,10,"You will now be presented with a new set of word pairs. Please study each pair. Remember that your memory will be tested! When finished, press Enter to move to the next pair.",Initial_Instruct,Instruct4,12293,,,-1,-1,,,,1
5e8209ae9c77a701e51fd83b,tn26frwp0f,Nick_Dissertation_EX1,1,176,2020-06-02T09:22:00-07:00,5.0156810283661,1,versionA_stim.csv,READVersionA.csv,"Read Version A","Dissertation, read only version A",CARROT,POTATO,BUFFER3,Buffer,91,96,Study,User,-,,Study/JOL,BUFFER3,4707,,,-1,-1,,,,1
5e8209ae9c77a701e51fd83b,tn26frwp0f,Nick_Dissertation_EX1,1,177,2020-06-02T09:22:01-07:00,1.3396639823914,1,versionA_stim.csv,READVersionA.csv,"Read Version A","Dissertation, read only version A",ICE,FROZEN,BUFFER3,Buffer,94,92,Study,User,-,,Study/JOL,BUFFER3,1020,,,-1,-1,,,,1
5e8209ae9c77a701e51fd83b,tn26frwp0f,Nick_Dissertation_EX1,1,178,2020-06-02T09:22:02-07:00,1.1447808742523,1,versionA_stim.csv,READVersionA.csv,"Read Version A","Dissertation, read only version A",SHRIMP,FISH,BUFFER3,Buffer,93,93,Study,User,-,,Study/JOL,BUFFER3,816,,,-1,-1,,,,1
5e8209ae9c77a701e51fd83b,tn26frwp0f,Nick_Dissertation_EX1,1,179,2020-06-02T09:22:05-07:00,2.6764531135559,1,versionA_stim.csv,READVersionA.csv,"Read Version A","Dissertation, read only version A",CAMP,ADVENTURE,BUFFER3,Buffer,95,95,Study,User,-,,Study/JOL,BUFFER3,2355,,,-1,-1,,,,1
5e8209ae9c77a701e51fd83b,tn26frwp0f,Nick_Dissertation_EX1,1,180,2020-06-02T09:22:06-07:00,1.4608469009399,1,versionA_stim.csv,READVersionA.csv,"Read Version A","Dissertation, read only version A",NOODLE,STRING,BUFFER3,Buffer,92,94,Study,User,-,,Study/JOL,BUFFER3,830,,,-1,-1,,,,1
5e8209ae9c77a701e51fd83b,tn26frwp0f,Nick_Dissertation_EX1,1,181,2020-06-02T09:22:07-07:00,1.2777512073517,1,versionA_stim.csv,READVersionA.csv,"Read Version A","Dissertation, read only version A",STRETCH,CLOTH,Study2,U,157,104,Study,User,-,,Study/JOL,"Study Phase2",960,,,-1,-1,,,,1
5e8209ae9c77a701e51fd83b,tn26frwp0f,Nick_Dissertation_EX1,1,182,2020-06-02T09:22:09-07:00,1.270231962204,1,versionA_stim.csv,READVersionA.csv,"Read Version A","Dissertation, read only version A",DRY,WET,Study2,S,146,135,Study,User,-,,Study/JOL,"Study Phase2",945,,,-1,-1,,,,1
5e8209ae9c77a701e51fd83b,tn26frwp0f,Nick_Dissertation_EX1,1,183,2020-06-02T09:22:10-07:00,1.0588159561157,1,versionA_stim.csv,READVersionA.csv,"Read Version A","Dissertation, read only version A",CAR,WINDSHIELD,Study2,B,117,132,Study,User,-,,Study/JOL,"Study Phase2",736,,,-1,-1,,,,1
5e8209ae9c77a701e51fd83b,tn26frwp0f,Nick_Dissertation_EX1,1,184,2020-06-02T09:22:11-07:00,0.93579792976379,1,versionA_stim.csv,READVersionA.csv,"Read Version A","Dissertation, read only version A",RAZOR,SHAVE,Study2,S,136,157,Study,User,-,,Study/JOL,"Study Phase2",619,,,-1,-1,,,,1
5e8209ae9c77a701e51fd83b,tn26frwp0f,Nick_Dissertation_EX1,1,185,2020-06-02T09:22:12-07:00,0.95991897583008,1,versionA_stim.csv,READVersionA.csv,"Read Version A","Dissertation, read only version A",CLUE,GAME,Study2,F,97,97,Study,User,-,,Study/JOL,"Study Phase2",620,,,-1,-1,,,,1
5e8209ae9c77a701e51fd83b,tn26frwp0f,Nick_Dissertation_EX1,1,186,2020-06-02T09:22:12-07:00,0.85997414588928,1,versionA_stim.csv,READVersionA.csv,"Read Version A","Dissertation, read only version A",CRACKLE,ABLE,Study2,U,162,155,Study,User,-,,Study/JOL,"Study Phase2",540,,,-1,-1,,,,1
5e8209ae9c77a701e51fd83b,tn26frwp0f,Nick_Dissertation_EX1,1,187,2020-06-02T09:22:13-07:00,0.99161601066589,1,versionA_stim.csv,READVersionA.csv,"Read Version A","Dissertation, read only version A",BASEBALL,LEAGUE,Study2,B,131,148,Study,User,-,,Study/JOL,"Study Phase2",675,,,-1,-1,,,,1
5e8209ae9c77a701e51fd83b,tn26frwp0f,Nick_Dissertation_EX1,1,188,2020-06-02T09:22:15-07:00,1.1182188987732,1,versionA_stim.csv,READVersionA.csv,"Read Version A","Dissertation, read only version A",EVEN,REVENGE,Study2,B,122,116,Study,User,-,,Study/JOL,"Study Phase2",791,,,-1,-1,,,,1
5e8209ae9c77a701e51fd83b,tn26frwp0f,Nick_Dissertation_EX1,1,189,2020-06-02T09:22:16-07:00,1.2724521160126,1,versionA_stim.csv,READVersionA.csv,"Read Version A","Dissertation, read only version A",TURN,FLIP,Study2,B,116,164,Study,User,-,,Study/JOL,"Study Phase2",951,,,-1,-1,,,,1
5e8209ae9c77a701e51fd83b,tn26frwp0f,Nick_Dissertation_EX1,1,190,2020-06-02T09:22:17-07:00,1.0509560108185,1,versionA_stim.csv,READVersionA.csv,"Read Version A","Dissertation, read only version A",TANTRUM,TEMPER,Study2,S,154,115,Study,User,-,,Study/JOL,"Study Phase2",742,,,-1,-1,,,,1
5e8209ae9c77a701e51fd83b,tn26frwp0f,Nick_Dissertation_EX1,1,191,2020-06-02T09:22:18-07:00,1.2843458652496,1,versionA_stim.csv,READVersionA.csv,"Read Version A","Dissertation, read only version A",THREAD,THIMBLE,Study2,B,121,166,Study,User,-,,Study/JOL,"Study Phase2",966,,,-1,-1,,,,1
5e8209ae9c77a701e51fd83b,tn26frwp0f,Nick_Dissertation_EX1,1,192,2020-06-02T09:22:19-07:00,1.1961140632629,1,versionA_stim.csv,READVersionA.csv,"Read Version A","Dissertation, read only version A",WATER,DRINK,Study2,S,143,102,Study,User,-,,Study/JOL,"Study Phase2",878,,,-1,-1,,,,1
5e8209ae9c77a701e51fd83b,tn26frwp0f,Nick_Dissertation_EX1,1,193,2020-06-02T09:22:21-07:00,1.3606328964233,1,versionA_stim.csv,READVersionA.csv,"Read Version A","Dissertation, read only version A",POP,BALLOON,Study2,B,123,175,Study,User,-,,Study/JOL,"Study Phase2",1039,,,-1,-1,,,,1
5e8209ae9c77a701e51fd83b,tn26frwp0f,Nick_Dissertation_EX1,1,194,2020-06-02T09:22:22-07:00,1.2066030502319,1,versionA_stim.csv,READVersionA.csv,"Read Version A","Dissertation, read only version A",MEAT,OBTAIN,Study2,U,161,136,Study,User,-,,Study/JOL,"Study Phase2",882,,,-1,-1,,,,1
5e8209ae9c77a701e51fd83b,tn26frwp0f,Nick_Dissertation_EX1,1,195,2020-06-02T09:22:24-07:00,2.0791261196136,1,versionA_stim.csv,READVersionA.csv,"Read Version A","Dissertation, read only version A",MOAT,CLEAR,Study2,U,169,120,Study,User,-,,Study/JOL,"Study Phase2",1753,,,-1,-1,,,,1
5e8209ae9c77a701e51fd83b,tn26frwp0f,Nick_Dissertation_EX1,1,196,2020-06-02T09:22:25-07:00,1.4316318035126,1,versionA_stim.csv,READVersionA.csv,"Read Version A","Dissertation, read only version A",RIGHTS,EQUAL,Study2,S,137,159,Study,User,-,,Study/JOL,"Study Phase2",1114,,,-1,-1,,,,1
5e8209ae9c77a701e51fd83b,tn26frwp0f,Nick_Dissertation_EX1,1,197,2020-06-02T09:22:27-07:00,1.4972741603851,1,versionA_stim.csv,READVersionA.csv,"Read Version A","Dissertation, read only version A",DINE,EAT,Study2,F,111,146,Study,User,-,,Study/JOL,"Study Phase2",1182,,,-1,-1,,,,1
5e8209ae9c77a701e51fd83b,tn26frwp0f,Nick_Dissertation_EX1,1,198,2020-06-02T09:22:28-07:00,1.1406779289246,1,versionA_stim.csv,READVersionA.csv,"Read Version A","Dissertation, read only version A",FLEA,TICK,Study2,S,151,156,Study,User,-,,Study/JOL,"Study Phase2",821,,,-1,-1,,,,1
5e8209ae9c77a701e51fd83b,tn26frwp0f,Nick_Dissertation_EX1,1,199,2020-06-02T09:22:30-07:00,2.0896000862122,1,versionA_stim.csv,READVersionA.csv,"Read Version A","Dissertation, read only version A",JUSTICE,MAROON,Study2,U,156,141,Study,User,-,,Study/JOL,"Study Phase2",1771,,,-1,-1,,,,1
5e8209ae9c77a701e51fd83b,tn26frwp0f,Nick_Dissertation_EX1,1,200,2020-06-02T09:22:32-07:00,1.523099899292,1,versionA_stim.csv,READVersionA.csv,"Read Version A","Dissertation, read only version A",FRUIT,STRAWBERRY,Study2,B,124,126,Study,User,-,,Study/JOL,"Study Phase2",1201,,,-1,-1,,,,1
5e8209ae9c77a701e51fd83b,tn26frwp0f,Nick_Dissertation_EX1,1,201,2020-06-02T09:22:33-07:00,1.6612949371338,1,versionA_stim.csv,READVersionA.csv,"Read Version A","Dissertation, read only version A",PLANE,AIRCRAFT,Study2,B,129,165,Study,User,-,,Study/JOL,"Study Phase2",1328,,,-1,-1,,,,1
5e8209ae9c77a701e51fd83b,tn26frwp0f,Nick_Dissertation_EX1,1,202,2020-06-02T09:22:36-07:00,2.4027750492096,1,versionA_stim.csv,READVersionA.csv,"Read Version A","Dissertation, read only version A",WRIST,BRACELET,Study2,S,140,162,Study,User,-,,Study/JOL,"Study Phase2",1062,,,-1,-1,,,,1
5e8209ae9c77a701e51fd83b,tn26frwp0f,Nick_Dissertation_EX1,1,203,2020-06-02T09:22:37-07:00,1.6306149959564,1,versionA_stim.csv,READVersionA.csv,"Read Version A","Dissertation, read only version A",LOUD,NOISE,Study2,S,152,139,Study,User,-,,Study/JOL,"Study Phase2",1306,,,-1,-1,,,,1
5e8209ae9c77a701e51fd83b,tn26frwp0f,Nick_Dissertation_EX1,1,204,2020-06-02T09:22:39-07:00,1.5062210559845,1,versionA_stim.csv,READVersionA.csv,"Read Version A","Dissertation, read only version A",BAD,VILLAIN,Study2,B,118,100,Study,User,-,,Study/JOL,"Study Phase2",1187,,,-1,-1,,,,1
5e8209ae9c77a701e51fd83b,tn26frwp0f,Nick_Dissertation_EX1,1,205,2020-06-02T09:22:41-07:00,1.7986669540405,1,versionA_stim.csv,READVersionA.csv,"Read Version A","Dissertation, read only version A",TRUTH,LIE,Study2,S,148,123,Study,User,-,,Study/JOL,"Study Phase2",1485,,,-1,-1,,,,1
5e8209ae9c77a701e51fd83b,tn26frwp0f,Nick_Dissertation_EX1,1,206,2020-06-02T09:22:42-07:00,1.3164570331573,1,versionA_stim.csv,READVersionA.csv,"Read Version A","Dissertation, read only version A",AFFECTION,LOVE,Study2,F,115,124,Study,User,-,,Study/JOL,"Study Phase2",1000,,,-1,-1,,,,1
5e8209ae9c77a701e51fd83b,tn26frwp0f,Nick_Dissertation_EX1,1,207,2020-06-02T09:22:44-07:00,1.778892993927,1,versionA_stim.csv,READVersionA.csv,"Read Version A","Dissertation, read only version A",ALONE,LONELY,Study2,S,145,98,Study,User,-,,Study/JOL,"Study Phase2",1451,,,-1,-1,,,,1
5e8209ae9c77a701e51fd83b,tn26frwp0f,Nick_Dissertation_EX1,1,208,2020-06-02T09:22:45-07:00,1.6499309539795,1,versionA_stim.csv,READVersionA.csv,"Read Version A","Dissertation, read only version A",DRIVER,CAR,Study2,F,106,129,Study,User,-,,Study/JOL,"Study Phase2",1291,,,-1,-1,,,,1
5e8209ae9c77a701e51fd83b,tn26frwp0f,Nick_Dissertation_EX1,1,209,2020-06-02T09:22:47-07:00,1.7309601306915,1,versionA_stim.csv,READVersionA.csv,"Read Version A","Dissertation, read only version A",GONE,AWAY,Study2,S,142,119,Study,User,-,,Study/JOL,"Study Phase2",1329,,,-1,-1,,,,1
5e8209ae9c77a701e51fd83b,tn26frwp0f,Nick_Dissertation_EX1,1,210,2020-06-02T09:22:50-07:00,2.2913489341736,1,versionA_stim.csv,READVersionA.csv,"Read Version A","Dissertation, read only version A",CHOP,CUT,Study2,F,107,105,Study,User,-,,Study/JOL,"Study Phase2",1411,,,-1,-1,,,,1
5e8209ae9c77a701e51fd83b,tn26frwp0f,Nick_Dissertation_EX1,1,211,2020-06-02T09:22:51-07:00,1.6203150749207,1,versionA_stim.csv,READVersionA.csv,"Read Version A","Dissertation, read only version A",DETECTIVE,MYSTERY,Study2,F,100,111,Study,User,-,,Study/JOL,"Study Phase2",1312,,,-1,-1,,,,1
5e8209ae9c77a701e51fd83b,tn26frwp0f,Nick_Dissertation_EX1,1,212,2020-06-02T09:22:53-07:00,1.6061069965363,1,versionA_stim.csv,READVersionA.csv,"Read Version A","Dissertation, read only version A",CHERRY,RED,Study2,F,104,154,Study,User,-,,Study/JOL,"Study Phase2",1300,,,-1,-1,,,,1
5e8209ae9c77a701e51fd83b,tn26frwp0f,Nick_Dissertation_EX1,1,213,2020-06-02T09:22:54-07:00,1.5094118118286,1,versionA_stim.csv,READVersionA.csv,"Read Version A","Dissertation, read only version A",BEST,FAVORITE,Study2,B,125,125,Study,User,-,,Study/JOL,"Study Phase2",1194,,,-1,-1,,,,1
5e8209ae9c77a701e51fd83b,tn26frwp0f,Nick_Dissertation_EX1,1,214,2020-06-02T09:22:56-07:00,1.7895441055298,1,versionA_stim.csv,READVersionA.csv,"Read Version A","Dissertation, read only version A",BOTH,OUNCE,Study2,U,172,131,Study,User,-,,Study/JOL,"Study Phase2",1475,,,-1,-1,,,,1
5e8209ae9c77a701e51fd83b,tn26frwp0f,Nick_Dissertation_EX1,1,215,2020-06-02T09:22:57-07:00,1.4465570449829,1,versionA_stim.csv,READVersionA.csv,"Read Version A","Dissertation, read only version A",LISTEN,FICTION,Study2,U,164,171,Study,User,-,,Study/JOL,"Study Phase2",1141,,,-1,-1,,,,1
5e8209ae9c77a701e51fd83b,tn26frwp0f,Nick_Dissertation_EX1,1,216,2020-06-02T09:22:59-07:00,1.6348888874054,1,versionA_stim.csv,READVersionA.csv,"Read Version A","Dissertation, read only version A",INCENSE,SMELL,Study2,F,110,173,Study,User,-,,Study/JOL,"Study Phase2",1332,,,-1,-1,,,,1
5e8209ae9c77a701e51fd83b,tn26frwp0f,Nick_Dissertation_EX1,1,217,2020-06-02T09:23:01-07:00,1.480978012085,1,versionA_stim.csv,READVersionA.csv,"Read Version A","Dissertation, read only version A",GLASS,BREAKABLE,Study2,B,127,152,Study,User,-,,Study/JOL,"Study Phase2",1175,,,-1,-1,,,,1
5e8209ae9c77a701e51fd83b,tn26frwp0f,Nick_Dissertation_EX1,1,218,2020-06-02T09:23:02-07:00,1.4846301078796,1,versionA_stim.csv,READVersionA.csv,"Read Version A","Dissertation, read only version A",ROD,REEL,Study2,S,150,99,Study,User,-,,Study/JOL,"Study Phase2",1179,,,-1,-1,,,,1
5e8209ae9c77a701e51fd83b,tn26frwp0f,Nick_Dissertation_EX1,1,219,2020-06-02T09:23:04-07:00,1.5591669082642,1,versionA_stim.csv,READVersionA.csv,"Read Version A","Dissertation, read only version A",SUN,TAN,Study2,S,155,149,Study,User,-,,Study/JOL,"Study Phase2",1241,,,-1,-1,,,,1
5e8209ae9c77a701e51fd83b,tn26frwp0f,Nick_Dissertation_EX1,1,220,2020-06-02T09:23:06-07:00,2.1412930488586,1,versionA_stim.csv,READVersionA.csv,"Read Version A","Dissertation, read only version A",TEMPERATURE,Morning,Study2,U,173,163,Study,User,-,,Study/JOL,"Study Phase2",1830,,,-1,-1,,,,1
5e8209ae9c77a701e51fd83b,tn26frwp0f,Nick_Dissertation_EX1,1,221,2020-06-02T09:23:24-07:00,18.542931079865,1,versionA_stim.csv,READVersionA.csv,"Read Version A","Dissertation, read only version A",OWN,HAVE,Study2,S,153,112,Study,User,-,,Study/JOL,"Study Phase2",18148,,,-1,-1,,,,1
5e8209ae9c77a701e51fd83b,tn26frwp0f,Nick_Dissertation_EX1,1,222,2020-06-02T09:23:27-07:00,2.474916934967,1,versionA_stim.csv,READVersionA.csv,"Read Version A","Dissertation, read only version A",EARTH,GROUND,Study2,S,144,117,Study,User,-,,Study/JOL,"Study Phase2",2169,,,-1,-1,,,,1
5e8209ae9c77a701e51fd83b,tn26frwp0f,Nick_Dissertation_EX1,1,223,2020-06-02T09:23:48-07:00,21.29053902626,1,versionA_stim.csv,READVersionA.csv,"Read Version A","Dissertation, read only version A",MULE,DONKEY,Study2,F,108,172,Study,User,-,,Study/JOL,"Study Phase2",20760,,,-1,-1,,,,1
5e8209ae9c77a701e51fd83b,tn26frwp0f,Nick_Dissertation_EX1,1,224,2020-06-02T09:23:51-07:00,2.6971390247345,1,versionA_stim.csv,READVersionA.csv,"Read Version A","Dissertation, read only version A",SCALP,HEAD,Study2,F,105,137,Study,User,-,,Study/JOL,"Study Phase2",2319,,,-1,-1,,,,1
5e8209ae9c77a701e51fd83b,tn26frwp0f,Nick_Dissertation_EX1,1,225,2020-06-02T09:23:52-07:00,1.6658358573914,1,versionA_stim.csv,READVersionA.csv,"Read Version A","Dissertation, read only version A",SHOELACE,TIE,Study2,F,99,174,Study,User,-,,Study/JOL,"Study Phase2",1340,,,-1,-1,,,,1
5e8209ae9c77a701e51fd83b,tn26frwp0f,Nick_Dissertation_EX1,1,226,2020-06-02T09:23:55-07:00,2.1285681724548,1,versionA_stim.csv,READVersionA.csv,"Read Version A","Dissertation, read only version A",BIRD,PENGUIN,Study2,B,119,109,Study,User,-,,Study/JOL,"Study Phase2",802,,,-1,-1,,,,1
5e8209ae9c77a701e51fd83b,tn26frwp0f,Nick_Dissertation_EX1,1,227,2020-06-02T09:23:56-07:00,1.0925388336182,1,versionA_stim.csv,READVersionA.csv,"Read Version A","Dissertation, read only version A",SLEEP,NAP,Study2,B,134,133,Study,User,-,,Study/JOL,"Study Phase2",723,,,-1,-1,,,,1
5e8209ae9c77a701e51fd83b,tn26frwp0f,Nick_Dissertation_EX1,1,228,2020-06-02T09:23:57-07:00,1.3103051185608,1,versionA_stim.csv,READVersionA.csv,"Read Version A","Dissertation, read only version A",FURRY,DOG,Study2,F,102,138,Study,User,-,,Study/JOL,"Study Phase2",982,,,-1,-1,,,,1
5e8209ae9c77a701e51fd83b,tn26frwp0f,Nick_Dissertation_EX1,1,229,2020-06-02T09:23:59-07:00,1.5688400268555,1,versionA_stim.csv,READVersionA.csv,"Read Version A","Dissertation, read only version A",SHEARS,SCISSORS,Study2,F,112,143,Study,User,-,,Study/JOL,"Study Phase2",1242,,,-1,-1,,,,1
5e8209ae9c77a701e51fd83b,tn26frwp0f,Nick_Dissertation_EX1,1,230,2020-06-02T09:24:01-07:00,2.4895539283752,1,versionA_stim.csv,READVersionA.csv,"Read Version A","Dissertation, read only version A",NAME,HATE,Study2,U,167,151,Study,User,-,,Study/JOL,"Study Phase2",2079,,,-1,-1,,,,1
5e8209ae9c77a701e51fd83b,tn26frwp0f,Nick_Dissertation_EX1,1,231,2020-06-02T09:24:03-07:00,2.2618029117584,1,versionA_stim.csv,READVersionA.csv,"Read Version A","Dissertation, read only version A",MAZE,ELECTION,Study2,U,159,145,Study,User,-,,Study/JOL,"Study Phase2",1858,,,-1,-1,,,,1
5e8209ae9c77a701e51fd83b,tn26frwp0f,Nick_Dissertation_EX1,1,232,2020-06-02T09:24:05-07:00,1.7083821296692,1,versionA_stim.csv,READVersionA.csv,"Read Version A","Dissertation, read only version A",ADJOURN,END,Study2,F,101,142,Study,User,-,,Study/JOL,"Study Phase2",1368,,,-1,-1,,,,1
5e8209ae9c77a701e51fd83b,tn26frwp0f,Nick_Dissertation_EX1,1,233,2020-06-02T09:24:07-07:00,1.6258678436279,1,versionA_stim.csv,READVersionA.csv,"Read Version A","Dissertation, read only version A",MIRROR,CHILDREN,Study2,U,174,134,Study,User,-,,Study/JOL,"Study Phase2",1299,,,-1,-1,,,,1
5e8209ae9c77a701e51fd83b,tn26frwp0f,Nick_Dissertation_EX1,1,234,2020-06-02T09:24:09-07:00,2.6359601020813,1,versionA_stim.csv,READVersionA.csv,"Read Version A","Dissertation, read only version A",CACTUS,PLANT,Study2,F,98,128,Study,User,-,,Study/JOL,"Study Phase2",1755,,,-1,-1,,,,1
5e8209ae9c77a701e51fd83b,tn26frwp0f,Nick_Dissertation_EX1,1,235,2020-06-02T09:24:11-07:00,1.2996170520782,1,versionA_stim.csv,READVersionA.csv,"Read Version A","Dissertation, read only version A",FIGHT,BRAWL,Study2,B,135,101,Study,User,-,,Study/JOL,"Study Phase2",985,,,-1,-1,,,,1
5e8209ae9c77a701e51fd83b,tn26frwp0f,Nick_Dissertation_EX1,1,236,2020-06-02T09:24:12-07:00,1.8239829540253,1,versionA_stim.csv,READVersionA.csv,"Read Version A","Dissertation, read only version A",DEAD,COFFIN,Study2,B,128,110,Study,User,-,,Study/JOL,"Study Phase2",1517,,,-1,-1,,,,1
5e8209ae9c77a701e51fd83b,tn26frwp0f,Nick_Dissertation_EX1,1,237,2020-06-02T09:24:14-07:00,1.8952169418335,1,versionA_stim.csv,READVersionA.csv,"Read Version A","Dissertation, read only version A",FEUD,FIGHT,Study2,F,113,158,Study,User,-,,Study/JOL,"Study Phase2",1561,,,-1,-1,,,,1
5e8209ae9c77a701e51fd83b,tn26frwp0f,Nick_Dissertation_EX1,1,238,2020-06-02T09:24:16-07:00,1.7549319267273,1,versionA_stim.csv,READVersionA.csv,"Read Version A","Dissertation, read only version A",LOAN,SIGN,Study2,U,171,140,Study,User,-,,Study/JOL,"Study Phase2",1424,,,-1,-1,,,,1
5e8209ae9c77a701e51fd83b,tn26frwp0f,Nick_Dissertation_EX1,1,239,2020-06-02T09:24:18-07:00,2.3573710918427,1,versionA_stim.csv,READVersionA.csv,"Read Version A","Dissertation, read only version A",HONEST,TRUTHFUL,Study2,B,133,118,Study,User,-,,Study/JOL,"Study Phase2",2049,,,-1,-1,,,,1
5e8209ae9c77a701e51fd83b,tn26frwp0f,Nick_Dissertation_EX1,1,240,2020-06-02T09:24:21-07:00,2.1777920722961,1,versionA_stim.csv,READVersionA.csv,"Read Version A","Dissertation, read only version A",FUZZY,BANG,Study2,U,168,114,Study,User,-,,Study/JOL,"Study Phase2",1494,,,-1,-1,,,,1
5e8209ae9c77a701e51fd83b,tn26frwp0f,Nick_Dissertation_EX1,1,241,2020-06-02T09:24:22-07:00,1.4582388401031,1,versionA_stim.csv,READVersionA.csv,"Read Version A","Dissertation, read only version A",GIVE,STEAK,Study2,U,158,121,Study,User,-,,Study/JOL,"Study Phase2",1147,,,-1,-1,,,,1
5e8209ae9c77a701e51fd83b,tn26frwp0f,Nick_Dissertation_EX1,1,242,2020-06-02T09:24:24-07:00,1.6703011989594,1,versionA_stim.csv,READVersionA.csv,"Read Version A","Dissertation, read only version A",CHILL,COLD,Study2,F,114,176,Study,User,-,,Study/JOL,"Study Phase2",1358,,,-1,-1,,,,1
5e8209ae9c77a701e51fd83b,tn26frwp0f,Nick_Dissertation_EX1,1,243,2020-06-02T09:24:25-07:00,1.7129628658295,1,versionA_stim.csv,READVersionA.csv,"Read Version A","Dissertation, read only version A",EXTENSION,LONG,Study2,F,96,106,Study,User,-,,Study/JOL,"Study Phase2",1396,,,-1,-1,,,,1
5e8209ae9c77a701e51fd83b,tn26frwp0f,Nick_Dissertation_EX1,1,244,2020-06-02T09:24:27-07:00,1.8160989284515,1,versionA_stim.csv,READVersionA.csv,"Read Version A","Dissertation, read only version A",LEASE,TOIL,Study2,U,170,107,Study,User,-,,Study/JOL,"Study Phase2",1503,,,-1,-1,,,,1
5e8209ae9c77a701e51fd83b,tn26frwp0f,Nick_Dissertation_EX1,1,245,2020-06-02T09:24:29-07:00,1.5269291400909,1,versionA_stim.csv,READVersionA.csv,"Read Version A","Dissertation, read only version A",ELEMENT,CARBON,Study2,S,141,160,Study,User,-,,Study/JOL,"Study Phase2",1206,,,-1,-1,,,,1
5e8209ae9c77a701e51fd83b,tn26frwp0f,Nick_Dissertation_EX1,1,246,2020-06-02T09:24:31-07:00,2.0813670158386,1,versionA_stim.csv,READVersionA.csv,"Read Version A","Dissertation, read only version A",FISH,SARDINE,Study2,B,130,113,Study,User,-,,Study/JOL,"Study Phase2",1458,,,-1,-1,,,,1
5e8209ae9c77a701e51fd83b,tn26frwp0f,Nick_Dissertation_EX1,1,247,2020-06-02T09:24:33-07:00,1.7330510616302,1,versionA_stim.csv,READVersionA.csv,"Read Version A","Dissertation, read only version A",CAKE,CLOTHES,Study2,U,166,147,Study,User,-,,Study/JOL,"Study Phase2",1094,,,-1,-1,,,,1
5e8209ae9c77a701e51fd83b,tn26frwp0f,Nick_Dissertation_EX1,1,248,2020-06-02T09:24:34-07:00,1.7623119354248,1,versionA_stim.csv,READVersionA.csv,"Read Version A","Dissertation, read only version A",MONEY,BANKER,Study2,B,132,127,Study,User,-,,Study/JOL,"Study Phase2",1461,,,-1,-1,,,,1
5e8209ae9c77a701e51fd83b,tn26frwp0f,Nick_Dissertation_EX1,1,249,2020-06-02T09:24:37-07:00,2.3151199817657,1,versionA_stim.csv,READVersionA.csv,"Read Version A","Dissertation, read only version A",Shell,SHAKE,Study2,U,163,167,Study,User,-,,Study/JOL,"Study Phase2",1987,,,-1,-1,,,,1
5e8209ae9c77a701e51fd83b,tn26frwp0f,Nick_Dissertation_EX1,1,250,2020-06-02T09:24:39-07:00,2.4788439273834,1,versionA_stim.csv,READVersionA.csv,"Read Version A","Dissertation, read only version A",DOCUMENT,PAPER,Study2,F,109,170,Study,User,-,,Study/JOL,"Study Phase2",2169,,,-1,-1,,,,1
5e8209ae9c77a701e51fd83b,tn26frwp0f,Nick_Dissertation_EX1,1,251,2020-06-02T09:24:41-07:00,2.3187830448151,1,versionA_stim.csv,READVersionA.csv,"Read Version A","Dissertation, read only version A",SAFETY,SEATBELT,Study2,S,147,144,Study,User,-,,Study/JOL,"Study Phase2",1736,,,-1,-1,,,,1
5e8209ae9c77a701e51fd83b,tn26frwp0f,Nick_Dissertation_EX1,1,252,2020-06-02T09:24:43-07:00,2.0031180381775,1,versionA_stim.csv,READVersionA.csv,"Read Version A","Dissertation, read only version A",MASON,JAR,Study2,S,138,130,Study,User,-,,Study/JOL,"Study Phase2",1584,,,-1,-1,,,,1
5e8209ae9c77a701e51fd83b,tn26frwp0f,Nick_Dissertation_EX1,1,253,2020-06-02T09:24:47-07:00,3.1663329601288,1,versionA_stim.csv,READVersionA.csv,"Read Version A","Dissertation, read only version A",VEHICLE,CHARM,Study2,U,160,153,Study,User,-,,Study/JOL,"Study Phase2",2764,,,-1,-1,,,,1
5e8209ae9c77a701e51fd83b,tn26frwp0f,Nick_Dissertation_EX1,1,254,2020-06-02T09:24:49-07:00,1.975105047226,1,versionA_stim.csv,READVersionA.csv,"Read Version A","Dissertation, read only version A",KEYS,JOKE,Study2,U,165,168,Study,User,-,,Study/JOL,"Study Phase2",1513,,,-1,-1,,,,1
5e8209ae9c77a701e51fd83b,tn26frwp0f,Nick_Dissertation_EX1,1,255,2020-06-02T09:24:50-07:00,1.5680818557739,1,versionA_stim.csv,READVersionA.csv,"Read Version A","Dissertation, read only version A",LITTER,TRASH,Study2,F,103,108,Study,User,-,,Study/JOL,"Study Phase2",1168,,,-1,-1,,,,1
5e8209ae9c77a701e51fd83b,tn26frwp0f,Nick_Dissertation_EX1,1,256,2020-06-02T09:24:52-07:00,2.3035750389099,1,versionA_stim.csv,READVersionA.csv,"Read Version A","Dissertation, read only version A",PHONE,COMMUNICATION,Study2,S,149,161,Study,User,-,,Study/JOL,"Study Phase2",1990,,,-1,-1,,,,1
5e8209ae9c77a701e51fd83b,tn26frwp0f,Nick_Dissertation_EX1,1,257,2020-06-02T09:24:54-07:00,1.6534371376038,1,versionA_stim.csv,READVersionA.csv,"Read Version A","Dissertation, read only version A",STAR,ACTRESS,Study2,B,120,122,Study,User,-,,Study/JOL,"Study Phase2",1318,,,-1,-1,,,,1
5e8209ae9c77a701e51fd83b,tn26frwp0f,Nick_Dissertation_EX1,1,258,2020-06-02T09:24:56-07:00,1.6820039749146,1,versionA_stim.csv,READVersionA.csv,"Read Version A","Dissertation, read only version A",CANDLE,WAX,Study2,S,139,150,Study,User,-,,Study/JOL,"Study Phase2",1357,,,-1,-1,,,,1
5e8209ae9c77a701e51fd83b,tn26frwp0f,Nick_Dissertation_EX1,1,259,2020-06-02T09:24:58-07:00,1.8849308490753,1,versionA_stim.csv,READVersionA.csv,"Read Version A","Dissertation, read only version A",MAIN,SCAR,Study2,U,175,169,Study,User,-,,Study/JOL,"Study Phase2",1565,,,-1,-1,,,,1
5e8209ae9c77a701e51fd83b,tn26frwp0f,Nick_Dissertation_EX1,1,260,2020-06-02T09:24:59-07:00,1.7344601154327,1,versionA_stim.csv,READVersionA.csv,"Read Version A","Dissertation, read only version A",CAT,PANTHER,Study2,B,126,103,Study,User,-,,Study/JOL,"Study Phase2",1403,,,-1,-1,,,,1
5e8209ae9c77a701e51fd83b,tn26frwp0f,Nick_Dissertation_EX1,1,261,2020-06-02T09:25:02-07:00,2.1013839244843,1,versionA_stim.csv,READVersionA.csv,"Read Version A","Dissertation, read only version A",MONTH,YEAR,BUFFER4,Buffer,177,181,Study,User,-,,Study/JOL,BUFFER4,1780,,,-1,-1,,,,1
5e8209ae9c77a701e51fd83b,tn26frwp0f,Nick_Dissertation_EX1,1,262,2020-06-02T09:25:04-07:00,2.9033260345459,1,versionA_stim.csv,READVersionA.csv,"Read Version A","Dissertation, read only version A",TOOL,SHED,BUFFER4,Buffer,178,178,Study,User,-,,Study/JOL,BUFFER4,1909,,,-1,-1,,,,1
5e8209ae9c77a701e51fd83b,tn26frwp0f,Nick_Dissertation_EX1,1,263,2020-06-02T09:25:06-07:00,1.9427390098572,1,versionA_stim.csv,READVersionA.csv,"Read Version A","Dissertation, read only version A",SPRING,MARCH,BUFFER4,Buffer,179,177,Study,User,-,,Study/JOL,BUFFER4,1448,,,-1,-1,,,,1
5e8209ae9c77a701e51fd83b,tn26frwp0f,Nick_Dissertation_EX1,1,264,2020-06-02T09:25:08-07:00,1.5796680450439,1,versionA_stim.csv,READVersionA.csv,"Read Version A","Dissertation, read only version A",DAYS,WEAKS,BUFFER4,Buffer,176,179,Study,User,-,,Study/JOL,BUFFER4,1265,,,-1,-1,,,,1
5e8209ae9c77a701e51fd83b,tn26frwp0f,Nick_Dissertation_EX1,1,265,2020-06-02T09:25:10-07:00,2.2734758853912,1,versionA_stim.csv,READVersionA.csv,"Read Version A","Dissertation, read only version A",OCTOBER,SPOOKY,BUFFER4,Buffer,180,180,Study,User,-,,Study/JOL,BUFFER4,1947,,,-1,-1,,,,1
5e8209ae9c77a701e51fd83b,tn26frwp0f,Nick_Dissertation_EX1,1,266,2020-06-02T09:25:12-07:00,1.6189291477203,1,versionA_stim.csv,READVersionA.csv,"Read Version A","Dissertation, read only version A",,,,,,0,Instruct,User,-,"You have completed this section. Please press Enter.",Filler_Instruction,Instruct5,1226,,,-1,-1,,,,1
5e8209ae9c77a701e51fd83b,tn26frwp0f,Nick_Dissertation_EX1,1,267,2020-06-02T09:27:12-07:00,120.60732293129,1,versionA_stim.csv,READVersionA.csv,"Read Version A","Dissertation, read only version A",,,,,,0,FreeRecall,120,120,"Please list the 50 US states in reverse alphabetical order (z - a). The task will automatically advance to the next screen after two minutes.",,Filler2,120003,"wyoming wisconsin west virginia washington virginia vermont utah texas tenessee s",0,15841,119465,0,0,,0.928
5e8209ae9c77a701e51fd83b,tn26frwp0f,Nick_Dissertation_EX1,1,268,2020-06-02T09:27:24-07:00,11.231897115707,1,versionA_stim.csv,READVersionA.csv,"Read Version A","Dissertation, read only version A",,,,,,0,Instruct,-,10,"You will now be presented with the first word from each of the previously studied item pairs. Please type the missing word. If you do not know the word, you may guess or press Enter to skip forward to the next pair.",,Instruct6,10819,,,-1,-1,,,,1
5e8209ae9c77a701e51fd83b,tn26frwp0f,Nick_Dissertation_EX1,1,269,2020-06-02T09:27:28-07:00,3.8644738197327,1,versionA_stim.csv,READVersionA.csv,"Read Version A","Dissertation, read only version A",PHONE,COMMUNICATION,Study2,S,149,161,Test,User,-,,Recall,Recall2,3520,ring,23.529411764706,2862,3364,0,0,,1
5e8209ae9c77a701e51fd83b,tn26frwp0f,Nick_Dissertation_EX1,1,270,2020-06-02T09:27:37-07:00,9.7079391479492,1,versionA_stim.csv,READVersionA.csv,"Read Version A","Dissertation, read only version A",JUSTICE,MAROON,Study2,U,156,141,Test,User,-,,Recall,Recall2,9381,served,16.666666666667,8088,9236,0,0,,1
5e8209ae9c77a701e51fd83b,tn26frwp0f,Nick_Dissertation_EX1,1,271,2020-06-02T09:27:41-07:00,3.384938955307,1,versionA_stim.csv,READVersionA.csv,"Read Version A","Dissertation, read only version A",STRETCH,CLOTH,Study2,U,157,104,Test,User,-,,Recall,Recall2,3056,gym,0,2377,2725,0,0,,1
5e8209ae9c77a701e51fd83b,tn26frwp0f,Nick_Dissertation_EX1,1,272,2020-06-02T09:27:44-07:00,3.1116650104523,1,versionA_stim.csv,READVersionA.csv,"Read Version A","Dissertation, read only version A",CHERRY,RED,Study2,F,104,154,Test,User,-,,Recall,Recall2,2790,cake,28.571428571429,2082,2649,0,0,,1
5e8209ae9c77a701e51fd83b,tn26frwp0f,Nick_Dissertation_EX1,1,273,2020-06-02T09:27:47-07:00,2.9500260353088,1,versionA_stim.csv,READVersionA.csv,"Read Version A","Dissertation, read only version A",LOAN,SIGN,Study2,U,171,140,Test,User,-,,Recall,Recall2,2628,money,22.222222222222,1301,2288,0,0,,1
5e8209ae9c77a701e51fd83b,tn26frwp0f,Nick_Dissertation_EX1,1,274,2020-06-02T09:27:51-07:00,3.9404258728027,1,versionA_stim.csv,READVersionA.csv,"Read Version A","Dissertation, read only version A",TEMPERATURE,Morning,Study2,U,173,163,Test,User,-,,Recall,Recall2,3552,hot,20,2833,3284,0,0,,1
5e8209ae9c77a701e51fd83b,tn26frwp0f,Nick_Dissertation_EX1,1,275,2020-06-02T09:27:56-07:00,5.1112861633301,1,versionA_stim.csv,READVersionA.csv,"Read Version A","Dissertation, read only version A",POP,BALLOON,Study2,B,123,175,Test,User,-,,Recall,Recall2,4780,machine,28.571428571429,3318,4585,0,0,,1
5e8209ae9c77a701e51fd83b,tn26frwp0f,Nick_Dissertation_EX1,1,276,2020-06-02T09:27:59-07:00,3.2642278671265,1,versionA_stim.csv,READVersionA.csv,"Read Version A","Dissertation, read only version A",TRUTH,LIE,Study2,S,148,123,Test,User,-,,Recall,Recall2,2901,lie,100,1533,2767,1,1,,1
5e8209ae9c77a701e51fd83b,tn26frwp0f,Nick_Dissertation_EX1,1,277,2020-06-02T09:28:06-07:00,6.5441391468048,1,versionA_stim.csv,READVersionA.csv,"Read Version A","Dissertation, read only version A",CACTUS,PLANT,Study2,F,98,128,Test,User,-,,Recall,Recall2,5227,desert,18.181818181818,3021,4751,0,0,,1
5e8209ae9c77a701e51fd83b,tn26frwp0f,Nick_Dissertation_EX1,1,278,2020-06-02T09:28:09-07:00,3.2389309406281,1,versionA_stim.csv,READVersionA.csv,"Read Version A","Dissertation, read only version A",OWN,HAVE,Study2,S,153,112,Test,User,-,,Recall,Recall2,2873,life,25,2277,2813,0,0,,1
5e8209ae9c77a701e51fd83b,tn26frwp0f,Nick_Dissertation_EX1,1,279,2020-06-02T09:28:12-07:00,2.7536430358887,1,versionA_stim.csv,READVersionA.csv,"Read Version A","Dissertation, read only version A",EARTH,GROUND,Study2,S,144,117,Test,User,-,,Recall,Recall2,2443,day,22.222222222222,1581,2091,0,0,,1
5e8209ae9c77a701e51fd83b,tn26frwp0f,Nick_Dissertation_EX1,1,280,2020-06-02T09:28:15-07:00,3.1099579334259,1,versionA_stim.csv,READVersionA.csv,"Read Version A","Dissertation, read only version A",EXTENSION,LONG,Study2,F,96,106,Test,User,-,,Recall,Recall2,2802,line,50,1800,2496,0,0,,1
5e8209ae9c77a701e51fd83b,tn26frwp0f,Nick_Dissertation_EX1,1,281,2020-06-02T09:28:17-07:00,2.4583690166473,1,versionA_stim.csv,READVersionA.csv,"Read Version A","Dissertation, read only version A",SAFETY,SEATBELT,Study2,S,147,144,Test,User,-,,Recall,Recall2,2155,net,36.363636363636,1579,2055,0,0,,1
5e8209ae9c77a701e51fd83b,tn26frwp0f,Nick_Dissertation_EX1,1,282,2020-06-02T09:28:23-07:00,5.7327899932861,1,versionA_stim.csv,READVersionA.csv,"Read Version A","Dissertation, read only version A",FLEA,TICK,Study2,S,151,156,Test,User,-,,Recall,Recall2,5413,flu,0,4577,5119,0,0,,1
5e8209ae9c77a701e51fd83b,tn26frwp0f,Nick_Dissertation_EX1,1,283,2020-06-02T09:28:28-07:00,5.0553319454193,1,versionA_stim.csv,READVersionA.csv,"Read Version A","Dissertation, read only version A",THREAD,THIMBLE,Study2,B,121,166,Test,User,-,,Recall,Recall2,4718,needle,30.769230769231,2963,4496,0,0,,1
5e8209ae9c77a701e51fd83b,tn26frwp0f,Nick_Dissertation_EX1,1,284,2020-06-02T09:28:31-07:00,2.7849349975586,1,versionA_stim.csv,READVersionA.csv,"Read Version A","Dissertation, read only version A",DEAD,COFFIN,Study2,B,128,110,Test,User,-,,Recall,Recall2,2467,end,22.222222222222,1986,2338,0,0,,1
5e8209ae9c77a701e51fd83b,tn26frwp0f,Nick_Dissertation_EX1,1,285,2020-06-02T09:28:38-07:00,7.3991141319275,1,versionA_stim.csv,READVersionA.csv,"Read Version A","Dissertation, read only version A",CAT,PANTHER,Study2,B,126,103,Test,User,-,,Recall,Recall2,7080,fish,18.181818181818,6290,6803,0,0,,1
5e8209ae9c77a701e51fd83b,tn26frwp0f,Nick_Dissertation_EX1,1,286,2020-06-02T09:28:46-07:00,7.4171118736267,1,versionA_stim.csv,READVersionA.csv,"Read Version A","Dissertation, read only version A",KEYS,JOKE,Study2,U,165,168,Test,User,-,,Recall,Recall2,7102,play,0,5694,6730,0,0,,1
5e8209ae9c77a701e51fd83b,tn26frwp0f,Nick_Dissertation_EX1,1,287,2020-06-02T09:28:59-07:00,13.1455950737,1,versionA_stim.csv,READVersionA.csv,"Read Version A","Dissertation, read only version A",DETECTIVE,MYSTERY,Study2,F,100,111,Test,User,-,,Recall,Recall2,12341,hide,18.181818181818,11505,12178,0,0,,1
5e8209ae9c77a701e51fd83b,tn26frwp0f,Nick_Dissertation_EX1,1,288,2020-06-02T09:29:04-07:00,5.7072908878326,1,versionA_stim.csv,READVersionA.csv,"Read Version A","Dissertation, read only version A",HONEST,TRUTHFUL,Study2,B,133,118,Test,User,-,,Recall,Recall2,5337,truth,76.923076923077,3518,5062,0,1,,1
5e8209ae9c77a701e51fd83b,tn26frwp0f,Nick_Dissertation_EX1,1,289,2020-06-02T09:29:10-07:00,5.9651131629944,1,versionA_stim.csv,READVersionA.csv,"Read Version A","Dissertation, read only version A",CRACKLE,ABLE,Study2,U,162,155,Test,User,-,,Recall,Recall2,5637,hiss,0,4813,5396,0,0,,1
5e8209ae9c77a701e51fd83b,tn26frwp0f,Nick_Dissertation_EX1,1,290,2020-06-02T09:29:14-07:00,4.1580789089203,1,versionA_stim.csv,READVersionA.csv,"Read Version A","Dissertation, read only version A",FEUD,FIGHT,Study2,F,113,158,Test,User,-,,Recall,Recall2,3831,family,36.363636363636,2352,3700,0,0,,1
5e8209ae9c77a701e51fd83b,tn26frwp0f,Nick_Dissertation_EX1,1,291,2020-06-02T09:29:18-07:00,3.1384589672089,1,versionA_stim.csv,READVersionA.csv,"Read Version A","Dissertation, read only version A",DINE,EAT,Study2,F,111,146,Test,User,-,,Recall,Recall2,2808,eat,100,1957,2635,1,1,,1
5e8209ae9c77a701e51fd83b,tn26frwp0f,Nick_Dissertation_EX1,1,292,2020-06-02T09:29:22-07:00,4.8575949668884,1,versionA_stim.csv,READVersionA.csv,"Read Version A","Dissertation, read only version A",LISTEN,FICTION,Study2,U,164,171,Test,User,-,,Recall,Recall2,4533,play,0,3416,4157,0,0,,1
5e8209ae9c77a701e51fd83b,tn26frwp0f,Nick_Dissertation_EX1,1,293,2020-06-02T09:29:25-07:00,2.2666940689087,1,versionA_stim.csv,READVersionA.csv,"Read Version A","Dissertation, read only version A",GIVE,STEAK,Study2,U,158,121,Test,User,-,,Recall,Recall2,1865,up,0,1275,1613,0,0,,1
5e8209ae9c77a701e51fd83b,tn26frwp0f,Nick_Dissertation_EX1,1,294,2020-06-02T09:29:29-07:00,4.5241119861603,1,versionA_stim.csv,READVersionA.csv,"Read Version A","Dissertation, read only version A",VEHICLE,CHARM,Study2,U,160,153,Test,User,-,,Recall,Recall2,4104,car,75,3522,3976,0,1,,1
5e8209ae9c77a701e51fd83b,tn26frwp0f,Nick_Dissertation_EX1,1,295,2020-06-02T09:29:36-07:00,6.5459609031677,1,versionA_stim.csv,READVersionA.csv,"Read Version A","Dissertation, read only version A",MOAT,CLEAR,Study2,U,169,120,Test,User,-,,Recall,Recall2,6206,monument,15.384615384615,4205,5941,0,0,,1
5e8209ae9c77a701e51fd83b,tn26frwp0f,Nick_Dissertation_EX1,1,296,2020-06-02T09:29:40-07:00,4.1123170852661,1,versionA_stim.csv,READVersionA.csv,"Read Version A","Dissertation, read only version A",GLASS,BREAKABLE,Study2,B,127,152,Test,User,-,,Recall,Recall2,3781,water,28.571428571429,2785,3643,0,0,,1
5e8209ae9c77a701e51fd83b,tn26frwp0f,Nick_Dissertation_EX1,1,297,2020-06-02T09:29:47-07:00,6.9386389255524,1,versionA_stim.csv,READVersionA.csv,"Read Version A","Dissertation, read only version A",Shell,SHAKE,Study2,U,163,167,Test,User,-,,Recall,Recall2,6481,turtle,18.181818181818,5045,6226,0,0,,1
5e8209ae9c77a701e51fd83b,tn26frwp0f,Nick_Dissertation_EX1,1,298,2020-06-02T09:29:50-07:00,3.0534460544586,1,versionA_stim.csv,READVersionA.csv,"Read Version A","Dissertation, read only version A",CAKE,CLOTHES,Study2,U,166,147,Test,User,-,,Recall,Recall2,2630,ice,40,2191,2505,0,0,,1
5e8209ae9c77a701e51fd83b,tn26frwp0f,Nick_Dissertation_EX1,1,299,2020-06-02T09:29:54-07:00,3.908047914505,1,versionA_stim.csv,READVersionA.csv,"Read Version A","Dissertation, read only version A",MIRROR,CHILDREN,Study2,U,174,134,Test,User,-,,Recall,Recall2,3591,child,76.923076923077,1889,3135,0,1,,1
5e8209ae9c77a701e51fd83b,tn26frwp0f,Nick_Dissertation_EX1,1,300,2020-06-02T09:30:02-07:00,7.7436320781708,1,versionA_stim.csv,READVersionA.csv,"Read Version A","Dissertation, read only version A",NAME,HATE,Study2,U,167,151,Test,User,-,,Recall,Recall2,7424,clue,25,6620,7264,0,0,,1
5e8209ae9c77a701e51fd83b,tn26frwp0f,Nick_Dissertation_EX1,1,301,2020-06-02T09:30:07-07:00,5.8042130470276,1,versionA_stim.csv,READVersionA.csv,"Read Version A","Dissertation, read only version A",SUN,TAN,Study2,S,155,149,Test,User,-,,Recall,Recall2,5469,noon,28.571428571429,3835,5241,0,0,,1
5e8209ae9c77a701e51fd83b,tn26frwp0f,Nick_Dissertation_EX1,1,302,2020-06-02T09:30:12-07:00,4.7336330413818,1,versionA_stim.csv,READVersionA.csv,"Read Version A","Dissertation, read only version A",WRIST,BRACELET,Study2,S,140,162,Test,User,-,,Recall,Recall2,4421,ankle,46.153846153846,3350,4289,0,0,,1
5e8209ae9c77a701e51fd83b,tn26frwp0f,Nick_Dissertation_EX1,1,303,2020-06-02T09:30:16-07:00,4.0869419574738,1,versionA_stim.csv,READVersionA.csv,"Read Version A","Dissertation, read only version A",SLEEP,NAP,Study2,B,134,133,Test,User,-,,Recall,Recall2,3745,awake,25,2612,3559,0,0,,1
5e8209ae9c77a701e51fd83b,tn26frwp0f,Nick_Dissertation_EX1,1,304,2020-06-02T09:30:19-07:00,2.8385128974915,1,versionA_stim.csv,READVersionA.csv,"Read Version A","Dissertation, read only version A",SHEARS,SCISSORS,Study2,F,112,143,Test,User,-,,Recall,Recall2,2522,cut,18.181818181818,1815,2389,0,0,,1
5e8209ae9c77a701e51fd83b,tn26frwp0f,Nick_Dissertation_EX1,1,305,2020-06-02T09:30:23-07:00,4.1342570781708,1,versionA_stim.csv,READVersionA.csv,"Read Version A","Dissertation, read only version A",FISH,SARDINE,Study2,B,130,113,Test,User,-,,Recall,Recall2,3825,sardine,100,1989,3655,1,1,,1
5e8209ae9c77a701e51fd83b,tn26frwp0f,Nick_Dissertation_EX1,1,306,2020-06-02T09:30:30-07:00,6.402251958847,1,versionA_stim.csv,READVersionA.csv,"Read Version A","Dissertation, read only version A",MEAT,OBTAIN,Study2,U,161,136,Test,User,-,,Recall,Recall2,6084,crime,18.181818181818,4636,5893,0,0,,1
5e8209ae9c77a701e51fd83b,tn26frwp0f,Nick_Dissertation_EX1,1,307,2020-06-02T09:30:32-07:00,2.7287149429321,1,versionA_stim.csv,READVersionA.csv,"Read Version A","Dissertation, read only version A",EVEN,REVENGE,Study2,B,122,116,Test,User,-,,Recall,Recall2,2413,odd,0,1691,2300,0,0,,1
5e8209ae9c77a701e51fd83b,tn26frwp0f,Nick_Dissertation_EX1,1,308,2020-06-02T09:30:37-07:00,4.818706035614,1,versionA_stim.csv,READVersionA.csv,"Read Version A","Dissertation, read only version A",CANDLE,WAX,Study2,S,139,150,Test,User,-,,Recall,Recall2,4487,flame,25,3175,4289,0,0,,1
5e8209ae9c77a701e51fd83b,tn26frwp0f,Nick_Dissertation_EX1,1,309,2020-06-02T09:30:45-07:00,7.8644790649414,1,versionA_stim.csv,READVersionA.csv,"Read Version A","Dissertation, read only version A",MAZE,ELECTION,Study2,U,159,145,Test,User,-,,Recall,Recall2,7538,game,16.666666666667,6812,7401,0,0,,1
5e8209ae9c77a701e51fd83b,tn26frwp0f,Nick_Dissertation_EX1,1,310,2020-06-02T09:30:51-07:00,6.4042310714722,1,versionA_stim.csv,READVersionA.csv,"Read Version A","Dissertation, read only version A",ELEMENT,CARBON,Study2,S,141,160,Test,User,-,,Recall,Recall2,6071,hydrogen,42.857142857143,2655,5747,0,0,,1
5e8209ae9c77a701e51fd83b,tn26frwp0f,Nick_Dissertation_EX1,1,311,2020-06-02T09:30:55-07:00,3.7843279838562,1,versionA_stim.csv,READVersionA.csv,"Read Version A","Dissertation, read only version A",CAR,WINDSHIELD,Study2,B,117,132,Test,User,-,,Recall,Recall2,3444,seat,28.571428571429,2428,3162,0,0,,1
5e8209ae9c77a701e51fd83b,tn26frwp0f,Nick_Dissertation_EX1,1,312,2020-06-02T09:30:59-07:00,3.8133769035339,1,versionA_stim.csv,READVersionA.csv,"Read Version A","Dissertation, read only version A",LOUD,NOISE,Study2,S,152,139,Test,User,-,,Recall,Recall2,3498,bang,22.222222222222,1837,3173,0,0,,1
5e8209ae9c77a701e51fd83b,tn26frwp0f,Nick_Dissertation_EX1,1,313,2020-06-02T09:31:04-07:00,5.3766939640045,1,versionA_stim.csv,READVersionA.csv,"Read Version A","Dissertation, read only version A",CHILL,COLD,Study2,F,114,176,Test,User,-,,Recall,Recall2,5063,girl,25,4116,4801,0,0,,1
5e8209ae9c77a701e51fd83b,tn26frwp0f,Nick_Dissertation_EX1,1,314,2020-06-02T09:31:09-07:00,4.2568860054016,1,versionA_stim.csv,READVersionA.csv,"Read Version A","Dissertation, read only version A",MONEY,BANKER,Study2,B,132,127,Test,User,-,,Recall,Recall2,3555,matters,46.153846153846,1936,3402,0,0,,1
5e8209ae9c77a701e51fd83b,tn26frwp0f,Nick_Dissertation_EX1,1,315,2020-06-02T09:31:14-07:00,5.4543051719666,1,versionA_stim.csv,READVersionA.csv,"Read Version A","Dissertation, read only version A",RIGHTS,EQUAL,Study2,S,137,159,Test,User,-,,Recall,Recall2,5138,justice,16.666666666667,3662,5013,0,0,,1
5e8209ae9c77a701e51fd83b,tn26frwp0f,Nick_Dissertation_EX1,1,316,2020-06-02T09:31:18-07:00,3.6165299415588,1,versionA_stim.csv,READVersionA.csv,"Read Version A","Dissertation, read only version A",LEASE,TOIL,Study2,U,170,107,Test,User,-,,Recall,Recall2,3283,free,0,2157,3130,0,0,,1
5e8209ae9c77a701e51fd83b,tn26frwp0f,Nick_Dissertation_EX1,1,317,2020-06-02T09:31:21-07:00,3.5554990768433,1,versionA_stim.csv,READVersionA.csv,"Read Version A","Dissertation, read only version A",LITTER,TRASH,Study2,F,103,108,Test,User,-,,Recall,Recall2,3226,bug,0,1596,3086,0,0,,1
5e8209ae9c77a701e51fd83b,tn26frwp0f,Nick_Dissertation_EX1,1,318,2020-06-02T09:31:24-07:00,2.7717869281769,1,versionA_stim.csv,READVersionA.csv,"Read Version A","Dissertation, read only version A",MAIN,SCAR,Study2,U,175,169,Test,User,-,,Recall,Recall2,2442,event,0,1320,2341,0,0,,1
5e8209ae9c77a701e51fd83b,tn26frwp0f,Nick_Dissertation_EX1,1,319,2020-06-02T09:31:31-07:00,6.8081300258636,1,versionA_stim.csv,READVersionA.csv,"Read Version A","Dissertation, read only version A",BASEBALL,LEAGUE,Study2,B,131,148,Test,User,-,,Recall,Recall2,6475,catch,18.181818181818,4956,6107,0,0,,1
5e8209ae9c77a701e51fd83b,tn26frwp0f,Nick_Dissertation_EX1,1,320,2020-06-02T09:31:39-07:00,8.2075319290161,1,versionA_stim.csv,READVersionA.csv,"Read Version A","Dissertation, read only version A",ADJOURN,END,Study2,F,101,142,Test,User,-,,Recall,Recall2,7884,leave,25,5460,7675,0,0,,1
5e8209ae9c77a701e51fd83b,tn26frwp0f,Nick_Dissertation_EX1,1,321,2020-06-02T09:31:42-07:00,3.12202501297,1,versionA_stim.csv,READVersionA.csv,"Read Version A","Dissertation, read only version A",WATER,DRINK,Study2,S,143,102,Test,User,-,,Recall,Recall2,2788,way,0,1853,2454,0,0,,1
5e8209ae9c77a701e51fd83b,tn26frwp0f,Nick_Dissertation_EX1,1,322,2020-06-02T09:31:47-07:00,4.702507019043,1,versionA_stim.csv,READVersionA.csv,"Read Version A","Dissertation, read only version A",MULE,DONKEY,Study2,F,108,172,Test,User,-,,Recall,Recall2,4373,camel,18.181818181818,3124,4124,0,0,,1
5e8209ae9c77a701e51fd83b,tn26frwp0f,Nick_Dissertation_EX1,1,323,2020-06-02T09:31:50-07:00,3.4501969814301,1,versionA_stim.csv,READVersionA.csv,"Read Version A","Dissertation, read only version A",FUZZY,BANG,Study2,U,168,114,Test,User,-,,Recall,Recall2,3053,bear,50,2165,2848,0,0,,1
5e8209ae9c77a701e51fd83b,tn26frwp0f,Nick_Dissertation_EX1,1,324,2020-06-02T09:31:53-07:00,3.1346008777618,1,versionA_stim.csv,READVersionA.csv,"Read Version A","Dissertation, read only version A",TANTRUM,TEMPER,Study2,S,154,115,Test,User,-,,Recall,Recall2,2819,cry,22.222222222222,1861,2390,0,0,,1
5e8209ae9c77a701e51fd83b,tn26frwp0f,Nick_Dissertation_EX1,1,325,2020-06-02T09:31:59-07:00,5.5134041309357,1,versionA_stim.csv,READVersionA.csv,"Read Version A","Dissertation, read only version A",BOTH,OUNCE,Study2,U,172,131,Test,User,-,,Recall,Recall2,5177,triple,18.181818181818,2939,5002,0,0,,1
5e8209ae9c77a701e51fd83b,tn26frwp0f,Nick_Dissertation_EX1,1,326,2020-06-02T09:32:02-07:00,3.4999430179596,1,versionA_stim.csv,READVersionA.csv,"Read Version A","Dissertation, read only version A",DOCUMENT,PAPER,Study2,F,109,170,Test,User,-,,Recall,Recall2,3194,excel,20,1774,2904,0,0,,1
5e8209ae9c77a701e51fd83b,tn26frwp0f,Nick_Dissertation_EX1,1,327,2020-06-02T09:32:07-07:00,4.3687958717346,1,versionA_stim.csv,READVersionA.csv,"Read Version A","Dissertation, read only version A",ALONE,LONELY,Study2,S,145,98,Test,User,-,,Recall,Recall2,4032,now,22.222222222222,3482,3887,0,0,,1
5e8209ae9c77a701e51fd83b,tn26frwp0f,Nick_Dissertation_EX1,1,328,2020-06-02T09:32:11-07:00,4.1152210235596,1,versionA_stim.csv,READVersionA.csv,"Read Version A","Dissertation, read only version A",RAZOR,SHAVE,Study2,S,136,157,Test,User,-,,Recall,Recall2,3789,shave,100,2557,3489,1,1,,1
5e8209ae9c77a701e51fd83b,tn26frwp0f,Nick_Dissertation_EX1,1,329,2020-06-02T09:32:14-07:00,2.9920420646667,1,versionA_stim.csv,READVersionA.csv,"Read Version A","Dissertation, read only version A",BEST,FAVORITE,Study2,B,125,125,Test,User,-,,Recall,Recall2,2656,friend,57.142857142857,1569,2480,0,0,,1
5e8209ae9c77a701e51fd83b,tn26frwp0f,Nick_Dissertation_EX1,1,330,2020-06-02T09:32:22-07:00,8.5555629730225,1,versionA_stim.csv,READVersionA.csv,"Read Version A","Dissertation, read only version A",ROD,REEL,Study2,S,150,99,Test,User,-,,Recall,Recall2,8221,fish,0,2280,7846,0,0,,1
5e8209ae9c77a701e51fd83b,tn26frwp0f,Nick_Dissertation_EX1,1,331,2020-06-02T09:32:26-07:00,3.5274131298065,1,versionA_stim.csv,READVersionA.csv,"Read Version A","Dissertation, read only version A",BAD,VILLAIN,Study2,B,118,100,Test,User,-,,Recall,Recall2,3191,name,18.181818181818,1975,3001,0,0,,1
5e8209ae9c77a701e51fd83b,tn26frwp0f,Nick_Dissertation_EX1,1,332,2020-06-02T09:32:29-07:00,3.2698400020599,1,versionA_stim.csv,READVersionA.csv,"Read Version A","Dissertation, read only version A",FIGHT,BRAWL,Study2,B,135,101,Test,User,-,,Recall,Recall2,2957,fear,22.222222222222,1987,2795,0,0,,1
5e8209ae9c77a701e51fd83b,tn26frwp0f,Nick_Dissertation_EX1,1,333,2020-06-02T09:32:33-07:00,3.5547850131989,1,versionA_stim.csv,READVersionA.csv,"Read Version A","Dissertation, read only version A",CHOP,CUT,Study2,F,107,105,Test,User,-,,Recall,Recall2,3213,lamb,0,2202,2955,0,0,,1
5e8209ae9c77a701e51fd83b,tn26frwp0f,Nick_Dissertation_EX1,1,334,2020-06-02T09:32:38-07:00,4.8282198905945,1,versionA_stim.csv,READVersionA.csv,"Read Version A","Dissertation, read only version A",DRY,WET,Study2,S,146,135,Test,User,-,,Recall,Recall2,4501,martini,20,2410,4162,0,0,,1
5e8209ae9c77a701e51fd83b,tn26frwp0f,Nick_Dissertation_EX1,1,335,2020-06-02T09:32:41-07:00,3.7537820339203,1,versionA_stim.csv,READVersionA.csv,"Read Version A","Dissertation, read only version A",SCALP,HEAD,Study2,F,105,137,Test,User,-,,Recall,Recall2,3427,head,100,2553,3181,1,1,,1
5e8209ae9c77a701e51fd83b,tn26frwp0f,Nick_Dissertation_EX1,1,336,2020-06-02T09:32:45-07:00,3.7311060428619,1,versionA_stim.csv,READVersionA.csv,"Read Version A","Dissertation, read only version A",PLANE,AIRCRAFT,Study2,B,129,165,Test,User,-,,Recall,Recall2,3398,wings,15.384615384615,2067,3128,0,0,,1
5e8209ae9c77a701e51fd83b,tn26frwp0f,Nick_Dissertation_EX1,1,337,2020-06-02T09:32:52-07:00,6.9779658317566,1,versionA_stim.csv,READVersionA.csv,"Read Version A","Dissertation, read only version A",FURRY,DOG,Study2,F,102,138,Test,User,-,,Recall,Recall2,6650,bear,0,5673,6474,0,0,,1
5e8209ae9c77a701e51fd83b,tn26frwp0f,Nick_Dissertation_EX1,1,338,2020-06-02T09:32:55-07:00,2.393984079361,1,versionA_stim.csv,READVersionA.csv,"Read Version A","Dissertation, read only version A",AFFECTION,LOVE,Study2,F,115,124,Test,User,-,,Recall,Recall2,2058,love,100,1269,1921,1,1,,1
5e8209ae9c77a701e51fd83b,tn26frwp0f,Nick_Dissertation_EX1,1,339,2020-06-02T09:33:00-07:00,5.4848039150238,1,versionA_stim.csv,READVersionA.csv,"Read Version A","Dissertation, read only version A",CLUE,GAME,Study2,F,97,97,Test,User,-,,Recall,Recall2,5150,hint,0,4090,4879,0,0,,1
5e8209ae9c77a701e51fd83b,tn26frwp0f,Nick_Dissertation_EX1,1,340,2020-06-02T09:33:03-07:00,3.0422031879425,1,versionA_stim.csv,READVersionA.csv,"Read Version A","Dissertation, read only version A",GONE,AWAY,Study2,S,142,119,Test,User,-,,Recall,Recall2,2699,away,100,1671,2404,1,1,,1
5e8209ae9c77a701e51fd83b,tn26frwp0f,Nick_Dissertation_EX1,1,341,2020-06-02T09:33:08-07:00,4.9194819927216,1,versionA_stim.csv,READVersionA.csv,"Read Version A","Dissertation, read only version A",INCENSE,SMELL,Study2,F,110,173,Test,User,-,,Recall,Recall2,4584,scent,40,3614,4448,0,0,,1
5e8209ae9c77a701e51fd83b,tn26frwp0f,Nick_Dissertation_EX1,1,342,2020-06-02T09:33:13-07:00,5.112420797348,1,versionA_stim.csv,READVersionA.csv,"Read Version A","Dissertation, read only version A",BIRD,PENGUIN,Study2,B,119,109,Test,User,-,,Recall,Recall2,4776,prey,36.363636363636,3669,4533,0,0,,1
5e8209ae9c77a701e51fd83b,tn26frwp0f,Nick_Dissertation_EX1,1,343,2020-06-02T09:33:18-07:00,4.5260801315308,1,versionA_stim.csv,READVersionA.csv,"Read Version A","Dissertation, read only version A",TURN,FLIP,Study2,B,116,164,Test,User,-,,Recall,Recall2,4201,rotate,0,2910,4035,0,0,,1
5e8209ae9c77a701e51fd83b,tn26frwp0f,Nick_Dissertation_EX1,1,344,2020-06-02T09:33:24-07:00,6.8106410503387,1,versionA_stim.csv,READVersionA.csv,"Read Version A","Dissertation, read only version A",SHOELACE,TIE,Study2,F,99,174,Test,User,-,,Recall,Recall2,6481,run,0,5687,6079,0,0,,1
5e8209ae9c77a701e51fd83b,tn26frwp0f,Nick_Dissertation_EX1,1,345,2020-06-02T09:33:38-07:00,14.012272834778,1,versionA_stim.csv,READVersionA.csv,"Read Version A","Dissertation, read only version A",DRIVER,CAR,Study2,F,106,129,Test,User,-,,Recall,Recall2,13589,money,0,4032,13268,0,0,,1
5e8209ae9c77a701e51fd83b,tn26frwp0f,Nick_Dissertation_EX1,1,346,2020-06-02T09:33:47-07:00,8.6200129985809,1,versionA_stim.csv,READVersionA.csv,"Read Version A","Dissertation, read only version A",MASON,JAR,Study2,S,138,130,Test,User,-,,Recall,Recall2,8224,stone,0,6921,8082,0,0,,1
