Username,ID,ExperimentName,Session,Trial,Date,TimeDif,"Condition Number","Stimuli File","Order File","Condition Description","Condition Notes",Stimuli*Cue,Stimuli*Answer,Stimuli*Shuffle,"Stimuli*Stimuli Notes",Stimuli*Value,Procedure*Item,"Procedure*Trial Type","Procedure*Max Time","Procedure*Min Time",Procedure*Text,"Procedure*Procedure Notes",Procedure*Shuffle,Response*RT,Response*Response,Response*Accuracy,Response*RTfirst,Response*RTlast,Response*strictAcc,Response*lenientAcc,Response*focus,Response*Focus
5cf5e1d2dbfc900001f253c5,gp2y9gmtlx,Nick_Dissertation_EX1,1,1,2020-06-02T09:13:42-07:00,10.537431001663,2,versionA_stim.csv,READVersionB.csv,"Read Version B","Dissertation, read only version B",,,,,,0,Instruct,-,10,"Please study each of the following word pairs. Remember that your memory will be tested! When finished, press Enter to move to the next pair.",Initial_Instruct,Instruct1,10211,,,-1,-1,,,,1
5cf5e1d2dbfc900001f253c5,gp2y9gmtlx,Nick_Dissertation_EX1,1,2,2020-06-02T09:13:46-07:00,4.6184139251709,2,versionA_stim.csv,READVersionB.csv,"Read Version B","Dissertation, read only version B",SHRIMP,FISH,BUFFER3,Buffer,93,96,Study,User,-,,Study/JOL,BUFFER,4091,,,-1,-1,,,,1
5cf5e1d2dbfc900001f253c5,gp2y9gmtlx,Nick_Dissertation_EX1,1,3,2020-06-02T09:13:50-07:00,3.2225561141968,2,versionA_stim.csv,READVersionB.csv,"Read Version B","Dissertation, read only version B",ICE,FROZEN,BUFFER3,Buffer,94,95,Study,User,-,,Study/JOL,BUFFER,2823,,,-1,-1,,,,1
5cf5e1d2dbfc900001f253c5,gp2y9gmtlx,Nick_Dissertation_EX1,1,4,2020-06-02T09:13:53-07:00,3.1064069271088,2,versionA_stim.csv,READVersionB.csv,"Read Version B","Dissertation, read only version B",NOODLE,STRING,BUFFER3,Buffer,92,94,Study,User,-,,Study/JOL,BUFFER,2719,,,-1,-1,,,,1
5cf5e1d2dbfc900001f253c5,gp2y9gmtlx,Nick_Dissertation_EX1,1,5,2020-06-02T09:13:55-07:00,2.1990740299225,2,versionA_stim.csv,READVersionB.csv,"Read Version B","Dissertation, read only version B",CARROT,POTATO,BUFFER3,Buffer,91,92,Study,User,-,,Study/JOL,BUFFER,1760,,,-1,-1,,,,1
5cf5e1d2dbfc900001f253c5,gp2y9gmtlx,Nick_Dissertation_EX1,1,6,2020-06-02T09:13:58-07:00,2.7862040996552,2,versionA_stim.csv,READVersionB.csv,"Read Version B","Dissertation, read only version B",CAMP,ADVENTURE,BUFFER3,Buffer,95,93,Study,User,-,,Study/JOL,BUFFER,2349,,,-1,-1,,,,1
5cf5e1d2dbfc900001f253c5,gp2y9gmtlx,Nick_Dissertation_EX1,1,7,2020-06-02T09:13:59-07:00,1.3930840492249,2,versionA_stim.csv,READVersionB.csv,"Read Version B","Dissertation, read only version B",CACTUS,PLANT,Study2,F,98,130,Study,User,-,,Study/JOL,"Study Phase",1003,,,-1,-1,,,,1
5cf5e1d2dbfc900001f253c5,gp2y9gmtlx,Nick_Dissertation_EX1,1,8,2020-06-02T09:14:02-07:00,3.1140508651733,2,versionA_stim.csv,READVersionB.csv,"Read Version B","Dissertation, read only version B",MAIN,SCAR,Study2,U,175,112,Study,User,-,,Study/JOL,"Study Phase",2695,,,-1,-1,,,,1
5cf5e1d2dbfc900001f253c5,gp2y9gmtlx,Nick_Dissertation_EX1,1,9,2020-06-02T09:14:06-07:00,3.2621309757233,2,versionA_stim.csv,READVersionB.csv,"Read Version B","Dissertation, read only version B",TEMPERATURE,Morning,Study2,U,173,123,Study,User,-,,Study/JOL,"Study Phase",2867,,,-1,-1,,,,1
5cf5e1d2dbfc900001f253c5,gp2y9gmtlx,Nick_Dissertation_EX1,1,10,2020-06-02T09:14:08-07:00,2.5457220077515,2,versionA_stim.csv,READVersionB.csv,"Read Version B","Dissertation, read only version B",FURRY,DOG,Study2,F,102,175,Study,User,-,,Study/JOL,"Study Phase",2131,,,-1,-1,,,,1
5cf5e1d2dbfc900001f253c5,gp2y9gmtlx,Nick_Dissertation_EX1,1,11,2020-06-02T09:14:12-07:00,4.4254250526428,2,versionA_stim.csv,READVersionB.csv,"Read Version B","Dissertation, read only version B",GLASS,BREAKABLE,Study2,B,127,144,Study,User,-,,Study/JOL,"Study Phase",2916,,,-1,-1,,,,1
5cf5e1d2dbfc900001f253c5,gp2y9gmtlx,Nick_Dissertation_EX1,1,12,2020-06-02T09:14:16-07:00,3.9300699234009,2,versionA_stim.csv,READVersionB.csv,"Read Version B","Dissertation, read only version B",FLEA,TICK,Study2,S,151,111,Study,User,-,,Study/JOL,"Study Phase",3476,,,-1,-1,,,,1
5cf5e1d2dbfc900001f253c5,gp2y9gmtlx,Nick_Dissertation_EX1,1,13,2020-06-02T09:14:23-07:00,6.6907889842987,2,versionA_stim.csv,READVersionB.csv,"Read Version B","Dissertation, read only version B",LEASE,TOIL,Study2,U,170,98,Study,User,-,,Study/JOL,"Study Phase",6302,,,-1,-1,,,,1
5cf5e1d2dbfc900001f253c5,gp2y9gmtlx,Nick_Dissertation_EX1,1,14,2020-06-02T09:14:27-07:00,3.4198451042175,2,versionA_stim.csv,READVersionB.csv,"Read Version B","Dissertation, read only version B",RAZOR,SHAVE,Study2,S,136,122,Study,User,-,,Study/JOL,"Study Phase",2977,,,-1,-1,,,,1
5cf5e1d2dbfc900001f253c5,gp2y9gmtlx,Nick_Dissertation_EX1,1,15,2020-06-02T09:14:31-07:00,4.9558980464935,2,versionA_stim.csv,READVersionB.csv,"Read Version B","Dissertation, read only version B",PLANE,AIRCRAFT,Study2,B,129,163,Study,User,-,,Study/JOL,"Study Phase",4557,,,-1,-1,,,,1
5cf5e1d2dbfc900001f253c5,gp2y9gmtlx,Nick_Dissertation_EX1,1,16,2020-06-02T09:14:35-07:00,3.7573339939117,2,versionA_stim.csv,READVersionB.csv,"Read Version B","Dissertation, read only version B",KEYS,JOKE,Study2,U,165,114,Study,User,-,,Study/JOL,"Study Phase",3383,,,-1,-1,,,,1
5cf5e1d2dbfc900001f253c5,gp2y9gmtlx,Nick_Dissertation_EX1,1,17,2020-06-02T09:14:40-07:00,4.452761888504,2,versionA_stim.csv,READVersionB.csv,"Read Version B","Dissertation, read only version B",SCALP,HEAD,Study2,F,105,164,Study,User,-,,Study/JOL,"Study Phase",4038,,,-1,-1,,,,1
5cf5e1d2dbfc900001f253c5,gp2y9gmtlx,Nick_Dissertation_EX1,1,18,2020-06-02T09:14:47-07:00,7.3635339736938,2,versionA_stim.csv,READVersionB.csv,"Read Version B","Dissertation, read only version B",BEST,FAVORITE,Study2,B,125,125,Study,User,-,,Study/JOL,"Study Phase",6982,,,-1,-1,,,,1
5cf5e1d2dbfc900001f253c5,gp2y9gmtlx,Nick_Dissertation_EX1,1,19,2020-06-02T09:14:51-07:00,3.9469079971313,2,versionA_stim.csv,READVersionB.csv,"Read Version B","Dissertation, read only version B",MASON,JAR,Study2,S,138,176,Study,User,-,,Study/JOL,"Study Phase",3377,,,-1,-1,,,,1
5cf5e1d2dbfc900001f253c5,gp2y9gmtlx,Nick_Dissertation_EX1,1,20,2020-06-02T09:14:57-07:00,5.8065531253815,2,versionA_stim.csv,READVersionB.csv,"Read Version B","Dissertation, read only version B",DOCUMENT,PAPER,Study2,F,109,149,Study,User,-,,Study/JOL,"Study Phase",5382,,,-1,-1,,,,1
5cf5e1d2dbfc900001f253c5,gp2y9gmtlx,Nick_Dissertation_EX1,1,21,2020-06-02T09:15:01-07:00,3.8497428894043,2,versionA_stim.csv,READVersionB.csv,"Read Version B","Dissertation, read only version B",DRIVER,CAR,Study2,F,106,157,Study,User,-,,Study/JOL,"Study Phase",3438,,,-1,-1,,,,1
5cf5e1d2dbfc900001f253c5,gp2y9gmtlx,Nick_Dissertation_EX1,1,22,2020-06-02T09:15:03-07:00,2.539036989212,2,versionA_stim.csv,READVersionB.csv,"Read Version B","Dissertation, read only version B",MULE,DONKEY,Study2,F,108,117,Study,User,-,,Study/JOL,"Study Phase",2081,,,-1,-1,,,,1
5cf5e1d2dbfc900001f253c5,gp2y9gmtlx,Nick_Dissertation_EX1,1,23,2020-06-02T09:15:12-07:00,9.2697880268097,2,versionA_stim.csv,READVersionB.csv,"Read Version B","Dissertation, read only version B",CAKE,CLOTHES,Study2,U,166,165,Study,User,-,,Study/JOL,"Study Phase",7832,,,-1,-1,,,,1
5cf5e1d2dbfc900001f253c5,gp2y9gmtlx,Nick_Dissertation_EX1,1,24,2020-06-02T09:15:19-07:00,6.6776919364929,2,versionA_stim.csv,READVersionB.csv,"Read Version B","Dissertation, read only version B",EXTENSION,LONG,Study2,F,96,113,Study,User,-,,Study/JOL,"Study Phase",6231,,,-1,-1,,,,1
5cf5e1d2dbfc900001f253c5,gp2y9gmtlx,Nick_Dissertation_EX1,1,25,2020-06-02T09:15:24-07:00,4.685791015625,2,versionA_stim.csv,READVersionB.csv,"Read Version B","Dissertation, read only version B",FISH,SARDINE,Study2,B,130,145,Study,User,-,,Study/JOL,"Study Phase",4265,,,-1,-1,,,,1
5cf5e1d2dbfc900001f253c5,gp2y9gmtlx,Nick_Dissertation_EX1,1,26,2020-06-02T09:15:29-07:00,5.5076441764832,2,versionA_stim.csv,READVersionB.csv,"Read Version B","Dissertation, read only version B",SHOELACE,TIE,Study2,F,99,126,Study,User,-,,Study/JOL,"Study Phase",3952,,,-1,-1,,,,1
5cf5e1d2dbfc900001f253c5,gp2y9gmtlx,Nick_Dissertation_EX1,1,27,2020-06-02T09:15:32-07:00,2.1991758346558,2,versionA_stim.csv,READVersionB.csv,"Read Version B","Dissertation, read only version B",VEHICLE,CHARM,Study2,U,160,166,Study,User,-,,Study/JOL,"Study Phase",1769,,,-1,-1,,,,1
5cf5e1d2dbfc900001f253c5,gp2y9gmtlx,Nick_Dissertation_EX1,1,28,2020-06-02T09:15:35-07:00,3.2423219680786,2,versionA_stim.csv,READVersionB.csv,"Read Version B","Dissertation, read only version B",WATER,DRINK,Study2,S,143,129,Study,User,-,,Study/JOL,"Study Phase",2850,,,-1,-1,,,,1
5cf5e1d2dbfc900001f253c5,gp2y9gmtlx,Nick_Dissertation_EX1,1,29,2020-06-02T09:15:40-07:00,4.7373750209808,2,versionA_stim.csv,READVersionB.csv,"Read Version B","Dissertation, read only version B",INCENSE,SMELL,Study2,F,110,107,Study,User,-,,Study/JOL,"Study Phase",4328,,,-1,-1,,,,1
5cf5e1d2dbfc900001f253c5,gp2y9gmtlx,Nick_Dissertation_EX1,1,30,2020-06-02T09:15:48-07:00,8.4346849918365,2,versionA_stim.csv,READVersionB.csv,"Read Version B","Dissertation, read only version B",DETECTIVE,MYSTERY,Study2,F,100,101,Study,User,-,,Study/JOL,"Study Phase",8050,,,-1,-1,,,,1
5cf5e1d2dbfc900001f253c5,gp2y9gmtlx,Nick_Dissertation_EX1,1,31,2020-06-02T09:15:49-07:00,1.3265581130981,2,versionA_stim.csv,READVersionB.csv,"Read Version B","Dissertation, read only version B",TURN,FLIP,Study2,B,116,102,Study,User,-,,Study/JOL,"Study Phase",889,,,-1,-1,,,,1
5cf5e1d2dbfc900001f253c5,gp2y9gmtlx,Nick_Dissertation_EX1,1,32,2020-06-02T09:15:52-07:00,2.331561088562,2,versionA_stim.csv,READVersionB.csv,"Read Version B","Dissertation, read only version B",NAME,HATE,Study2,U,167,105,Study,User,-,,Study/JOL,"Study Phase",1908,,,-1,-1,,,,1
5cf5e1d2dbfc900001f253c5,gp2y9gmtlx,Nick_Dissertation_EX1,1,33,2020-06-02T09:15:54-07:00,2.7199139595032,2,versionA_stim.csv,READVersionB.csv,"Read Version B","Dissertation, read only version B",STAR,ACTRESS,Study2,B,120,140,Study,User,-,,Study/JOL,"Study Phase",2302,,,-1,-1,,,,1
5cf5e1d2dbfc900001f253c5,gp2y9gmtlx,Nick_Dissertation_EX1,1,34,2020-06-02T09:15:58-07:00,3.9560608863831,2,versionA_stim.csv,READVersionB.csv,"Read Version B","Dissertation, read only version B",TRUTH,LIE,Study2,S,148,142,Study,User,-,,Study/JOL,"Study Phase",3537,,,-1,-1,,,,1
5cf5e1d2dbfc900001f253c5,gp2y9gmtlx,Nick_Dissertation_EX1,1,35,2020-06-02T09:16:03-07:00,4.8917739391327,2,versionA_stim.csv,READVersionB.csv,"Read Version B","Dissertation, read only version B",GIVE,STEAK,Study2,U,158,156,Study,User,-,,Study/JOL,"Study Phase",4456,,,-1,-1,,,,1
5cf5e1d2dbfc900001f253c5,gp2y9gmtlx,Nick_Dissertation_EX1,1,36,2020-06-02T09:16:07-07:00,4.2871220111847,2,versionA_stim.csv,READVersionB.csv,"Read Version B","Dissertation, read only version B",EVEN,REVENGE,Study2,B,122,161,Study,User,-,,Study/JOL,"Study Phase",3842,,,-1,-1,,,,1
5cf5e1d2dbfc900001f253c5,gp2y9gmtlx,Nick_Dissertation_EX1,1,37,2020-06-02T09:16:13-07:00,5.8618841171265,2,versionA_stim.csv,READVersionB.csv,"Read Version B","Dissertation, read only version B",RIGHTS,EQUAL,Study2,S,137,158,Study,User,-,,Study/JOL,"Study Phase",5417,,,-1,-1,,,,1
5cf5e1d2dbfc900001f253c5,gp2y9gmtlx,Nick_Dissertation_EX1,1,38,2020-06-02T09:16:18-07:00,4.3363718986511,2,versionA_stim.csv,READVersionB.csv,"Read Version B","Dissertation, read only version B",JUSTICE,MAROON,Study2,U,156,120,Study,User,-,,Study/JOL,"Study Phase",3902,,,-1,-1,,,,1
5cf5e1d2dbfc900001f253c5,gp2y9gmtlx,Nick_Dissertation_EX1,1,39,2020-06-02T09:16:21-07:00,3.2525441646576,2,versionA_stim.csv,READVersionB.csv,"Read Version B","Dissertation, read only version B",LOAN,SIGN,Study2,U,171,148,Study,User,-,,Study/JOL,"Study Phase",2849,,,-1,-1,,,,1
5cf5e1d2dbfc900001f253c5,gp2y9gmtlx,Nick_Dissertation_EX1,1,40,2020-06-02T09:16:24-07:00,3.4956250190735,2,versionA_stim.csv,READVersionB.csv,"Read Version B","Dissertation, read only version B",DINE,EAT,Study2,F,111,138,Study,User,-,,Study/JOL,"Study Phase",3067,,,-1,-1,,,,1
5cf5e1d2dbfc900001f253c5,gp2y9gmtlx,Nick_Dissertation_EX1,1,41,2020-06-02T09:16:28-07:00,3.8362789154053,2,versionA_stim.csv,READVersionB.csv,"Read Version B","Dissertation, read only version B",LOUD,NOISE,Study2,S,152,139,Study,User,-,,Study/JOL,"Study Phase",2370,,,-1,-1,,,,1
5cf5e1d2dbfc900001f253c5,gp2y9gmtlx,Nick_Dissertation_EX1,1,42,2020-06-02T09:16:32-07:00,3.9123980998993,2,versionA_stim.csv,READVersionB.csv,"Read Version B","Dissertation, read only version B",FUZZY,BANG,Study2,U,168,124,Study,User,-,,Study/JOL,"Study Phase",3499,,,-1,-1,,,,1
5cf5e1d2dbfc900001f253c5,gp2y9gmtlx,Nick_Dissertation_EX1,1,43,2020-06-02T09:16:35-07:00,2.7338287830353,2,versionA_stim.csv,READVersionB.csv,"Read Version B","Dissertation, read only version B",AFFECTION,LOVE,Study2,F,115,159,Study,User,-,,Study/JOL,"Study Phase",2339,,,-1,-1,,,,1
5cf5e1d2dbfc900001f253c5,gp2y9gmtlx,Nick_Dissertation_EX1,1,44,2020-06-02T09:16:39-07:00,4.4586260318756,2,versionA_stim.csv,READVersionB.csv,"Read Version B","Dissertation, read only version B",BIRD,PENGUIN,Study2,B,119,127,Study,User,-,,Study/JOL,"Study Phase",4041,,,-1,-1,,,,1
5cf5e1d2dbfc900001f253c5,gp2y9gmtlx,Nick_Dissertation_EX1,1,45,2020-06-02T09:16:43-07:00,3.8308429718018,2,versionA_stim.csv,READVersionB.csv,"Read Version B","Dissertation, read only version B",BAD,VILLAIN,Study2,B,118,115,Study,User,-,,Study/JOL,"Study Phase",2393,,,-1,-1,,,,1
5cf5e1d2dbfc900001f253c5,gp2y9gmtlx,Nick_Dissertation_EX1,1,46,2020-06-02T09:16:47-07:00,3.3844339847565,2,versionA_stim.csv,READVersionB.csv,"Read Version B","Dissertation, read only version B",GONE,AWAY,Study2,S,142,173,Study,User,-,,Study/JOL,"Study Phase",1960,,,-1,-1,,,,1
5cf5e1d2dbfc900001f253c5,gp2y9gmtlx,Nick_Dissertation_EX1,1,47,2020-06-02T09:16:49-07:00,2.518559217453,2,versionA_stim.csv,READVersionB.csv,"Read Version B","Dissertation, read only version B",SHEARS,SCISSORS,Study2,F,112,162,Study,User,-,,Study/JOL,"Study Phase",2006,,,-1,-1,,,,1
5cf5e1d2dbfc900001f253c5,gp2y9gmtlx,Nick_Dissertation_EX1,1,48,2020-06-02T09:16:51-07:00,1.5973539352417,2,versionA_stim.csv,READVersionB.csv,"Read Version B","Dissertation, read only version B",WRIST,BRACELET,Study2,S,140,137,Study,User,-,,Study/JOL,"Study Phase",1192,,,-1,-1,,,,1
5cf5e1d2dbfc900001f253c5,gp2y9gmtlx,Nick_Dissertation_EX1,1,49,2020-06-02T09:16:52-07:00,1.7539820671082,2,versionA_stim.csv,READVersionB.csv,"Read Version B","Dissertation, read only version B",FEUD,FIGHT,Study2,F,113,155,Study,User,-,,Study/JOL,"Study Phase",1325,,,-1,-1,,,,1
5cf5e1d2dbfc900001f253c5,gp2y9gmtlx,Nick_Dissertation_EX1,1,50,2020-06-02T09:16:54-07:00,1.3645269870758,2,versionA_stim.csv,READVersionB.csv,"Read Version B","Dissertation, read only version B",PHONE,COMMUNICATION,Study2,S,149,172,Study,User,-,,Study/JOL,"Study Phase",950,,,-1,-1,,,,1
5cf5e1d2dbfc900001f253c5,gp2y9gmtlx,Nick_Dissertation_EX1,1,51,2020-06-02T09:16:55-07:00,1.3028519153595,2,versionA_stim.csv,READVersionB.csv,"Read Version B","Dissertation, read only version B",SAFETY,SEATBELT,Study2,S,147,134,Study,User,-,,Study/JOL,"Study Phase",817,,,-1,-1,,,,1
5cf5e1d2dbfc900001f253c5,gp2y9gmtlx,Nick_Dissertation_EX1,1,52,2020-06-02T09:16:57-07:00,2.1606149673462,2,versionA_stim.csv,READVersionB.csv,"Read Version B","Dissertation, read only version B",ROD,REEL,Study2,S,150,135,Study,User,-,,Study/JOL,"Study Phase",690,,,-1,-1,,,,1
5cf5e1d2dbfc900001f253c5,gp2y9gmtlx,Nick_Dissertation_EX1,1,53,2020-06-02T09:16:58-07:00,1.1643099784851,2,versionA_stim.csv,READVersionB.csv,"Read Version B","Dissertation, read only version B",CHERRY,RED,Study2,F,104,150,Study,User,-,,Study/JOL,"Study Phase",730,,,-1,-1,,,,1
5cf5e1d2dbfc900001f253c5,gp2y9gmtlx,Nick_Dissertation_EX1,1,54,2020-06-02T09:17:00-07:00,1.8000640869141,2,versionA_stim.csv,READVersionB.csv,"Read Version B","Dissertation, read only version B",CAT,PANTHER,Study2,B,126,170,Study,User,-,,Study/JOL,"Study Phase",1409,,,-1,-1,,,,1
5cf5e1d2dbfc900001f253c5,gp2y9gmtlx,Nick_Dissertation_EX1,1,55,2020-06-02T09:17:02-07:00,1.2837970256805,2,versionA_stim.csv,READVersionB.csv,"Read Version B","Dissertation, read only version B",HONEST,TRUTHFUL,Study2,B,133,152,Study,User,-,,Study/JOL,"Study Phase",859,,,-1,-1,,,,1
5cf5e1d2dbfc900001f253c5,gp2y9gmtlx,Nick_Dissertation_EX1,1,56,2020-06-02T09:17:03-07:00,1.2361578941345,2,versionA_stim.csv,READVersionB.csv,"Read Version B","Dissertation, read only version B",MAZE,ELECTION,Study2,U,159,171,Study,User,-,,Study/JOL,"Study Phase",851,,,-1,-1,,,,1
5cf5e1d2dbfc900001f253c5,gp2y9gmtlx,Nick_Dissertation_EX1,1,57,2020-06-02T09:17:04-07:00,1.6600520610809,2,versionA_stim.csv,READVersionB.csv,"Read Version B","Dissertation, read only version B",STRETCH,CLOTH,Study2,U,157,97,Study,User,-,,Study/JOL,"Study Phase",1265,,,-1,-1,,,,1
5cf5e1d2dbfc900001f253c5,gp2y9gmtlx,Nick_Dissertation_EX1,1,58,2020-06-02T09:17:06-07:00,1.8805708885193,2,versionA_stim.csv,READVersionB.csv,"Read Version B","Dissertation, read only version B",TANTRUM,TEMPER,Study2,S,154,167,Study,User,-,,Study/JOL,"Study Phase",1483,,,-1,-1,,,,1
5cf5e1d2dbfc900001f253c5,gp2y9gmtlx,Nick_Dissertation_EX1,1,59,2020-06-02T09:17:07-07:00,0.84557819366455,2,versionA_stim.csv,READVersionB.csv,"Read Version B","Dissertation, read only version B",CHOP,CUT,Study2,F,107,151,Study,User,-,,Study/JOL,"Study Phase",394,,,-1,-1,,,,1
5cf5e1d2dbfc900001f253c5,gp2y9gmtlx,Nick_Dissertation_EX1,1,60,2020-06-02T09:17:08-07:00,0.77517700195312,2,versionA_stim.csv,READVersionB.csv,"Read Version B","Dissertation, read only version B",OWN,HAVE,Study2,S,153,174,Study,User,-,,Study/JOL,"Study Phase",384,,,-1,-1,,,,1
5cf5e1d2dbfc900001f253c5,gp2y9gmtlx,Nick_Dissertation_EX1,1,61,2020-06-02T09:17:09-07:00,0.83974695205688,2,versionA_stim.csv,READVersionB.csv,"Read Version B","Dissertation, read only version B",SUN,TAN,Study2,S,155,168,Study,User,-,,Study/JOL,"Study Phase",465,,,-1,-1,,,,1
5cf5e1d2dbfc900001f253c5,gp2y9gmtlx,Nick_Dissertation_EX1,1,62,2020-06-02T09:17:10-07:00,1.5356419086456,2,versionA_stim.csv,READVersionB.csv,"Read Version B","Dissertation, read only version B",THREAD,THIMBLE,Study2,B,121,128,Study,User,-,,Study/JOL,"Study Phase",1147,,,-1,-1,,,,1
5cf5e1d2dbfc900001f253c5,gp2y9gmtlx,Nick_Dissertation_EX1,1,63,2020-06-02T09:17:11-07:00,0.82595491409302,2,versionA_stim.csv,READVersionB.csv,"Read Version B","Dissertation, read only version B",EARTH,GROUND,Study2,S,144,146,Study,User,-,,Study/JOL,"Study Phase",420,,,-1,-1,,,,1
5cf5e1d2dbfc900001f253c5,gp2y9gmtlx,Nick_Dissertation_EX1,1,64,2020-06-02T09:17:12-07:00,1.0672631263733,2,versionA_stim.csv,READVersionB.csv,"Read Version B","Dissertation, read only version B",ADJOURN,END,Study2,F,101,154,Study,User,-,,Study/JOL,"Study Phase",674,,,-1,-1,,,,1
5cf5e1d2dbfc900001f253c5,gp2y9gmtlx,Nick_Dissertation_EX1,1,65,2020-06-02T09:17:13-07:00,0.82593297958374,2,versionA_stim.csv,READVersionB.csv,"Read Version B","Dissertation, read only version B",BOTH,OUNCE,Study2,U,172,109,Study,User,-,,Study/JOL,"Study Phase",435,,,-1,-1,,,,1
5cf5e1d2dbfc900001f253c5,gp2y9gmtlx,Nick_Dissertation_EX1,1,66,2020-06-02T09:17:16-07:00,3.3726170063019,2,versionA_stim.csv,READVersionB.csv,"Read Version B","Dissertation, read only version B",MEAT,OBTAIN,Study2,U,161,141,Study,User,-,,Study/JOL,"Study Phase",2978,,,-1,-1,,,,1
5cf5e1d2dbfc900001f253c5,gp2y9gmtlx,Nick_Dissertation_EX1,1,67,2020-06-02T09:17:17-07:00,1.0291020870209,2,versionA_stim.csv,READVersionB.csv,"Read Version B","Dissertation, read only version B",BASEBALL,LEAGUE,Study2,B,131,108,Study,User,-,,Study/JOL,"Study Phase",581,,,-1,-1,,,,1
5cf5e1d2dbfc900001f253c5,gp2y9gmtlx,Nick_Dissertation_EX1,1,68,2020-06-02T09:17:18-07:00,0.85156202316284,2,versionA_stim.csv,READVersionB.csv,"Read Version B","Dissertation, read only version B",CAR,WINDSHIELD,Study2,B,117,136,Study,User,-,,Study/JOL,"Study Phase",423,,,-1,-1,,,,1
5cf5e1d2dbfc900001f253c5,gp2y9gmtlx,Nick_Dissertation_EX1,1,69,2020-06-02T09:17:19-07:00,0.83226990699768,2,versionA_stim.csv,READVersionB.csv,"Read Version B","Dissertation, read only version B",ALONE,LONELY,Study2,S,145,121,Study,User,-,,Study/JOL,"Study Phase",432,,,-1,-1,,,,1
5cf5e1d2dbfc900001f253c5,gp2y9gmtlx,Nick_Dissertation_EX1,1,70,2020-06-02T09:17:20-07:00,0.84793210029602,2,versionA_stim.csv,READVersionB.csv,"Read Version B","Dissertation, read only version B",FIGHT,BRAWL,Study2,B,135,118,Study,User,-,,Study/JOL,"Study Phase",443,,,-1,-1,,,,1
5cf5e1d2dbfc900001f253c5,gp2y9gmtlx,Nick_Dissertation_EX1,1,71,2020-06-02T09:17:21-07:00,0.9687237739563,2,versionA_stim.csv,READVersionB.csv,"Read Version B","Dissertation, read only version B",CLUE,GAME,Study2,F,97,169,Study,User,-,,Study/JOL,"Study Phase",531,,,-1,-1,,,,1
5cf5e1d2dbfc900001f253c5,gp2y9gmtlx,Nick_Dissertation_EX1,1,72,2020-06-02T09:17:22-07:00,1.1496841907501,2,versionA_stim.csv,READVersionB.csv,"Read Version B","Dissertation, read only version B",DRY,WET,Study2,S,146,132,Study,User,-,,Study/JOL,"Study Phase",720,,,-1,-1,,,,1
5cf5e1d2dbfc900001f253c5,gp2y9gmtlx,Nick_Dissertation_EX1,1,73,2020-06-02T09:17:23-07:00,0.76300001144409,2,versionA_stim.csv,READVersionB.csv,"Read Version B","Dissertation, read only version B",LITTER,TRASH,Study2,F,103,116,Study,User,-,,Study/JOL,"Study Phase",360,,,-1,-1,,,,1
5cf5e1d2dbfc900001f253c5,gp2y9gmtlx,Nick_Dissertation_EX1,1,74,2020-06-02T09:17:24-07:00,0.74282193183899,2,versionA_stim.csv,READVersionB.csv,"Read Version B","Dissertation, read only version B",CHILL,COLD,Study2,F,114,119,Study,User,-,,Study/JOL,"Study Phase",345,,,-1,-1,,,,1
5cf5e1d2dbfc900001f253c5,gp2y9gmtlx,Nick_Dissertation_EX1,1,75,2020-06-02T09:17:24-07:00,0.77575588226318,2,versionA_stim.csv,READVersionB.csv,"Read Version B","Dissertation, read only version B",Shell,SHAKE,Study2,U,163,160,Study,User,-,,Study/JOL,"Study Phase",379,,,-1,-1,,,,1
5cf5e1d2dbfc900001f253c5,gp2y9gmtlx,Nick_Dissertation_EX1,1,76,2020-06-02T09:17:25-07:00,0.8222861289978,2,versionA_stim.csv,READVersionB.csv,"Read Version B","Dissertation, read only version B",CANDLE,WAX,Study2,S,139,133,Study,User,-,,Study/JOL,"Study Phase",433,,,-1,-1,,,,1
5cf5e1d2dbfc900001f253c5,gp2y9gmtlx,Nick_Dissertation_EX1,1,77,2020-06-02T09:17:26-07:00,0.7522120475769,2,versionA_stim.csv,READVersionB.csv,"Read Version B","Dissertation, read only version B",POP,BALLOON,Study2,B,123,100,Study,User,-,,Study/JOL,"Study Phase",356,,,-1,-1,,,,1
5cf5e1d2dbfc900001f253c5,gp2y9gmtlx,Nick_Dissertation_EX1,1,78,2020-06-02T09:17:27-07:00,0.73788189888,2,versionA_stim.csv,READVersionB.csv,"Read Version B","Dissertation, read only version B",FRUIT,STRAWBERRY,Study2,B,124,147,Study,User,-,,Study/JOL,"Study Phase",349,,,-1,-1,,,,1
5cf5e1d2dbfc900001f253c5,gp2y9gmtlx,Nick_Dissertation_EX1,1,79,2020-06-02T09:17:27-07:00,0.7423529624939,2,versionA_stim.csv,READVersionB.csv,"Read Version B","Dissertation, read only version B",MIRROR,CHILDREN,Study2,U,174,106,Study,User,-,,Study/JOL,"Study Phase",338,,,-1,-1,,,,1
5cf5e1d2dbfc900001f253c5,gp2y9gmtlx,Nick_Dissertation_EX1,1,80,2020-06-02T09:17:28-07:00,0.69737195968628,2,versionA_stim.csv,READVersionB.csv,"Read Version B","Dissertation, read only version B",LISTEN,FICTION,Study2,U,164,131,Study,User,-,,Study/JOL,"Study Phase",320,,,-1,-1,,,,1
5cf5e1d2dbfc900001f253c5,gp2y9gmtlx,Nick_Dissertation_EX1,1,81,2020-06-02T09:17:34-07:00,5.4473171234131,2,versionA_stim.csv,READVersionB.csv,"Read Version B","Dissertation, read only version B",SLEEP,NAP,Study2,B,134,99,Study,User,-,,Study/JOL,"Study Phase",5070,,,-1,-1,,,,1
5cf5e1d2dbfc900001f253c5,gp2y9gmtlx,Nick_Dissertation_EX1,1,82,2020-06-02T09:17:38-07:00,4.0346839427948,2,versionA_stim.csv,READVersionB.csv,"Read Version B","Dissertation, read only version B",DEAD,COFFIN,Study2,B,128,104,Study,User,-,,Study/JOL,"Study Phase",3630,,,-1,-1,,,,1
5cf5e1d2dbfc900001f253c5,gp2y9gmtlx,Nick_Dissertation_EX1,1,83,2020-06-02T09:17:41-07:00,2.9933021068573,2,versionA_stim.csv,READVersionB.csv,"Read Version B","Dissertation, read only version B",MONEY,BANKER,Study2,B,132,110,Study,User,-,,Study/JOL,"Study Phase",2578,,,-1,-1,,,,1
5cf5e1d2dbfc900001f253c5,gp2y9gmtlx,Nick_Dissertation_EX1,1,84,2020-06-02T09:17:46-07:00,4.9658939838409,2,versionA_stim.csv,READVersionB.csv,"Read Version B","Dissertation, read only version B",ELEMENT,CARBON,Study2,S,141,103,Study,User,-,,Study/JOL,"Study Phase",4534,,,-1,-1,,,,1
5cf5e1d2dbfc900001f253c5,gp2y9gmtlx,Nick_Dissertation_EX1,1,85,2020-06-02T09:17:48-07:00,2.3492109775543,2,versionA_stim.csv,READVersionB.csv,"Read Version B","Dissertation, read only version B",MOAT,CLEAR,Study2,U,169,153,Study,User,-,,Study/JOL,"Study Phase",1946,,,-1,-1,,,,1
5cf5e1d2dbfc900001f253c5,gp2y9gmtlx,Nick_Dissertation_EX1,1,86,2020-06-02T09:17:52-07:00,4.3798830509186,2,versionA_stim.csv,READVersionB.csv,"Read Version B","Dissertation, read only version B",CRACKLE,ABLE,Study2,U,162,143,Study,User,-,,Study/JOL,"Study Phase",3979,,,-1,-1,,,,1
5cf5e1d2dbfc900001f253c5,gp2y9gmtlx,Nick_Dissertation_EX1,1,87,2020-06-02T09:17:57-07:00,4.4844589233398,2,versionA_stim.csv,READVersionB.csv,"Read Version B","Dissertation, read only version B",SPRING,MARCH,BUFFER4,Buffer,179,177,Study,User,-,,Study/JOL,BUFFER2,4101,,,-1,-1,,,,1
5cf5e1d2dbfc900001f253c5,gp2y9gmtlx,Nick_Dissertation_EX1,1,88,2020-06-02T09:18:00-07:00,3.289393901825,2,versionA_stim.csv,READVersionB.csv,"Read Version B","Dissertation, read only version B",TOOL,SHED,BUFFER4,Buffer,178,179,Study,User,-,,Study/JOL,BUFFER2,2888,,,-1,-1,,,,1
5cf5e1d2dbfc900001f253c5,gp2y9gmtlx,Nick_Dissertation_EX1,1,89,2020-06-02T09:18:01-07:00,1.0634300708771,2,versionA_stim.csv,READVersionB.csv,"Read Version B","Dissertation, read only version B",MONTH,YEAR,BUFFER4,Buffer,177,180,Study,User,-,,Study/JOL,BUFFER2,669,,,-1,-1,,,,1
5cf5e1d2dbfc900001f253c5,gp2y9gmtlx,Nick_Dissertation_EX1,1,90,2020-06-02T09:18:03-07:00,1.6548640727997,2,versionA_stim.csv,READVersionB.csv,"Read Version B","Dissertation, read only version B",DAYS,WEAKS,BUFFER4,Buffer,176,181,Study,User,-,,Study/JOL,BUFFER2,1265,,,-1,-1,,,,1
5cf5e1d2dbfc900001f253c5,gp2y9gmtlx,Nick_Dissertation_EX1,1,91,2020-06-02T09:18:05-07:00,2.080374956131,2,versionA_stim.csv,READVersionB.csv,"Read Version B","Dissertation, read only version B",OCTOBER,SPOOKY,BUFFER4,Buffer,180,178,Study,User,-,,Study/JOL,BUFFER2,1703,,,-1,-1,,,,1
5cf5e1d2dbfc900001f253c5,gp2y9gmtlx,Nick_Dissertation_EX1,1,92,2020-06-02T09:18:07-07:00,2.4740610122681,2,versionA_stim.csv,READVersionB.csv,"Read Version B","Dissertation, read only version B",,,,,,0,Instruct,User,-,"You have completed this section. Please press Enter.",Filler_Instruction,Instruct2,2083,,,-1,-1,,,,1
5cf5e1d2dbfc900001f253c5,gp2y9gmtlx,Nick_Dissertation_EX1,1,93,2020-06-02T09:20:08-07:00,120.46007204056,2,versionA_stim.csv,READVersionB.csv,"Read Version B","Dissertation, read only version B",,,,,,0,FreeRecall,120,120,"Please list the 50 US states in alphabetical order. The task will automatically advance to the next screen after two minutes.",,Filler1,120002,"Alabama, Arkansas, California, DC, Florida, Georgia, Indianna, Iowa, Kansas, Louisianna, MassacheMontana, New York, North Dakota, Pennsylvania, Rhode Island, Texas, Utah, Virginia, Washington",0,7850,119575,0,0,,1
5cf5e1d2dbfc900001f253c5,gp2y9gmtlx,Nick_Dissertation_EX1,1,94,2020-06-02T09:20:19-07:00,11.144258975983,2,versionA_stim.csv,READVersionB.csv,"Read Version B","Dissertation, read only version B",,,,,,0,Instruct,-,10,"You will now be presented with the first word from each of the previously studied item pairs. Please type the missing word. If you do not know the word, you may guess or press Enter to skip forward to the next pair.",,Instruct3,10575,,,-1,-1,,,,1
5cf5e1d2dbfc900001f253c5,gp2y9gmtlx,Nick_Dissertation_EX1,1,95,2020-06-02T09:20:22-07:00,2.9486780166626,2,versionA_stim.csv,READVersionB.csv,"Read Version B","Dissertation, read only version B",TRUTH,LIE,Study2,S,148,142,Test,User,-,,Recall,Recall1,2491,Lie,100,1490,1794,1,1,,1
5cf5e1d2dbfc900001f253c5,gp2y9gmtlx,Nick_Dissertation_EX1,1,96,2020-06-02T09:20:28-07:00,6.0074150562286,2,versionA_stim.csv,READVersionB.csv,"Read Version B","Dissertation, read only version B",DETECTIVE,MYSTERY,Study2,F,100,101,Test,User,-,,Recall,Recall1,5459,Mystery,100,4265,4934,1,1,,1
5cf5e1d2dbfc900001f253c5,gp2y9gmtlx,Nick_Dissertation_EX1,1,97,2020-06-02T09:20:33-07:00,5.1822638511658,2,versionA_stim.csv,READVersionB.csv,"Read Version B","Dissertation, read only version B",SUN,TAN,Study2,S,155,168,Test,User,-,,Recall,Recall1,4738,cloud,0,4004,4482,0,0,,1
5cf5e1d2dbfc900001f253c5,gp2y9gmtlx,Nick_Dissertation_EX1,1,98,2020-06-02T09:20:36-07:00,2.9816999435425,2,versionA_stim.csv,READVersionB.csv,"Read Version B","Dissertation, read only version B",GONE,AWAY,Study2,S,142,173,Test,User,-,,Recall,Recall1,2551,missing,0,1523,2409,0,0,,1
5cf5e1d2dbfc900001f253c5,gp2y9gmtlx,Nick_Dissertation_EX1,1,99,2020-06-02T09:20:38-07:00,1.6075530052185,2,versionA_stim.csv,READVersionB.csv,"Read Version B","Dissertation, read only version B",MASON,JAR,Study2,S,138,176,Test,User,-,,Recall,Recall1,1194,jar,100,963,1101,1,1,,1
5cf5e1d2dbfc900001f253c5,gp2y9gmtlx,Nick_Dissertation_EX1,1,100,2020-06-02T09:20:42-07:00,4.5723969936371,2,versionA_stim.csv,READVersionB.csv,"Read Version B","Dissertation, read only version B",SLEEP,NAP,Study2,B,134,99,Test,User,-,,Recall,Recall1,4140,rest,0,3658,4030,0,0,,1
5cf5e1d2dbfc900001f253c5,gp2y9gmtlx,Nick_Dissertation_EX1,1,101,2020-06-02T09:20:45-07:00,3.2107021808624,2,versionA_stim.csv,READVersionB.csv,"Read Version B","Dissertation, read only version B",SAFETY,SEATBELT,Study2,S,147,134,Test,User,-,,Recall,Recall1,2792,danger,28.571428571429,2267,2698,0,0,,1
5cf5e1d2dbfc900001f253c5,gp2y9gmtlx,Nick_Dissertation_EX1,1,102,2020-06-02T09:20:55-07:00,9.4049549102783,2,versionA_stim.csv,READVersionB.csv,"Read Version B","Dissertation, read only version B",FISH,SARDINE,Study2,B,130,145,Test,User,-,,Recall,Recall1,8962,sardine,100,1017,8804,1,1,,1
5cf5e1d2dbfc900001f253c5,gp2y9gmtlx,Nick_Dissertation_EX1,1,103,2020-06-02T09:20:57-07:00,2.2320399284363,2,versionA_stim.csv,READVersionB.csv,"Read Version B","Dissertation, read only version B",RAZOR,SHAVE,Study2,S,136,122,Test,User,-,,Recall,Recall1,1823,shave,100,1253,1663,1,1,,1
5cf5e1d2dbfc900001f253c5,gp2y9gmtlx,Nick_Dissertation_EX1,1,104,2020-06-02T09:21:00-07:00,2.9091329574585,2,versionA_stim.csv,READVersionB.csv,"Read Version B","Dissertation, read only version B",ELEMENT,CARBON,Study2,S,141,103,Test,User,-,,Recall,Recall1,2450,carbon,100,1573,2254,1,1,,1
5cf5e1d2dbfc900001f253c5,gp2y9gmtlx,Nick_Dissertation_EX1,1,105,2020-06-02T09:21:10-07:00,10.163327217102,2,versionA_stim.csv,READVersionB.csv,"Read Version B","Dissertation, read only version B",FIGHT,BRAWL,Study2,B,135,118,Test,User,-,,Recall,Recall1,9689,feud,0,8529,9281,0,0,,1
5cf5e1d2dbfc900001f253c5,gp2y9gmtlx,Nick_Dissertation_EX1,1,106,2020-06-02T09:21:13-07:00,3.0101799964905,2,versionA_stim.csv,READVersionB.csv,"Read Version B","Dissertation, read only version B",MULE,DONKEY,Study2,F,108,117,Test,User,-,,Recall,Recall1,2435,donkey,100,1513,2322,1,1,,1
5cf5e1d2dbfc900001f253c5,gp2y9gmtlx,Nick_Dissertation_EX1,1,107,2020-06-02T09:21:17-07:00,3.5993249416351,2,versionA_stim.csv,READVersionB.csv,"Read Version B","Dissertation, read only version B",CAR,WINDSHIELD,Study2,B,117,136,Test,User,-,,Recall,Recall1,3207,driver,37.5,2374,3007,0,0,,1
5cf5e1d2dbfc900001f253c5,gp2y9gmtlx,Nick_Dissertation_EX1,1,108,2020-06-02T09:21:20-07:00,2.9400179386139,2,versionA_stim.csv,READVersionB.csv,"Read Version B","Dissertation, read only version B",WRIST,BRACELET,Study2,S,140,137,Test,User,-,,Recall,Recall1,2532,watch,30.769230769231,1421,1999,0,0,,1
5cf5e1d2dbfc900001f253c5,gp2y9gmtlx,Nick_Dissertation_EX1,1,109,2020-06-02T09:21:22-07:00,1.9654181003571,2,versionA_stim.csv,READVersionB.csv,"Read Version B","Dissertation, read only version B",MOAT,CLEAR,Study2,U,169,153,Test,User,-,,Recall,Recall1,1545,clear,100,1037,1402,1,1,,1
5cf5e1d2dbfc900001f253c5,gp2y9gmtlx,Nick_Dissertation_EX1,1,110,2020-06-02T09:21:24-07:00,2.0442969799042,2,versionA_stim.csv,READVersionB.csv,"Read Version B","Dissertation, read only version B",DOCUMENT,PAPER,Study2,F,109,149,Test,User,-,,Recall,Recall1,1613,paper,100,1143,1467,1,1,,1
5cf5e1d2dbfc900001f253c5,gp2y9gmtlx,Nick_Dissertation_EX1,1,111,2020-06-02T09:21:26-07:00,1.8519530296326,2,versionA_stim.csv,READVersionB.csv,"Read Version B","Dissertation, read only version B",DRY,WET,Study2,S,146,132,Test,User,-,,Recall,Recall1,1443,wet,100,994,1217,1,1,,1
5cf5e1d2dbfc900001f253c5,gp2y9gmtlx,Nick_Dissertation_EX1,1,112,2020-06-02T09:21:30-07:00,4.8123478889465,2,versionA_stim.csv,READVersionB.csv,"Read Version B","Dissertation, read only version B",MIRROR,CHILDREN,Study2,U,174,106,Test,User,-,,Recall,Recall1,4331,clear,46.153846153846,3246,3640,0,0,,1
5cf5e1d2dbfc900001f253c5,gp2y9gmtlx,Nick_Dissertation_EX1,1,113,2020-06-02T09:21:34-07:00,4.0394339561462,2,versionA_stim.csv,READVersionB.csv,"Read Version B","Dissertation, read only version B",INCENSE,SMELL,Study2,F,110,107,Test,User,-,,Recall,Recall1,2612,burn,0,1782,2169,0,0,,1
5cf5e1d2dbfc900001f253c5,gp2y9gmtlx,Nick_Dissertation_EX1,1,114,2020-06-02T09:21:36-07:00,1.9020330905914,2,versionA_stim.csv,READVersionB.csv,"Read Version B","Dissertation, read only version B",AFFECTION,LOVE,Study2,F,115,159,Test,User,-,,Recall,Recall1,1494,love,100,1003,1375,1,1,,1
5cf5e1d2dbfc900001f253c5,gp2y9gmtlx,Nick_Dissertation_EX1,1,115,2020-06-02T09:21:39-07:00,2.3781659603119,2,versionA_stim.csv,READVersionB.csv,"Read Version B","Dissertation, read only version B",RIGHTS,EQUAL,Study2,S,137,158,Test,User,-,,Recall,Recall1,1966,equal,100,1146,1727,1,1,,1
5cf5e1d2dbfc900001f253c5,gp2y9gmtlx,Nick_Dissertation_EX1,1,116,2020-06-02T09:21:45-07:00,6.2456259727478,2,versionA_stim.csv,READVersionB.csv,"Read Version B","Dissertation, read only version B",MEAT,OBTAIN,Study2,U,161,141,Test,User,-,,Recall,Recall1,5840,food,20,5426,5729,0,0,,1
5cf5e1d2dbfc900001f253c5,gp2y9gmtlx,Nick_Dissertation_EX1,1,117,2020-06-02T09:21:47-07:00,2.4538271427155,2,versionA_stim.csv,READVersionB.csv,"Read Version B","Dissertation, read only version B",CANDLE,WAX,Study2,S,139,133,Test,User,-,,Recall,Recall1,2021,burn,0,1105,1648,0,0,,1
5cf5e1d2dbfc900001f253c5,gp2y9gmtlx,Nick_Dissertation_EX1,1,118,2020-06-02T09:21:51-07:00,3.8267729282379,2,versionA_stim.csv,READVersionB.csv,"Read Version B","Dissertation, read only version B",Shell,SHAKE,Study2,U,163,160,Test,User,-,,Recall,Recall1,3409,rock,22.222222222222,2935,3211,0,0,,1
5cf5e1d2dbfc900001f253c5,gp2y9gmtlx,Nick_Dissertation_EX1,1,119,2020-06-02T09:21:54-07:00,2.5114378929138,2,versionA_stim.csv,READVersionB.csv,"Read Version B","Dissertation, read only version B",PLANE,AIRCRAFT,Study2,B,129,163,Test,User,-,,Recall,Recall1,2104,aircraft,100,1037,1989,1,1,,1
5cf5e1d2dbfc900001f253c5,gp2y9gmtlx,Nick_Dissertation_EX1,1,120,2020-06-02T09:21:58-07:00,4.1244339942932,2,versionA_stim.csv,READVersionB.csv,"Read Version B","Dissertation, read only version B",LOAN,SIGN,Study2,U,171,148,Test,User,-,,Recall,Recall1,3681,pay,0,2236,2646,0,0,,1
5cf5e1d2dbfc900001f253c5,gp2y9gmtlx,Nick_Dissertation_EX1,1,121,2020-06-02T09:22:02-07:00,4.1757030487061,2,versionA_stim.csv,READVersionB.csv,"Read Version B","Dissertation, read only version B",EVEN,REVENGE,Study2,B,122,161,Test,User,-,,Recall,Recall1,3773,revenge,100,2737,3434,1,1,,1
5cf5e1d2dbfc900001f253c5,gp2y9gmtlx,Nick_Dissertation_EX1,1,122,2020-06-02T09:22:04-07:00,2.1398570537567,2,versionA_stim.csv,READVersionB.csv,"Read Version B","Dissertation, read only version B",CHOP,CUT,Study2,F,107,151,Test,User,-,,Recall,Recall1,1737,cut,100,1228,1443,1,1,,1
5cf5e1d2dbfc900001f253c5,gp2y9gmtlx,Nick_Dissertation_EX1,1,123,2020-06-02T09:22:08-07:00,3.875853061676,2,versionA_stim.csv,READVersionB.csv,"Read Version B","Dissertation, read only version B",KEYS,JOKE,Study2,U,165,114,Test,User,-,,Recall,Recall1,3433,joke,100,2763,3216,1,1,,1
5cf5e1d2dbfc900001f253c5,gp2y9gmtlx,Nick_Dissertation_EX1,1,124,2020-06-02T09:22:10-07:00,2.1912820339203,2,versionA_stim.csv,READVersionB.csv,"Read Version B","Dissertation, read only version B",MONEY,BANKER,Study2,B,132,110,Test,User,-,,Recall,Recall1,1740,banker,100,1057,1635,1,1,,1
5cf5e1d2dbfc900001f253c5,gp2y9gmtlx,Nick_Dissertation_EX1,1,125,2020-06-02T09:22:13-07:00,2.4629337787628,2,versionA_stim.csv,READVersionB.csv,"Read Version B","Dissertation, read only version B",CHILL,COLD,Study2,F,114,119,Test,User,-,,Recall,Recall1,2047,heat,0,1607,1970,0,0,,1
5cf5e1d2dbfc900001f253c5,gp2y9gmtlx,Nick_Dissertation_EX1,1,126,2020-06-02T09:22:15-07:00,2.4153230190277,2,versionA_stim.csv,READVersionB.csv,"Read Version B","Dissertation, read only version B",TANTRUM,TEMPER,Study2,S,154,167,Test,User,-,,Recall,Recall1,1987,temper,100,1309,1753,1,1,,1
5cf5e1d2dbfc900001f253c5,gp2y9gmtlx,Nick_Dissertation_EX1,1,127,2020-06-02T09:22:17-07:00,1.9187541007996,2,versionA_stim.csv,READVersionB.csv,"Read Version B","Dissertation, read only version B",CACTUS,PLANT,Study2,F,98,130,Test,User,-,,Recall,Recall1,1517,plant,100,975,1420,1,1,,1
5cf5e1d2dbfc900001f253c5,gp2y9gmtlx,Nick_Dissertation_EX1,1,128,2020-06-02T09:22:23-07:00,6.1255390644073,2,versionA_stim.csv,READVersionB.csv,"Read Version B","Dissertation, read only version B",THREAD,THIMBLE,Study2,B,121,128,Test,User,-,,Recall,Recall1,5720,needle,30.769230769231,4849,5615,0,0,,1
5cf5e1d2dbfc900001f253c5,gp2y9gmtlx,Nick_Dissertation_EX1,1,129,2020-06-02T09:22:26-07:00,2.5135638713837,2,versionA_stim.csv,READVersionB.csv,"Read Version B","Dissertation, read only version B",VEHICLE,CHARM,Study2,U,160,166,Test,User,-,,Recall,Recall1,2101,car,75,1796,2020,0,1,,1
5cf5e1d2dbfc900001f253c5,gp2y9gmtlx,Nick_Dissertation_EX1,1,130,2020-06-02T09:22:29-07:00,3.3803300857544,2,versionA_stim.csv,READVersionB.csv,"Read Version B","Dissertation, read only version B",CRACKLE,ABLE,Study2,U,162,143,Test,User,-,,Recall,Recall1,2974,able,100,2465,2853,1,1,,1
5cf5e1d2dbfc900001f253c5,gp2y9gmtlx,Nick_Dissertation_EX1,1,131,2020-06-02T09:22:32-07:00,2.7991740703583,2,versionA_stim.csv,READVersionB.csv,"Read Version B","Dissertation, read only version B",FRUIT,STRAWBERRY,Study2,B,124,147,Test,User,-,,Recall,Recall1,2390,apple,26.666666666667,1836,2266,0,0,,1
5cf5e1d2dbfc900001f253c5,gp2y9gmtlx,Nick_Dissertation_EX1,1,132,2020-06-02T09:22:35-07:00,2.7851738929749,2,versionA_stim.csv,READVersionB.csv,"Read Version B","Dissertation, read only version B",SHEARS,SCISSORS,Study2,F,112,162,Test,User,-,,Recall,Recall1,2394,scissors,100,1260,2269,1,1,,1
5cf5e1d2dbfc900001f253c5,gp2y9gmtlx,Nick_Dissertation_EX1,1,133,2020-06-02T09:22:37-07:00,2.7149209976196,2,versionA_stim.csv,READVersionB.csv,"Read Version B","Dissertation, read only version B",HONEST,TRUTHFUL,Study2,B,133,152,Test,User,-,,Recall,Recall1,2325,lie,18.181818181818,1119,1634,0,0,,1
5cf5e1d2dbfc900001f253c5,gp2y9gmtlx,Nick_Dissertation_EX1,1,134,2020-06-02T09:22:42-07:00,4.4032649993896,2,versionA_stim.csv,READVersionB.csv,"Read Version B","Dissertation, read only version B",CAT,PANTHER,Study2,B,126,170,Test,User,-,,Recall,Recall1,4017,paw,40,3575,3831,0,0,,1
5cf5e1d2dbfc900001f253c5,gp2y9gmtlx,Nick_Dissertation_EX1,1,135,2020-06-02T09:22:45-07:00,3.2077970504761,2,versionA_stim.csv,READVersionB.csv,"Read Version B","Dissertation, read only version B",STAR,ACTRESS,Study2,B,120,140,Test,User,-,,Recall,Recall1,2784,actress,100,1679,2565,1,1,,1
5cf5e1d2dbfc900001f253c5,gp2y9gmtlx,Nick_Dissertation_EX1,1,136,2020-06-02T09:22:48-07:00,2.5909268856049,2,versionA_stim.csv,READVersionB.csv,"Read Version B","Dissertation, read only version B",BAD,VILLAIN,Study2,B,118,115,Test,User,-,,Recall,Recall1,2151,good,0,1748,2042,0,0,,1
5cf5e1d2dbfc900001f253c5,gp2y9gmtlx,Nick_Dissertation_EX1,1,137,2020-06-02T09:22:50-07:00,2.6222970485687,2,versionA_stim.csv,READVersionB.csv,"Read Version B","Dissertation, read only version B",POP,BALLOON,Study2,B,123,100,Test,User,-,,Recall,Recall1,2213,star,18.181818181818,1566,1986,0,0,,1
5cf5e1d2dbfc900001f253c5,gp2y9gmtlx,Nick_Dissertation_EX1,1,138,2020-06-02T09:22:54-07:00,3.7409329414368,2,versionA_stim.csv,READVersionB.csv,"Read Version B","Dissertation, read only version B",NAME,HATE,Study2,U,167,105,Test,User,-,,Recall,Recall1,3319,identity,16.666666666667,2201,3174,0,0,,1
5cf5e1d2dbfc900001f253c5,gp2y9gmtlx,Nick_Dissertation_EX1,1,139,2020-06-02T09:22:59-07:00,4.654559135437,2,versionA_stim.csv,READVersionB.csv,"Read Version B","Dissertation, read only version B",STRETCH,CLOTH,Study2,U,157,97,Test,User,-,,Recall,Recall1,4238,long,44.444444444444,3716,4112,0,0,,1
5cf5e1d2dbfc900001f253c5,gp2y9gmtlx,Nick_Dissertation_EX1,1,140,2020-06-02T09:23:01-07:00,2.1018030643463,2,versionA_stim.csv,READVersionB.csv,"Read Version B","Dissertation, read only version B",LISTEN,FICTION,Study2,U,164,131,Test,User,-,,Recall,Recall1,1644,hear,0,1318,1545,0,0,,1
5cf5e1d2dbfc900001f253c5,gp2y9gmtlx,Nick_Dissertation_EX1,1,141,2020-06-02T09:23:04-07:00,2.9489998817444,2,versionA_stim.csv,READVersionB.csv,"Read Version B","Dissertation, read only version B",CLUE,GAME,Study2,F,97,169,Test,User,-,,Recall,Recall1,2473,detective,15.384615384615,1430,2397,0,0,,1
5cf5e1d2dbfc900001f253c5,gp2y9gmtlx,Nick_Dissertation_EX1,1,142,2020-06-02T09:23:05-07:00,1.813374042511,2,versionA_stim.csv,READVersionB.csv,"Read Version B","Dissertation, read only version B",GIVE,STEAK,Study2,U,158,156,Test,User,-,,Recall,Recall1,1383,take,66.666666666667,1003,1270,0,0,,1
5cf5e1d2dbfc900001f253c5,gp2y9gmtlx,Nick_Dissertation_EX1,1,143,2020-06-02T09:23:10-07:00,4.6832239627838,2,versionA_stim.csv,READVersionB.csv,"Read Version B","Dissertation, read only version B",BEST,FAVORITE,Study2,B,125,125,Test,User,-,,Recall,Recall1,4278,"favorite ",100,2331,4030,1,1,,1
5cf5e1d2dbfc900001f253c5,gp2y9gmtlx,Nick_Dissertation_EX1,1,144,2020-06-02T09:23:13-07:00,2.3971610069275,2,versionA_stim.csv,READVersionB.csv,"Read Version B","Dissertation, read only version B",FUZZY,BANG,Study2,U,168,124,Test,User,-,,Recall,Recall1,1975,cat,28.571428571429,1635,1875,0,0,,1
5cf5e1d2dbfc900001f253c5,gp2y9gmtlx,Nick_Dissertation_EX1,1,145,2020-06-02T09:23:15-07:00,2.5172131061554,2,versionA_stim.csv,READVersionB.csv,"Read Version B","Dissertation, read only version B",GLASS,BREAKABLE,Study2,B,127,144,Test,User,-,,Recall,Recall1,2090,breakable,100,1144,1973,1,1,,1
5cf5e1d2dbfc900001f253c5,gp2y9gmtlx,Nick_Dissertation_EX1,1,146,2020-06-02T09:23:18-07:00,2.6416327953339,2,versionA_stim.csv,READVersionB.csv,"Read Version B","Dissertation, read only version B",WATER,DRINK,Study2,S,143,129,Test,User,-,,Recall,Recall1,2202,drink,100,1482,2041,1,1,,1
5cf5e1d2dbfc900001f253c5,gp2y9gmtlx,Nick_Dissertation_EX1,1,147,2020-06-02T09:23:20-07:00,2.3710381984711,2,versionA_stim.csv,READVersionB.csv,"Read Version B","Dissertation, read only version B",LOUD,NOISE,Study2,S,152,139,Test,User,-,,Recall,Recall1,1956,noise,100,1388,1846,1,1,,1
5cf5e1d2dbfc900001f253c5,gp2y9gmtlx,Nick_Dissertation_EX1,1,148,2020-06-02T09:23:25-07:00,5.0813999176025,2,versionA_stim.csv,READVersionB.csv,"Read Version B","Dissertation, read only version B",CAKE,CLOTHES,Study2,U,166,165,Test,User,-,,Recall,Recall1,2721,clothes,100,1792,2600,1,1,,1
5cf5e1d2dbfc900001f253c5,gp2y9gmtlx,Nick_Dissertation_EX1,1,149,2020-06-02T09:23:31-07:00,6.3798260688782,2,versionA_stim.csv,READVersionB.csv,"Read Version B","Dissertation, read only version B",LITTER,TRASH,Study2,F,103,116,Test,User,-,,Recall,Recall1,3154,trash,100,2507,2948,1,1,,1
5cf5e1d2dbfc900001f253c5,gp2y9gmtlx,Nick_Dissertation_EX1,1,150,2020-06-02T09:23:34-07:00,2.0716319084167,2,versionA_stim.csv,READVersionB.csv,"Read Version B","Dissertation, read only version B",ADJOURN,END,Study2,F,101,154,Test,User,-,,Recall,Recall1,1630,end,100,1278,1505,1,1,,1
5cf5e1d2dbfc900001f253c5,gp2y9gmtlx,Nick_Dissertation_EX1,1,151,2020-06-02T09:23:37-07:00,3.6915481090546,2,versionA_stim.csv,READVersionB.csv,"Read Version B","Dissertation, read only version B",CHERRY,RED,Study2,F,104,150,Test,User,-,,Recall,Recall1,3290,fruit,25,2628,3098,0,0,,1
5cf5e1d2dbfc900001f253c5,gp2y9gmtlx,Nick_Dissertation_EX1,1,152,2020-06-02T09:23:39-07:00,1.9001297950745,2,versionA_stim.csv,READVersionB.csv,"Read Version B","Dissertation, read only version B",SCALP,HEAD,Study2,F,105,164,Test,User,-,,Recall,Recall1,1469,head,100,1087,1364,1,1,,1
5cf5e1d2dbfc900001f253c5,gp2y9gmtlx,Nick_Dissertation_EX1,1,153,2020-06-02T09:23:41-07:00,2.2688171863556,2,versionA_stim.csv,READVersionB.csv,"Read Version B","Dissertation, read only version B",FEUD,FIGHT,Study2,F,113,155,Test,User,-,,Recall,Recall1,1852,fight,100,1371,1740,1,1,,1
5cf5e1d2dbfc900001f253c5,gp2y9gmtlx,Nick_Dissertation_EX1,1,154,2020-06-02T09:23:43-07:00,1.7107307910919,2,versionA_stim.csv,READVersionB.csv,"Read Version B","Dissertation, read only version B",FURRY,DOG,Study2,F,102,175,Test,User,-,,Recall,Recall1,1287,cat,0,976,1210,0,0,,1
5cf5e1d2dbfc900001f253c5,gp2y9gmtlx,Nick_Dissertation_EX1,1,155,2020-06-02T09:23:45-07:00,1.9446771144867,2,versionA_stim.csv,READVersionB.csv,"Read Version B","Dissertation, read only version B",SHOELACE,TIE,Study2,F,99,126,Test,User,-,,Recall,Recall1,1504,tie,100,1208,1403,1,1,,1
5cf5e1d2dbfc900001f253c5,gp2y9gmtlx,Nick_Dissertation_EX1,1,156,2020-06-02T09:23:48-07:00,2.6640799045563,2,versionA_stim.csv,READVersionB.csv,"Read Version B","Dissertation, read only version B",EARTH,GROUND,Study2,S,144,146,Test,User,-,,Recall,Recall1,2254,ground,100,1320,2121,1,1,,1
5cf5e1d2dbfc900001f253c5,gp2y9gmtlx,Nick_Dissertation_EX1,1,157,2020-06-02T09:23:50-07:00,1.8631432056427,2,versionA_stim.csv,READVersionB.csv,"Read Version B","Dissertation, read only version B",FLEA,TICK,Study2,S,151,111,Test,User,-,,Recall,Recall1,1419,tick,100,1002,1269,1,1,,1
5cf5e1d2dbfc900001f253c5,gp2y9gmtlx,Nick_Dissertation_EX1,1,158,2020-06-02T09:23:53-07:00,3.3937180042267,2,versionA_stim.csv,READVersionB.csv,"Read Version B","Dissertation, read only version B",OWN,HAVE,Study2,S,153,174,Test,User,-,,Recall,Recall1,2981,bought,20,2280,2908,0,0,,1
5cf5e1d2dbfc900001f253c5,gp2y9gmtlx,Nick_Dissertation_EX1,1,159,2020-06-02T09:23:56-07:00,2.7170538902283,2,versionA_stim.csv,READVersionB.csv,"Read Version B","Dissertation, read only version B",TEMPERATURE,Morning,Study2,U,173,123,Test,User,-,,Recall,Recall1,2267,morning,100,1320,2170,1,1,,1
5cf5e1d2dbfc900001f253c5,gp2y9gmtlx,Nick_Dissertation_EX1,1,160,2020-06-02T09:23:58-07:00,2.1642830371857,2,versionA_stim.csv,READVersionB.csv,"Read Version B","Dissertation, read only version B",EXTENSION,LONG,Study2,F,96,113,Test,User,-,,Recall,Recall1,1743,long,100,1164,1592,1,1,,1
5cf5e1d2dbfc900001f253c5,gp2y9gmtlx,Nick_Dissertation_EX1,1,161,2020-06-02T09:24:02-07:00,3.7815968990326,2,versionA_stim.csv,READVersionB.csv,"Read Version B","Dissertation, read only version B",TURN,FLIP,Study2,B,116,102,Test,User,-,,Recall,Recall1,3356,rotate,0,2321,3182,0,0,,1
5cf5e1d2dbfc900001f253c5,gp2y9gmtlx,Nick_Dissertation_EX1,1,162,2020-06-02T09:24:06-07:00,4.2570509910583,2,versionA_stim.csv,READVersionB.csv,"Read Version B","Dissertation, read only version B",DRIVER,CAR,Study2,F,106,157,Test,User,-,,Recall,Recall1,3825,car,100,3433,3674,1,1,,1
5cf5e1d2dbfc900001f253c5,gp2y9gmtlx,Nick_Dissertation_EX1,1,163,2020-06-02T09:24:14-07:00,7.9646770954132,2,versionA_stim.csv,READVersionB.csv,"Read Version B","Dissertation, read only version B",MAIN,SCAR,Study2,U,175,112,Test,User,-,,Recall,Recall1,7531,needle,0,6312,7405,0,0,,1
5cf5e1d2dbfc900001f253c5,gp2y9gmtlx,Nick_Dissertation_EX1,1,164,2020-06-02T09:24:18-07:00,3.6623618602753,2,versionA_stim.csv,READVersionB.csv,"Read Version B","Dissertation, read only version B",JUSTICE,MAROON,Study2,U,156,120,Test,User,-,,Recall,Recall1,3221,police,16.666666666667,2397,2954,0,0,,1
5cf5e1d2dbfc900001f253c5,gp2y9gmtlx,Nick_Dissertation_EX1,1,165,2020-06-02T09:24:21-07:00,3.4098610877991,2,versionA_stim.csv,READVersionB.csv,"Read Version B","Dissertation, read only version B",ROD,REEL,Study2,S,150,135,Test,User,-,,Recall,Recall1,2978,reel,100,2423,2793,1,1,,1
5cf5e1d2dbfc900001f253c5,gp2y9gmtlx,Nick_Dissertation_EX1,1,166,2020-06-02T09:24:36-07:00,15.010051965714,2,versionA_stim.csv,READVersionB.csv,"Read Version B","Dissertation, read only version B",LEASE,TOIL,Study2,U,170,98,Test,User,-,,Recall,Recall1,14572,paper,0,14191,14495,0,0,,1
5cf5e1d2dbfc900001f253c5,gp2y9gmtlx,Nick_Dissertation_EX1,1,167,2020-06-02T09:24:40-07:00,4.4220070838928,2,versionA_stim.csv,READVersionB.csv,"Read Version B","Dissertation, read only version B",BIRD,PENGUIN,Study2,B,119,127,Test,User,-,,Recall,Recall1,3870,flight,15.384615384615,2454,3614,0,0,,1
5cf5e1d2dbfc900001f253c5,gp2y9gmtlx,Nick_Dissertation_EX1,1,168,2020-06-02T09:24:44-07:00,3.3590919971466,2,versionA_stim.csv,READVersionB.csv,"Read Version B","Dissertation, read only version B",ALONE,LONELY,Study2,S,145,121,Test,User,-,,Recall,Recall1,2942,lonely,100,2258,2861,1,1,,1
5cf5e1d2dbfc900001f253c5,gp2y9gmtlx,Nick_Dissertation_EX1,1,169,2020-06-02T09:24:46-07:00,1.8260350227356,2,versionA_stim.csv,READVersionB.csv,"Read Version B","Dissertation, read only version B",DINE,EAT,Study2,F,111,138,Test,User,-,,Recall,Recall1,1372,eat,100,1074,1311,1,1,,1
5cf5e1d2dbfc900001f253c5,gp2y9gmtlx,Nick_Dissertation_EX1,1,170,2020-06-02T09:24:49-07:00,3.5310499668121,2,versionA_stim.csv,READVersionB.csv,"Read Version B","Dissertation, read only version B",BASEBALL,LEAGUE,Study2,B,131,108,Test,User,-,,Recall,Recall1,3080,catch,18.181818181818,2091,2863,0,0,,1
5cf5e1d2dbfc900001f253c5,gp2y9gmtlx,Nick_Dissertation_EX1,1,171,2020-06-02T09:24:52-07:00,2.8884289264679,2,versionA_stim.csv,READVersionB.csv,"Read Version B","Dissertation, read only version B",BOTH,OUNCE,Study2,U,172,109,Test,User,-,,Recall,Recall1,2431,neither,33.333333333333,1853,2351,0,0,,1
5cf5e1d2dbfc900001f253c5,gp2y9gmtlx,Nick_Dissertation_EX1,1,172,2020-06-02T09:24:54-07:00,2.2919700145721,2,versionA_stim.csv,READVersionB.csv,"Read Version B","Dissertation, read only version B",DEAD,COFFIN,Study2,B,128,104,Test,User,-,,Recall,Recall1,1837,coffin,100,1107,1665,1,1,,1
5cf5e1d2dbfc900001f253c5,gp2y9gmtlx,Nick_Dissertation_EX1,1,173,2020-06-02T09:24:58-07:00,3.9492580890656,2,versionA_stim.csv,READVersionB.csv,"Read Version B","Dissertation, read only version B",MAZE,ELECTION,Study2,U,159,171,Test,User,-,,Recall,Recall1,3522,street,14.285714285714,1882,2893,0,0,,1
5cf5e1d2dbfc900001f253c5,gp2y9gmtlx,Nick_Dissertation_EX1,1,174,2020-06-02T09:25:05-07:00,6.5905108451843,2,versionA_stim.csv,READVersionB.csv,"Read Version B","Dissertation, read only version B",PHONE,COMMUNICATION,Study2,S,149,172,Test,User,-,,Recall,Recall1,6134,communication,100,2798,5892,1,1,,1
5cf5e1d2dbfc900001f253c5,gp2y9gmtlx,Nick_Dissertation_EX1,1,175,2020-06-02T09:25:16-07:00,11.365471124649,2,versionA_stim.csv,READVersionB.csv,"Read Version B","Dissertation, read only version B",,,,,,0,Instruct,-,10,"You will now be presented with a new set of word pairs. Please study each pair. Remember that your memory will be tested! When finished, press Enter to move to the next pair.",Initial_Instruct,Instruct4,10899,,,-1,-1,,,,1
5cf5e1d2dbfc900001f253c5,gp2y9gmtlx,Nick_Dissertation_EX1,1,176,2020-06-02T09:25:24-07:00,7.3969240188599,2,versionA_stim.csv,READVersionB.csv,"Read Version B","Dissertation, read only version B",SCARE,HIDE,BUFFER1,Buffer,4,3,Study,User,-,,Study/JOL,BUFFER3,6915,,,-1,-1,,,,1
5cf5e1d2dbfc900001f253c5,gp2y9gmtlx,Nick_Dissertation_EX1,1,177,2020-06-02T09:25:27-07:00,3.1248650550842,2,versionA_stim.csv,READVersionB.csv,"Read Version B","Dissertation, read only version B",SPACE,JAM,BUFFER1,Buffer,5,4,Study,User,-,,Study/JOL,BUFFER3,2684,,,-1,-1,,,,1
5cf5e1d2dbfc900001f253c5,gp2y9gmtlx,Nick_Dissertation_EX1,1,178,2020-06-02T09:25:31-07:00,3.978444814682,2,versionA_stim.csv,READVersionB.csv,"Read Version B","Dissertation, read only version B",TREES,GREEN,BUFFER1,Buffer,1,6,Study,User,-,,Study/JOL,BUFFER3,3563,,,-1,-1,,,,1
5cf5e1d2dbfc900001f253c5,gp2y9gmtlx,Nick_Dissertation_EX1,1,179,2020-06-02T09:25:35-07:00,4.0122101306915,2,versionA_stim.csv,READVersionB.csv,"Read Version B","Dissertation, read only version B",BASEBALL,CATCHER,BUFFER1,Buffer,2,2,Study,User,-,,Study/JOL,BUFFER3,3598,,,-1,-1,,,,1
5cf5e1d2dbfc900001f253c5,gp2y9gmtlx,Nick_Dissertation_EX1,1,180,2020-06-02T09:25:38-07:00,3.00905585289,2,versionA_stim.csv,READVersionB.csv,"Read Version B","Dissertation, read only version B",PEANUT,BUTTER,BUFFER1,Buffer,3,5,Study,User,-,,Study/JOL,BUFFER3,2604,,,-1,-1,,,,1
5cf5e1d2dbfc900001f253c5,gp2y9gmtlx,Nick_Dissertation_EX1,1,181,2020-06-02T09:25:41-07:00,2.8029100894928,2,versionA_stim.csv,READVersionB.csv,"Read Version B","Dissertation, read only version B",REVOLUTION,WAR,Study1,F,20,30,Study,User,-,,Study/JOL,"Study Phase2",2386,,,-1,-1,,,,1
5cf5e1d2dbfc900001f253c5,gp2y9gmtlx,Nick_Dissertation_EX1,1,182,2020-06-02T09:25:46-07:00,5.8013341426849,2,versionA_stim.csv,READVersionB.csv,"Read Version B","Dissertation, read only version B",HIDE,SICK,Study1,U,84,26,Study,User,-,,Study/JOL,"Study Phase2",5407,,,-1,-1,,,,1
5cf5e1d2dbfc900001f253c5,gp2y9gmtlx,Nick_Dissertation_EX1,1,183,2020-06-02T09:25:51-07:00,4.292053937912,2,versionA_stim.csv,READVersionB.csv,"Read Version B","Dissertation, read only version B",SMELL,STENCH,Study1,B,42,55,Study,User,-,,Study/JOL,"Study Phase2",3892,,,-1,-1,,,,1
5cf5e1d2dbfc900001f253c5,gp2y9gmtlx,Nick_Dissertation_EX1,1,184,2020-06-02T09:25:54-07:00,3.3820588588715,2,versionA_stim.csv,READVersionB.csv,"Read Version B","Dissertation, read only version B",DISCUSSION,TALK,Study1,F,21,69,Study,User,-,,Study/JOL,"Study Phase2",2966,,,-1,-1,,,,1
5cf5e1d2dbfc900001f253c5,gp2y9gmtlx,Nick_Dissertation_EX1,1,185,2020-06-02T09:25:57-07:00,3.0717179775238,2,versionA_stim.csv,READVersionB.csv,"Read Version B","Dissertation, read only version B",BLOW,WIND,Study1,S,55,18,Study,User,-,,Study/JOL,"Study Phase2",2677,,,-1,-1,,,,1
5cf5e1d2dbfc900001f253c5,gp2y9gmtlx,Nick_Dissertation_EX1,1,186,2020-06-02T09:26:01-07:00,4.2943601608276,2,versionA_stim.csv,READVersionB.csv,"Read Version B","Dissertation, read only version B",SUGAR,RIDDLE,Study1,U,81,47,Study,User,-,,Study/JOL,"Study Phase2",3876,,,-1,-1,,,,1
5cf5e1d2dbfc900001f253c5,gp2y9gmtlx,Nick_Dissertation_EX1,1,187,2020-06-02T09:26:06-07:00,4.5156798362732,2,versionA_stim.csv,READVersionB.csv,"Read Version B","Dissertation, read only version B",GRILL,BAR,Study1,S,52,7,Study,User,-,,Study/JOL,"Study Phase2",4103,,,-1,-1,,,,1
5cf5e1d2dbfc900001f253c5,gp2y9gmtlx,Nick_Dissertation_EX1,1,188,2020-06-02T09:26:11-07:00,5.1591200828552,2,versionA_stim.csv,READVersionB.csv,"Read Version B","Dissertation, read only version B",DIETARY,SACKING,Study1,U,67,25,Study,User,-,,Study/JOL,"Study Phase2",4746,,,-1,-1,,,,1
5cf5e1d2dbfc900001f253c5,gp2y9gmtlx,Nick_Dissertation_EX1,1,189,2020-06-02T09:26:16-07:00,4.9056310653687,2,versionA_stim.csv,READVersionB.csv,"Read Version B","Dissertation, read only version B",STRONG,ACCIDENT,Study1,U,80,11,Study,User,-,,Study/JOL,"Study Phase2",3510,,,-1,-1,,,,1
5cf5e1d2dbfc900001f253c5,gp2y9gmtlx,Nick_Dissertation_EX1,1,190,2020-06-02T09:26:21-07:00,5.4148609638214,2,versionA_stim.csv,READVersionB.csv,"Read Version B","Dissertation, read only version B",DEATH,BUSINESS,Study1,U,72,32,Study,User,-,,Study/JOL,"Study Phase2",4991,,,-1,-1,,,,1
5cf5e1d2dbfc900001f253c5,gp2y9gmtlx,Nick_Dissertation_EX1,1,191,2020-06-02T09:26:24-07:00,2.6246359348297,2,versionA_stim.csv,READVersionB.csv,"Read Version B","Dissertation, read only version B",BRIDGE,WATER,Study1,F,18,66,Study,User,-,,Study/JOL,"Study Phase2",2208,,,-1,-1,,,,1
5cf5e1d2dbfc900001f253c5,gp2y9gmtlx,Nick_Dissertation_EX1,1,192,2020-06-02T09:26:29-07:00,5.3522901535034,2,versionA_stim.csv,READVersionB.csv,"Read Version B","Dissertation, read only version B",ART,LION,Study1,U,79,37,Study,User,-,,Study/JOL,"Study Phase2",4938,,,-1,-1,,,,1
5cf5e1d2dbfc900001f253c5,gp2y9gmtlx,Nick_Dissertation_EX1,1,193,2020-06-02T09:26:32-07:00,2.5727548599243,2,versionA_stim.csv,READVersionB.csv,"Read Version B","Dissertation, read only version B",GEOLOGY,ROCK,Study1,F,19,42,Study,User,-,,Study/JOL,"Study Phase2",2114,,,-1,-1,,,,1
5cf5e1d2dbfc900001f253c5,gp2y9gmtlx,Nick_Dissertation_EX1,1,194,2020-06-02T09:26:36-07:00,3.6335670948029,2,versionA_stim.csv,READVersionB.csv,"Read Version B","Dissertation, read only version B",HAPPY,CAR,Study1,U,77,76,Study,User,-,,Study/JOL,"Study Phase2",3210,,,-1,-1,,,,1
5cf5e1d2dbfc900001f253c5,gp2y9gmtlx,Nick_Dissertation_EX1,1,195,2020-06-02T09:26:38-07:00,2.7668509483337,2,versionA_stim.csv,READVersionB.csv,"Read Version B","Dissertation, read only version B",HYGIENE,CLEAN,Study1,F,17,40,Study,User,-,,Study/JOL,"Study Phase2",2341,,,-1,-1,,,,1
5cf5e1d2dbfc900001f253c5,gp2y9gmtlx,Nick_Dissertation_EX1,1,196,2020-06-02T09:26:43-07:00,4.4068479537964,2,versionA_stim.csv,READVersionB.csv,"Read Version B","Dissertation, read only version B",SHOE,FOOT,Study1,S,60,15,Study,User,-,,Study/JOL,"Study Phase2",2845,,,-1,-1,,,,1
5cf5e1d2dbfc900001f253c5,gp2y9gmtlx,Nick_Dissertation_EX1,1,197,2020-06-02T09:26:49-07:00,6.1839230060577,2,versionA_stim.csv,READVersionB.csv,"Read Version B","Dissertation, read only version B",PARK,HUNGRY,Study1,U,68,84,Study,User,-,,Study/JOL,"Study Phase2",5751,,,-1,-1,,,,1
5cf5e1d2dbfc900001f253c5,gp2y9gmtlx,Nick_Dissertation_EX1,1,198,2020-06-02T09:26:53-07:00,3.6284799575806,2,versionA_stim.csv,READVersionB.csv,"Read Version B","Dissertation, read only version B",POP,SODA,Study1,S,56,62,Study,User,-,,Study/JOL,"Study Phase2",3197,,,-1,-1,,,,1
5cf5e1d2dbfc900001f253c5,gp2y9gmtlx,Nick_Dissertation_EX1,1,199,2020-06-02T09:26:59-07:00,6.1375911235809,2,versionA_stim.csv,READVersionB.csv,"Read Version B","Dissertation, read only version B",FIX,HAND,Study1,U,75,52,Study,User,-,,Study/JOL,"Study Phase2",5489,,,-1,-1,,,,1
5cf5e1d2dbfc900001f253c5,gp2y9gmtlx,Nick_Dissertation_EX1,1,200,2020-06-02T09:27:02-07:00,3.6217579841614,2,versionA_stim.csv,READVersionB.csv,"Read Version B","Dissertation, read only version B",DUMP,WASTE,Study1,S,49,27,Study,User,-,,Study/JOL,"Study Phase2",2110,,,-1,-1,,,,1
5cf5e1d2dbfc900001f253c5,gp2y9gmtlx,Nick_Dissertation_EX1,1,201,2020-06-02T09:27:05-07:00,2.2690150737762,2,versionA_stim.csv,READVersionB.csv,"Read Version B","Dissertation, read only version B",WAY,OUT,Study1,F,16,81,Study,User,-,,Study/JOL,"Study Phase2",1802,,,-1,-1,,,,1
5cf5e1d2dbfc900001f253c5,gp2y9gmtlx,Nick_Dissertation_EX1,1,202,2020-06-02T09:27:08-07:00,3.4773199558258,2,versionA_stim.csv,READVersionB.csv,"Read Version B","Dissertation, read only version B",BITTER,COLD,Study1,F,12,38,Study,User,-,,Study/JOL,"Study Phase2",3035,,,-1,-1,,,,1
5cf5e1d2dbfc900001f253c5,gp2y9gmtlx,Nick_Dissertation_EX1,1,203,2020-06-02T09:27:13-07:00,5.3847548961639,2,versionA_stim.csv,READVersionB.csv,"Read Version B","Dissertation, read only version B",KING,VASE,Study1,U,85,71,Study,User,-,,Study/JOL,"Study Phase2",4957,,,-1,-1,,,,1
5cf5e1d2dbfc900001f253c5,gp2y9gmtlx,Nick_Dissertation_EX1,1,204,2020-06-02T09:27:19-07:00,6.0115239620209,2,versionA_stim.csv,READVersionB.csv,"Read Version B","Dissertation, read only version B",WAGE,MONEY,Study1,F,8,77,Study,User,-,,Study/JOL,"Study Phase2",5612,,,-1,-1,,,,0.85
5cf5e1d2dbfc900001f253c5,gp2y9gmtlx,Nick_Dissertation_EX1,1,205,2020-06-02T09:27:22-07:00,2.210077047348,2,versionA_stim.csv,READVersionB.csv,"Read Version B","Dissertation, read only version B",DUE,ASSIGNMENT,Study1,S,46,14,Study,User,-,,Study/JOL,"Study Phase2",1752,,,-1,-1,,,,1
5cf5e1d2dbfc900001f253c5,gp2y9gmtlx,Nick_Dissertation_EX1,1,206,2020-06-02T09:27:31-07:00,9.4266891479492,2,versionA_stim.csv,READVersionB.csv,"Read Version B","Dissertation, read only version B",GREAT,FANTASTIC,Study1,B,35,39,Study,User,-,,Study/JOL,"Study Phase2",8918,,,-1,-1,,,,0.815
5cf5e1d2dbfc900001f253c5,gp2y9gmtlx,Nick_Dissertation_EX1,1,207,2020-06-02T09:27:41-07:00,9.8861198425293,2,versionA_stim.csv,READVersionB.csv,"Read Version B","Dissertation, read only version B",DISCOVER,FLOOR,Study1,U,71,83,Study,User,-,,Study/JOL,"Study Phase2",9440,,,-1,-1,,,,0.6
5cf5e1d2dbfc900001f253c5,gp2y9gmtlx,Nick_Dissertation_EX1,1,208,2020-06-02T09:27:48-07:00,7.072585105896,2,versionA_stim.csv,READVersionB.csv,"Read Version B","Dissertation, read only version B",NUMBER,AMOUNT,Study1,S,47,53,Study,User,-,,Study/JOL,"Study Phase2",6618,,,-1,-1,,,,1
5cf5e1d2dbfc900001f253c5,gp2y9gmtlx,Nick_Dissertation_EX1,1,209,2020-06-02T09:27:54-07:00,6.1984548568726,2,versionA_stim.csv,READVersionB.csv,"Read Version B","Dissertation, read only version B",MATH,DIVISION,Study1,B,33,78,Study,User,-,,Study/JOL,"Study Phase2",5761,,,-1,-1,,,,1
5cf5e1d2dbfc900001f253c5,gp2y9gmtlx,Nick_Dissertation_EX1,1,210,2020-06-02T09:27:56-07:00,1.7384741306305,2,versionA_stim.csv,READVersionB.csv,"Read Version B","Dissertation, read only version B",HONEY,BEE,Study1,S,63,13,Study,User,-,,Study/JOL,"Study Phase2",1304,,,-1,-1,,,,1
5cf5e1d2dbfc900001f253c5,gp2y9gmtlx,Nick_Dissertation_EX1,1,211,2020-06-02T09:28:00-07:00,4.0662930011749,2,versionA_stim.csv,READVersionB.csv,"Read Version B","Dissertation, read only version B",BATHROOM,TOILET,Study1,S,58,43,Study,User,-,,Study/JOL,"Study Phase2",2645,,,-1,-1,,,,1
5cf5e1d2dbfc900001f253c5,gp2y9gmtlx,Nick_Dissertation_EX1,1,212,2020-06-02T09:28:04-07:00,3.754026889801,2,versionA_stim.csv,READVersionB.csv,"Read Version B","Dissertation, read only version B",HEIGHT,GROWTH,Study1,B,30,58,Study,User,-,,Study/JOL,"Study Phase2",3338,,,-1,-1,,,,1
5cf5e1d2dbfc900001f253c5,gp2y9gmtlx,Nick_Dissertation_EX1,1,213,2020-06-02T09:28:07-07:00,3.2031509876251,2,versionA_stim.csv,READVersionB.csv,"Read Version B","Dissertation, read only version B",PAST,FUTURE,Study1,S,61,41,Study,User,-,,Study/JOL,"Study Phase2",1771,,,-1,-1,,,,1
5cf5e1d2dbfc900001f253c5,gp2y9gmtlx,Nick_Dissertation_EX1,1,214,2020-06-02T09:28:11-07:00,3.681715965271,2,versionA_stim.csv,READVersionB.csv,"Read Version B","Dissertation, read only version B",ARTERY,BRONZE,Study1,U,74,82,Study,User,-,,Study/JOL,"Study Phase2",3116,,,-1,-1,,,,1
5cf5e1d2dbfc900001f253c5,gp2y9gmtlx,Nick_Dissertation_EX1,1,215,2020-06-02T09:28:13-07:00,1.9295802116394,2,versionA_stim.csv,READVersionB.csv,"Read Version B","Dissertation, read only version B",DEBATE,SIGHT,Study1,U,73,56,Study,User,-,,Study/JOL,"Study Phase2",1464,,,-1,-1,,,,1
5cf5e1d2dbfc900001f253c5,gp2y9gmtlx,Nick_Dissertation_EX1,1,216,2020-06-02T09:28:16-07:00,3.3620278835297,2,versionA_stim.csv,READVersionB.csv,"Read Version B","Dissertation, read only version B",ARCHITECTURE,DESIGN,Study1,S,51,23,Study,User,-,,Study/JOL,"Study Phase2",2919,,,-1,-1,,,,1
5cf5e1d2dbfc900001f253c5,gp2y9gmtlx,Nick_Dissertation_EX1,1,217,2020-06-02T09:28:19-07:00,2.8432769775391,2,versionA_stim.csv,READVersionB.csv,"Read Version B","Dissertation, read only version B",DELINQUENT,BAD,Study1,F,6,28,Study,User,-,,Study/JOL,"Study Phase2",1404,,,-1,-1,,,,1
5cf5e1d2dbfc900001f253c5,gp2y9gmtlx,Nick_Dissertation_EX1,1,218,2020-06-02T09:28:26-07:00,6.8199181556702,2,versionA_stim.csv,READVersionB.csv,"Read Version B","Dissertation, read only version B",BUG,WASP,Study1,B,32,65,Study,User,-,,Study/JOL,"Study Phase2",1997,,,-1,-1,,,,1
5cf5e1d2dbfc900001f253c5,gp2y9gmtlx,Nick_Dissertation_EX1,1,219,2020-06-02T09:28:31-07:00,5.2586147785187,2,versionA_stim.csv,READVersionB.csv,"Read Version B","Dissertation, read only version B",BALL,RACKET,Study1,B,38,21,Study,User,-,,Study/JOL,"Study Phase2",1459,,,-1,-1,,,,1
5cf5e1d2dbfc900001f253c5,gp2y9gmtlx,Nick_Dissertation_EX1,1,220,2020-06-02T09:28:33-07:00,2.1973202228546,2,versionA_stim.csv,READVersionB.csv,"Read Version B","Dissertation, read only version B",HOT,CHILI,Study1,B,37,36,Study,User,-,,Study/JOL,"Study Phase2",650,,,-1,-1,,,,1
5cf5e1d2dbfc900001f253c5,gp2y9gmtlx,Nick_Dissertation_EX1,1,221,2020-06-02T09:28:34-07:00,1.2612237930298,2,versionA_stim.csv,READVersionB.csv,"Read Version B","Dissertation, read only version B",MEANING,DEFINITION,Study1,S,62,19,Study,User,-,,Study/JOL,"Study Phase2",816,,,-1,-1,,,,1
5cf5e1d2dbfc900001f253c5,gp2y9gmtlx,Nick_Dissertation_EX1,1,222,2020-06-02T09:28:36-07:00,1.2118852138519,2,versionA_stim.csv,READVersionB.csv,"Read Version B","Dissertation, read only version B",TUNA,FISH,Study1,F,25,67,Study,User,-,,Study/JOL,"Study Phase2",781,,,-1,-1,,,,1
5cf5e1d2dbfc900001f253c5,gp2y9gmtlx,Nick_Dissertation_EX1,1,223,2020-06-02T09:28:37-07:00,1.7505087852478,2,versionA_stim.csv,READVersionB.csv,"Read Version B","Dissertation, read only version B",CHISEL,HAMMER,Study1,F,9,74,Study,User,-,,Study/JOL,"Study Phase2",1266,,,-1,-1,,,,1
5cf5e1d2dbfc900001f253c5,gp2y9gmtlx,Nick_Dissertation_EX1,1,224,2020-06-02T09:28:39-07:00,1.3028631210327,2,versionA_stim.csv,READVersionB.csv,"Read Version B","Dissertation, read only version B",FIRE,BLAZE,Study1,B,45,49,Study,User,-,,Study/JOL,"Study Phase2",848,,,-1,-1,,,,1
5cf5e1d2dbfc900001f253c5,gp2y9gmtlx,Nick_Dissertation_EX1,1,225,2020-06-02T09:28:40-07:00,1.3438460826874,2,versionA_stim.csv,READVersionB.csv,"Read Version B","Dissertation, read only version B",CREDIT,CARD,Study1,F,23,17,Study,User,-,,Study/JOL,"Study Phase2",912,,,-1,-1,,,,1
5cf5e1d2dbfc900001f253c5,gp2y9gmtlx,Nick_Dissertation_EX1,1,226,2020-06-02T09:28:42-07:00,1.6548299789429,2,versionA_stim.csv,READVersionB.csv,"Read Version B","Dissertation, read only version B",TAKE,SEIZE,Study1,B,29,80,Study,User,-,,Study/JOL,"Study Phase2",1229,,,-1,-1,,,,1
5cf5e1d2dbfc900001f253c5,gp2y9gmtlx,Nick_Dissertation_EX1,1,227,2020-06-02T09:28:43-07:00,1.3686389923096,2,versionA_stim.csv,READVersionB.csv,"Read Version B","Dissertation, read only version B",LETTUCE,SALAD,Study1,S,59,59,Study,User,-,,Study/JOL,"Study Phase2",927,,,-1,-1,,,,1
5cf5e1d2dbfc900001f253c5,gp2y9gmtlx,Nick_Dissertation_EX1,1,228,2020-06-02T09:28:44-07:00,1.5073959827423,2,versionA_stim.csv,READVersionB.csv,"Read Version B","Dissertation, read only version B",KIDNEY,LIVER,Study1,S,53,57,Study,User,-,,Study/JOL,"Study Phase2",1068,,,-1,-1,,,,1
5cf5e1d2dbfc900001f253c5,gp2y9gmtlx,Nick_Dissertation_EX1,1,229,2020-06-02T09:28:46-07:00,1.2732248306274,2,versionA_stim.csv,READVersionB.csv,"Read Version B","Dissertation, read only version B",ROOT,PLANT,Study1,F,13,9,Study,User,-,,Study/JOL,"Study Phase2",829,,,-1,-1,,,,1
5cf5e1d2dbfc900001f253c5,gp2y9gmtlx,Nick_Dissertation_EX1,1,230,2020-06-02T09:28:47-07:00,1.3715870380402,2,versionA_stim.csv,READVersionB.csv,"Read Version B","Dissertation, read only version B",HUNGER,FAMINE,Study1,B,40,35,Study,User,-,,Study/JOL,"Study Phase2",969,,,-1,-1,,,,1
5cf5e1d2dbfc900001f253c5,gp2y9gmtlx,Nick_Dissertation_EX1,1,231,2020-06-02T09:28:48-07:00,1.2358551025391,2,versionA_stim.csv,READVersionB.csv,"Read Version B","Dissertation, read only version B",LAW,ATTORNEY,Study1,B,34,48,Study,User,-,,Study/JOL,"Study Phase2",739,,,-1,-1,,,,1
5cf5e1d2dbfc900001f253c5,gp2y9gmtlx,Nick_Dissertation_EX1,1,232,2020-06-02T09:28:50-07:00,1.3665919303894,2,versionA_stim.csv,READVersionB.csv,"Read Version B","Dissertation, read only version B",PUSHER,CLUTTER,Study1,U,66,20,Study,User,-,,Study/JOL,"Study Phase2",917,,,-1,-1,,,,1
5cf5e1d2dbfc900001f253c5,gp2y9gmtlx,Nick_Dissertation_EX1,1,233,2020-06-02T09:28:51-07:00,0.82332491874695,2,versionA_stim.csv,READVersionB.csv,"Read Version B","Dissertation, read only version B",KEY,LATCH,Study1,B,36,24,Study,User,-,,Study/JOL,"Study Phase2",407,,,-1,-1,,,,1
5cf5e1d2dbfc900001f253c5,gp2y9gmtlx,Nick_Dissertation_EX1,1,234,2020-06-02T09:28:52-07:00,1.0347812175751,2,versionA_stim.csv,READVersionB.csv,"Read Version B","Dissertation, read only version B",CLOTHES,ATTIRE,Study1,B,43,46,Study,User,-,,Study/JOL,"Study Phase2",626,,,-1,-1,,,,1
5cf5e1d2dbfc900001f253c5,gp2y9gmtlx,Nick_Dissertation_EX1,1,235,2020-06-02T09:28:53-07:00,1.1433420181274,2,versionA_stim.csv,READVersionB.csv,"Read Version B","Dissertation, read only version B",EDITOR,NEWS,Study1,F,10,16,Study,User,-,,Study/JOL,"Study Phase2",691,,,-1,-1,,,,1
5cf5e1d2dbfc900001f253c5,gp2y9gmtlx,Nick_Dissertation_EX1,1,236,2020-06-02T09:28:54-07:00,0.98414087295532,2,versionA_stim.csv,READVersionB.csv,"Read Version B","Dissertation, read only version B",HERD,COW,Study1,F,22,75,Study,User,-,,Study/JOL,"Study Phase2",523,,,-1,-1,,,,1
5cf5e1d2dbfc900001f253c5,gp2y9gmtlx,Nick_Dissertation_EX1,1,237,2020-06-02T09:28:55-07:00,1.2465310096741,2,versionA_stim.csv,READVersionB.csv,"Read Version B","Dissertation, read only version B",FULL,ENOUGH,Study1,B,26,73,Study,User,-,,Study/JOL,"Study Phase2",795,,,-1,-1,,,,1
5cf5e1d2dbfc900001f253c5,gp2y9gmtlx,Nick_Dissertation_EX1,1,238,2020-06-02T09:28:56-07:00,0.84850597381592,2,versionA_stim.csv,READVersionB.csv,"Read Version B","Dissertation, read only version B",LIFT,WOMAN,Study1,U,69,54,Study,User,-,,Study/JOL,"Study Phase2",425,,,-1,-1,,,,1
5cf5e1d2dbfc900001f253c5,gp2y9gmtlx,Nick_Dissertation_EX1,1,239,2020-06-02T09:28:57-07:00,0.82861304283142,2,versionA_stim.csv,READVersionB.csv,"Read Version B","Dissertation, read only version B",LOCATION,SITE,Study1,S,48,61,Study,User,-,,Study/JOL,"Study Phase2",411,,,-1,-1,,,,1
5cf5e1d2dbfc900001f253c5,gp2y9gmtlx,Nick_Dissertation_EX1,1,240,2020-06-02T09:28:57-07:00,0.79487800598145,2,versionA_stim.csv,READVersionB.csv,"Read Version B","Dissertation, read only version B",DARK,CAVE,Study1,B,28,86,Study,User,-,,Study/JOL,"Study Phase2",349,,,-1,-1,,,,1
5cf5e1d2dbfc900001f253c5,gp2y9gmtlx,Nick_Dissertation_EX1,1,241,2020-06-02T09:28:59-07:00,2.037661075592,2,versionA_stim.csv,READVersionB.csv,"Read Version B","Dissertation, read only version B",HORNET,STING,Study1,F,11,79,Study,User,-,,Study/JOL,"Study Phase2",434,,,-1,-1,,,,1
5cf5e1d2dbfc900001f253c5,gp2y9gmtlx,Nick_Dissertation_EX1,1,242,2020-06-02T09:29:02-07:00,2.4736988544464,2,versionA_stim.csv,READVersionB.csv,"Read Version B","Dissertation, read only version B",BEGIN,END,Study1,S,54,60,Study,User,-,,Study/JOL,"Study Phase2",1012,,,-1,-1,,,,1
5cf5e1d2dbfc900001f253c5,gp2y9gmtlx,Nick_Dissertation_EX1,1,243,2020-06-02T09:29:03-07:00,1.3243899345398,2,versionA_stim.csv,READVersionB.csv,"Read Version B","Dissertation, read only version B",MACHINE,POSITION,Study1,U,76,45,Study,User,-,,Study/JOL,"Study Phase2",849,,,-1,-1,,,,1
5cf5e1d2dbfc900001f253c5,gp2y9gmtlx,Nick_Dissertation_EX1,1,244,2020-06-02T09:29:05-07:00,1.4485700130463,2,versionA_stim.csv,READVersionB.csv,"Read Version B","Dissertation, read only version B",SOON,BELT,Study1,U,70,33,Study,User,-,,Study/JOL,"Study Phase2",1006,,,-1,-1,,,,1
5cf5e1d2dbfc900001f253c5,gp2y9gmtlx,Nick_Dissertation_EX1,1,245,2020-06-02T09:29:06-07:00,1.7276291847229,2,versionA_stim.csv,READVersionB.csv,"Read Version B","Dissertation, read only version B",TRIAL,JURY,Study1,S,50,22,Study,User,-,,Study/JOL,"Study Phase2",1293,,,-1,-1,,,,1
5cf5e1d2dbfc900001f253c5,gp2y9gmtlx,Nick_Dissertation_EX1,1,246,2020-06-02T09:29:08-07:00,1.3562858104706,2,versionA_stim.csv,READVersionB.csv,"Read Version B","Dissertation, read only version B",WINE,CHEESE,Study1,S,57,44,Study,User,-,,Study/JOL,"Study Phase2",938,,,-1,-1,,,,1
5cf5e1d2dbfc900001f253c5,gp2y9gmtlx,Nick_Dissertation_EX1,1,247,2020-06-02T09:29:09-07:00,1.5540721416473,2,versionA_stim.csv,READVersionB.csv,"Read Version B","Dissertation, read only version B",ORCHID,FLOWER,Study1,F,24,12,Study,User,-,,Study/JOL,"Study Phase2",1075,,,-1,-1,,,,1
5cf5e1d2dbfc900001f253c5,gp2y9gmtlx,Nick_Dissertation_EX1,1,248,2020-06-02T09:29:10-07:00,1.1171460151672,2,versionA_stim.csv,READVersionB.csv,"Read Version B","Dissertation, read only version B",VALLEY,ADD,Study1,U,82,63,Study,User,-,,Study/JOL,"Study Phase2",633,,,-1,-1,,,,1
5cf5e1d2dbfc900001f253c5,gp2y9gmtlx,Nick_Dissertation_EX1,1,249,2020-06-02T09:29:12-07:00,1.2590909004211,2,versionA_stim.csv,READVersionB.csv,"Read Version B","Dissertation, read only version B",DRINK,SIP,Study1,B,27,72,Study,User,-,,Study/JOL,"Study Phase2",809,,,-1,-1,,,,1
5cf5e1d2dbfc900001f253c5,gp2y9gmtlx,Nick_Dissertation_EX1,1,250,2020-06-02T09:29:13-07:00,1.6198029518127,2,versionA_stim.csv,READVersionB.csv,"Read Version B","Dissertation, read only version B",SLEEP,DROWSY,Study1,B,41,64,Study,User,-,,Study/JOL,"Study Phase2",1165,,,-1,-1,,,,1
5cf5e1d2dbfc900001f253c5,gp2y9gmtlx,Nick_Dissertation_EX1,1,251,2020-06-02T09:29:15-07:00,1.6661729812622,2,versionA_stim.csv,READVersionB.csv,"Read Version B","Dissertation, read only version B",DIGESTION,STOMACH,Study1,F,7,50,Study,User,-,,Study/JOL,"Study Phase2",1209,,,-1,-1,,,,1
5cf5e1d2dbfc900001f253c5,gp2y9gmtlx,Nick_Dissertation_EX1,1,252,2020-06-02T09:29:16-07:00,1.283497095108,2,versionA_stim.csv,READVersionB.csv,"Read Version B","Dissertation, read only version B",PLANE,PILOT,Study1,B,44,31,Study,User,-,,Study/JOL,"Study Phase2",861,,,-1,-1,,,,1
5cf5e1d2dbfc900001f253c5,gp2y9gmtlx,Nick_Dissertation_EX1,1,253,2020-06-02T09:29:18-07:00,1.2766830921173,2,versionA_stim.csv,READVersionB.csv,"Read Version B","Dissertation, read only version B",CASH,WOULD,Study1,U,83,29,Study,User,-,,Study/JOL,"Study Phase2",812,,,-1,-1,,,,1
5cf5e1d2dbfc900001f253c5,gp2y9gmtlx,Nick_Dissertation_EX1,1,254,2020-06-02T09:29:19-07:00,1.3336868286133,2,versionA_stim.csv,READVersionB.csv,"Read Version B","Dissertation, read only version B",CIRCLE,ROUND,Study1,S,65,85,Study,User,-,,Study/JOL,"Study Phase2",896,,,-1,-1,,,,1
5cf5e1d2dbfc900001f253c5,gp2y9gmtlx,Nick_Dissertation_EX1,1,255,2020-06-02T09:29:20-07:00,1.3082401752472,2,versionA_stim.csv,READVersionB.csv,"Read Version B","Dissertation, read only version B",BABY,CHILD,Study1,S,64,51,Study,User,-,,Study/JOL,"Study Phase2",847,,,-1,-1,,,,1
5cf5e1d2dbfc900001f253c5,gp2y9gmtlx,Nick_Dissertation_EX1,1,256,2020-06-02T09:29:22-07:00,1.3366889953613,2,versionA_stim.csv,READVersionB.csv,"Read Version B","Dissertation, read only version B",ALLOW,TUCK,Study1,U,78,34,Study,User,-,,Study/JOL,"Study Phase2",912,,,-1,-1,,,,1
5cf5e1d2dbfc900001f253c5,gp2y9gmtlx,Nick_Dissertation_EX1,1,257,2020-06-02T09:29:23-07:00,1.33216381073,2,versionA_stim.csv,READVersionB.csv,"Read Version B","Dissertation, read only version B",SWAN,BIRD,Study1,F,14,8,Study,User,-,,Study/JOL,"Study Phase2",901,,,-1,-1,,,,1
5cf5e1d2dbfc900001f253c5,gp2y9gmtlx,Nick_Dissertation_EX1,1,258,2020-06-02T09:29:24-07:00,1.288770198822,2,versionA_stim.csv,READVersionB.csv,"Read Version B","Dissertation, read only version B",SENTENCE,WORD,Study1,B,31,68,Study,User,-,,Study/JOL,"Study Phase2",784,,,-1,-1,,,,1
5cf5e1d2dbfc900001f253c5,gp2y9gmtlx,Nick_Dissertation_EX1,1,259,2020-06-02T09:29:25-07:00,1.2406318187714,2,versionA_stim.csv,READVersionB.csv,"Read Version B","Dissertation, read only version B",PAW,DOG,Study1,F,15,10,Study,User,-,,Study/JOL,"Study Phase2",784,,,-1,-1,,,,1
5cf5e1d2dbfc900001f253c5,gp2y9gmtlx,Nick_Dissertation_EX1,1,260,2020-06-02T09:29:27-07:00,1.2792510986328,2,versionA_stim.csv,READVersionB.csv,"Read Version B","Dissertation, read only version B",WORK,CHORE,Study1,B,39,70,Study,User,-,,Study/JOL,"Study Phase2",859,,,-1,-1,,,,1
5cf5e1d2dbfc900001f253c5,gp2y9gmtlx,Nick_Dissertation_EX1,1,261,2020-06-02T09:29:28-07:00,1.2666399478912,2,versionA_stim.csv,READVersionB.csv,"Read Version B","Dissertation, read only version B",SHERRIF,POLICE,BUFFER2,Buffer,87,91,Study,User,-,,Study/JOL,BUFFER4,777,,,-1,-1,,,,1
5cf5e1d2dbfc900001f253c5,gp2y9gmtlx,Nick_Dissertation_EX1,1,262,2020-06-02T09:29:29-07:00,0.8291699886322,2,versionA_stim.csv,READVersionB.csv,"Read Version B","Dissertation, read only version B",THING,STUFF,BUFFER2,Buffer,90,90,Study,User,-,,Study/JOL,BUFFER4,363,,,-1,-1,,,,1
5cf5e1d2dbfc900001f253c5,gp2y9gmtlx,Nick_Dissertation_EX1,1,263,2020-06-02T09:29:30-07:00,1.0394201278687,2,versionA_stim.csv,READVersionB.csv,"Read Version B","Dissertation, read only version B",MALT,CHOCOLATE,BUFFER2,Buffer,88,87,Study,User,-,,Study/JOL,BUFFER4,563,,,-1,-1,,,,1
5cf5e1d2dbfc900001f253c5,gp2y9gmtlx,Nick_Dissertation_EX1,1,264,2020-06-02T09:29:31-07:00,0.85404801368713,2,versionA_stim.csv,READVersionB.csv,"Read Version B","Dissertation, read only version B",GEESE,GOOSE,BUFFER2,Buffer,86,89,Study,User,-,,Study/JOL,BUFFER4,392,,,-1,-1,,,,1
5cf5e1d2dbfc900001f253c5,gp2y9gmtlx,Nick_Dissertation_EX1,1,265,2020-06-02T09:29:32-07:00,1.2055239677429,2,versionA_stim.csv,READVersionB.csv,"Read Version B","Dissertation, read only version B",MOON,SPACE,BUFFER2,Buffer,89,88,Study,User,-,,Study/JOL,BUFFER4,724,,,-1,-1,,,,1
5cf5e1d2dbfc900001f253c5,gp2y9gmtlx,Nick_Dissertation_EX1,1,266,2020-06-02T09:29:35-07:00,2.9001078605652,2,versionA_stim.csv,READVersionB.csv,"Read Version B","Dissertation, read only version B",,,,,,0,Instruct,User,-,"You have completed this section. Please press Enter.",Filler_Instruction,Instruct5,2463,,,-1,-1,,,,1
5cf5e1d2dbfc900001f253c5,gp2y9gmtlx,Nick_Dissertation_EX1,1,267,2020-06-02T09:31:35-07:00,120.45180106163,2,versionA_stim.csv,READVersionB.csv,"Read Version B","Dissertation, read only version B",,,,,,0,FreeRecall,120,120,"Please list the 50 US states in reverse alphabetical order (z - a). The task will automatically advance to the next screen after two minutes.",,Filler2,120001,"Wyoming, Texas, Tennessee, South Carolina, Rhode Island, Pennsylvania, North Dakota, New York, Montana, Massecheusettes, Louisianna, Kansas, Hawaii, Georgia, Florida, Delaware, California, Arkansas, Alaska, Alabama, ",0,3726,119570,0,0,,1
5cf5e1d2dbfc900001f253c5,gp2y9gmtlx,Nick_Dissertation_EX1,1,268,2020-06-02T09:31:48-07:00,12.748702049255,2,versionA_stim.csv,READVersionB.csv,"Read Version B","Dissertation, read only version B",,,,,,0,Instruct,-,10,"You will now be presented with the first word from each of the previously studied item pairs. Please type the missing word. If you do not know the word, you may guess or press Enter to skip forward to the next pair.",,Instruct6,12027,,,-1,-1,,,,1
5cf5e1d2dbfc900001f253c5,gp2y9gmtlx,Nick_Dissertation_EX1,1,269,2020-06-02T09:31:52-07:00,4.0000240802765,2,versionA_stim.csv,READVersionB.csv,"Read Version B","Dissertation, read only version B",KING,VASE,Study1,U,85,71,Test,User,-,,Recall,Recall2,3400,Vase,100,2641,3122,1,1,,1
5cf5e1d2dbfc900001f253c5,gp2y9gmtlx,Nick_Dissertation_EX1,1,270,2020-06-02T09:31:55-07:00,3.3070938587189,2,versionA_stim.csv,READVersionB.csv,"Read Version B","Dissertation, read only version B",SENTENCE,WORD,Study1,B,31,68,Test,User,-,,Recall,Recall2,2848,word,100,2386,2759,1,1,,1
5cf5e1d2dbfc900001f253c5,gp2y9gmtlx,Nick_Dissertation_EX1,1,271,2020-06-02T09:31:57-07:00,2.0580289363861,2,versionA_stim.csv,READVersionB.csv,"Read Version B","Dissertation, read only version B",GRILL,BAR,Study1,S,52,7,Test,User,-,,Recall,Recall2,1619,bar,100,1272,1509,1,1,,1
5cf5e1d2dbfc900001f253c5,gp2y9gmtlx,Nick_Dissertation_EX1,1,272,2020-06-02T09:32:02-07:00,4.3807392120361,2,versionA_stim.csv,READVersionB.csv,"Read Version B","Dissertation, read only version B",LIFT,WOMAN,Study1,U,69,54,Test,User,-,,Recall,Recall2,2924,rep,0,2556,2734,0,0,,1
5cf5e1d2dbfc900001f253c5,gp2y9gmtlx,Nick_Dissertation_EX1,1,273,2020-06-02T09:32:04-07:00,2.7496898174286,2,versionA_stim.csv,READVersionB.csv,"Read Version B","Dissertation, read only version B",DUMP,WASTE,Study1,S,49,27,Test,User,-,,Recall,Recall2,2319,truck,20,1141,1647,0,0,,1
5cf5e1d2dbfc900001f253c5,gp2y9gmtlx,Nick_Dissertation_EX1,1,274,2020-06-02T09:32:06-07:00,2.0114560127258,2,versionA_stim.csv,READVersionB.csv,"Read Version B","Dissertation, read only version B",CHISEL,HAMMER,Study1,F,9,74,Test,User,-,,Recall,Recall2,1574,hammer,100,1046,1500,1,1,,1
5cf5e1d2dbfc900001f253c5,gp2y9gmtlx,Nick_Dissertation_EX1,1,275,2020-06-02T09:32:10-07:00,3.8761711120605,2,versionA_stim.csv,READVersionB.csv,"Read Version B","Dissertation, read only version B",DEATH,BUSINESS,Study1,U,72,32,Test,User,-,,Recall,Recall2,3406,business,100,2245,3293,1,1,,1
5cf5e1d2dbfc900001f253c5,gp2y9gmtlx,Nick_Dissertation_EX1,1,276,2020-06-02T09:32:13-07:00,2.2323188781738,2,versionA_stim.csv,READVersionB.csv,"Read Version B","Dissertation, read only version B",HOT,CHILI,Study1,B,37,36,Test,User,-,,Recall,Recall2,1755,chilli,90.909090909091,898,1588,0,1,,1
5cf5e1d2dbfc900001f253c5,gp2y9gmtlx,Nick_Dissertation_EX1,1,277,2020-06-02T09:32:46-07:00,33.881859064102,2,versionA_stim.csv,READVersionB.csv,"Read Version B","Dissertation, read only version B",CLOTHES,ATTIRE,Study1,B,43,46,Test,User,-,,Recall,Recall2,33446,Hamper,33.333333333333,32694,33302,0,0,,1
5cf5e1d2dbfc900001f253c5,gp2y9gmtlx,Nick_Dissertation_EX1,1,278,2020-06-02T09:32:57-07:00,10.585844993591,2,versionA_stim.csv,READVersionB.csv,"Read Version B","Dissertation, read only version B",FULL,ENOUGH,Study1,B,26,73,Test,User,-,,Recall,Recall2,9971,Empty,18.181818181818,9337,9894,0,0,,1
5cf5e1d2dbfc900001f253c5,gp2y9gmtlx,Nick_Dissertation_EX1,1,279,2020-06-02T09:33:00-07:00,2.7748229503632,2,versionA_stim.csv,READVersionB.csv,"Read Version B","Dissertation, read only version B",TUNA,FISH,Study1,F,25,67,Test,User,-,,Recall,Recall2,2201,Fish,100,1293,1584,1,1,,1
5cf5e1d2dbfc900001f253c5,gp2y9gmtlx,Nick_Dissertation_EX1,1,280,2020-06-02T09:33:03-07:00,3.5386810302734,2,versionA_stim.csv,READVersionB.csv,"Read Version B","Dissertation, read only version B",DEBATE,SIGHT,Study1,U,73,56,Test,User,-,,Recall,Recall2,3032,Discuss,16.666666666667,2225,2871,0,0,,1
5cf5e1d2dbfc900001f253c5,gp2y9gmtlx,Nick_Dissertation_EX1,1,281,2020-06-02T09:33:07-07:00,4.0841319561005,2,versionA_stim.csv,READVersionB.csv,"Read Version B","Dissertation, read only version B",PARK,HUNGRY,Study1,U,68,84,Test,User,-,,Recall,Recall2,3588,Tree,20,2940,3445,0,0,,1
5cf5e1d2dbfc900001f253c5,gp2y9gmtlx,Nick_Dissertation_EX1,1,282,2020-06-02T09:33:12-07:00,4.6249940395355,2,versionA_stim.csv,READVersionB.csv,"Read Version B","Dissertation, read only version B",LOCATION,SITE,Study1,S,48,61,Test,User,-,,Recall,Recall2,4166,Geography,15.384615384615,1435,4013,0,0,,1
5cf5e1d2dbfc900001f253c5,gp2y9gmtlx,Nick_Dissertation_EX1,1,283,2020-06-02T09:33:18-07:00,5.5846259593964,2,versionA_stim.csv,READVersionB.csv,"Read Version B","Dissertation, read only version B",NUMBER,AMOUNT,Study1,S,47,53,Test,User,-,,Recall,Recall2,5094,Graph,18.181818181818,4531,4957,0,0,,1
5cf5e1d2dbfc900001f253c5,gp2y9gmtlx,Nick_Dissertation_EX1,1,284,2020-06-02T09:33:26-07:00,8.2806451320648,2,versionA_stim.csv,READVersionB.csv,"Read Version B","Dissertation, read only version B",BUG,WASP,Study1,B,32,65,Test,User,-,,Recall,Recall2,2990,mite,0,2533,2835,0,0,,1
5cf5e1d2dbfc900001f253c5,gp2y9gmtlx,Nick_Dissertation_EX1,1,285,2020-06-02T09:33:32-07:00,6.3065390586853,2,versionA_stim.csv,READVersionB.csv,"Read Version B","Dissertation, read only version B",BATHROOM,TOILET,Study1,S,58,43,Test,User,-,,Recall,Recall2,2555,Stall,36.363636363636,1889,2408,0,0,,1
5cf5e1d2dbfc900001f253c5,gp2y9gmtlx,Nick_Dissertation_EX1,1,286,2020-06-02T09:33:35-07:00,2.3874959945679,2,versionA_stim.csv,READVersionB.csv,"Read Version B","Dissertation, read only version B",HORNET,STING,Study1,F,11,79,Test,User,-,,Recall,Recall2,1901,Sting,100,1307,1757,1,1,,1
5cf5e1d2dbfc900001f253c5,gp2y9gmtlx,Nick_Dissertation_EX1,1,287,2020-06-02T09:33:38-07:00,3.6367268562317,2,versionA_stim.csv,READVersionB.csv,"Read Version B","Dissertation, read only version B",SUGAR,RIDDLE,Study1,U,81,47,Test,User,-,,Recall,Recall2,3171,riddle,100,2534,3091,1,1,,1
5cf5e1d2dbfc900001f253c5,gp2y9gmtlx,Nick_Dissertation_EX1,1,288,2020-06-02T09:33:41-07:00,2.6069400310516,2,versionA_stim.csv,READVersionB.csv,"Read Version B","Dissertation, read only version B",EDITOR,NEWS,Study1,F,10,16,Test,User,-,,Recall,Recall2,2114,Chief,22.222222222222,1587,1950,0,0,,1
5cf5e1d2dbfc900001f253c5,gp2y9gmtlx,Nick_Dissertation_EX1,1,289,2020-06-02T09:33:49-07:00,7.8372769355774,2,versionA_stim.csv,READVersionB.csv,"Read Version B","Dissertation, read only version B",LAW,ATTORNEY,Study1,B,34,48,Test,User,-,,Recall,Recall2,7393,Attorney,100,942,7288,1,1,,1
5cf5e1d2dbfc900001f253c5,gp2y9gmtlx,Nick_Dissertation_EX1,1,290,2020-06-02T09:33:51-07:00,2.2580289840698,2,versionA_stim.csv,READVersionB.csv,"Read Version B","Dissertation, read only version B",ALLOW,TUCK,Study1,U,78,34,Test,User,-,,Recall,Recall2,1805,Give,0,1346,1681,0,0,,1
5cf5e1d2dbfc900001f253c5,gp2y9gmtlx,Nick_Dissertation_EX1,1,291,2020-06-02T09:33:54-07:00,3.0613131523132,2,versionA_stim.csv,READVersionB.csv,"Read Version B","Dissertation, read only version B",MATH,DIVISION,Study1,B,33,78,Test,User,-,,Recall,Recall2,2598,Divide,57.142857142857,1516,2467,0,0,,1
5cf5e1d2dbfc900001f253c5,gp2y9gmtlx,Nick_Dissertation_EX1,1,292,2020-06-02T09:33:56-07:00,2.2386250495911,2,versionA_stim.csv,READVersionB.csv,"Read Version B","Dissertation, read only version B",REVOLUTION,WAR,Study1,F,20,30,Test,User,-,,Recall,Recall2,1780,War,100,1098,1435,1,1,,1
5cf5e1d2dbfc900001f253c5,gp2y9gmtlx,Nick_Dissertation_EX1,1,293,2020-06-02T09:33:59-07:00,2.7182149887085,2,versionA_stim.csv,READVersionB.csv,"Read Version B","Dissertation, read only version B",PAST,FUTURE,Study1,S,61,41,Test,User,-,,Recall,Recall2,2206,Future,100,973,2074,1,1,,1
5cf5e1d2dbfc900001f253c5,gp2y9gmtlx,Nick_Dissertation_EX1,1,294,2020-06-02T09:34:02-07:00,2.5474588871002,2,versionA_stim.csv,READVersionB.csv,"Read Version B","Dissertation, read only version B",DIGESTION,STOMACH,Study1,F,7,50,Test,User,-,,Recall,Recall2,2122,Stomach,100,1244,1883,1,1,,1
5cf5e1d2dbfc900001f253c5,gp2y9gmtlx,Nick_Dissertation_EX1,1,295,2020-06-02T09:34:05-07:00,3.6209111213684,2,versionA_stim.csv,READVersionB.csv,"Read Version B","Dissertation, read only version B",SOON,BELT,Study1,U,70,33,Test,User,-,,Recall,Recall2,3171,Past,25,2540,3049,0,0,,1
5cf5e1d2dbfc900001f253c5,gp2y9gmtlx,Nick_Dissertation_EX1,1,296,2020-06-02T09:34:08-07:00,2.441526889801,2,versionA_stim.csv,READVersionB.csv,"Read Version B","Dissertation, read only version B",PUSHER,CLUTTER,Study1,U,66,20,Test,User,-,,Recall,Recall2,2005,Taker,50,1534,1911,0,0,,1
5cf5e1d2dbfc900001f253c5,gp2y9gmtlx,Nick_Dissertation_EX1,1,297,2020-06-02T09:34:10-07:00,2.703330039978,2,versionA_stim.csv,READVersionB.csv,"Read Version B","Dissertation, read only version B",WAGE,MONEY,Study1,F,8,77,Test,User,-,,Recall,Recall2,2241,Money,100,1305,1846,1,1,,1
5cf5e1d2dbfc900001f253c5,gp2y9gmtlx,Nick_Dissertation_EX1,1,298,2020-06-02T09:34:13-07:00,2.6182539463043,2,versionA_stim.csv,READVersionB.csv,"Read Version B","Dissertation, read only version B",PLANE,PILOT,Study1,B,44,31,Test,User,-,,Recall,Recall2,2195,Crash,0,1413,1951,0,0,,1
5cf5e1d2dbfc900001f253c5,gp2y9gmtlx,Nick_Dissertation_EX1,1,299,2020-06-02T09:34:16-07:00,3.2430119514465,2,versionA_stim.csv,READVersionB.csv,"Read Version B","Dissertation, read only version B",SMELL,STENCH,Study1,B,42,55,Test,User,-,,Recall,Recall2,2761,Stench,100,1901,2469,1,1,,1
5cf5e1d2dbfc900001f253c5,gp2y9gmtlx,Nick_Dissertation_EX1,1,300,2020-06-02T09:34:20-07:00,3.5578961372375,2,versionA_stim.csv,READVersionB.csv,"Read Version B","Dissertation, read only version B",GREAT,FANTASTIC,Study1,B,35,39,Test,User,-,,Recall,Recall2,3096,Best,30.769230769231,2474,3004,0,0,,1
5cf5e1d2dbfc900001f253c5,gp2y9gmtlx,Nick_Dissertation_EX1,1,301,2020-06-02T09:34:23-07:00,3.0260279178619,2,versionA_stim.csv,READVersionB.csv,"Read Version B","Dissertation, read only version B",ARTERY,BRONZE,Study1,U,74,82,Test,User,-,,Recall,Recall2,2610,bronze,100,1809,2508,1,1,,1
5cf5e1d2dbfc900001f253c5,gp2y9gmtlx,Nick_Dissertation_EX1,1,302,2020-06-02T09:34:25-07:00,2.2579889297485,2,versionA_stim.csv,READVersionB.csv,"Read Version B","Dissertation, read only version B",BLOW,WIND,Study1,S,55,18,Test,User,-,,Recall,Recall2,1824,wind,100,1373,1708,1,1,,1
5cf5e1d2dbfc900001f253c5,gp2y9gmtlx,Nick_Dissertation_EX1,1,303,2020-06-02T09:34:28-07:00,3.1791081428528,2,versionA_stim.csv,READVersionB.csv,"Read Version B","Dissertation, read only version B",POP,SODA,Study1,S,56,62,Test,User,-,,Recall,Recall2,2659,Drink,22.222222222222,1783,2458,0,0,,1
5cf5e1d2dbfc900001f253c5,gp2y9gmtlx,Nick_Dissertation_EX1,1,304,2020-06-02T09:34:31-07:00,2.3232400417328,2,versionA_stim.csv,READVersionB.csv,"Read Version B","Dissertation, read only version B",GEOLOGY,ROCK,Study1,F,19,42,Test,User,-,,Recall,Recall2,1859,Rock,100,1071,1683,1,1,,1
5cf5e1d2dbfc900001f253c5,gp2y9gmtlx,Nick_Dissertation_EX1,1,305,2020-06-02T09:34:33-07:00,2.4171488285065,2,versionA_stim.csv,READVersionB.csv,"Read Version B","Dissertation, read only version B",WINE,CHEESE,Study1,S,57,44,Test,User,-,,Recall,Recall2,1953,cheese,100,1213,1864,1,1,,1
5cf5e1d2dbfc900001f253c5,gp2y9gmtlx,Nick_Dissertation_EX1,1,306,2020-06-02T09:34:37-07:00,3.707976102829,2,versionA_stim.csv,READVersionB.csv,"Read Version B","Dissertation, read only version B",MACHINE,POSITION,Study1,U,76,45,Test,User,-,,Recall,Recall2,3254,turn,33.333333333333,1304,2661,0,0,,1
5cf5e1d2dbfc900001f253c5,gp2y9gmtlx,Nick_Dissertation_EX1,1,307,2020-06-02T09:34:40-07:00,3.0371248722076,2,versionA_stim.csv,READVersionB.csv,"Read Version B","Dissertation, read only version B",ROOT,PLANT,Study1,F,13,9,Test,User,-,,Recall,Recall2,2616,plant,100,1921,2493,1,1,,1
5cf5e1d2dbfc900001f253c5,gp2y9gmtlx,Nick_Dissertation_EX1,1,308,2020-06-02T09:34:43-07:00,2.8341879844666,2,versionA_stim.csv,READVersionB.csv,"Read Version B","Dissertation, read only version B",MEANING,DEFINITION,Study1,S,62,19,Test,User,-,,Recall,Recall2,2399,definition,100,1160,2241,1,1,,1
5cf5e1d2dbfc900001f253c5,gp2y9gmtlx,Nick_Dissertation_EX1,1,309,2020-06-02T09:34:45-07:00,2.0447010993958,2,versionA_stim.csv,READVersionB.csv,"Read Version B","Dissertation, read only version B",KEY,LATCH,Study1,B,36,24,Test,User,-,,Recall,Recall2,1622,turn,22.222222222222,1076,1440,0,0,,1
5cf5e1d2dbfc900001f253c5,gp2y9gmtlx,Nick_Dissertation_EX1,1,310,2020-06-02T09:34:47-07:00,2.0236029624939,2,versionA_stim.csv,READVersionB.csv,"Read Version B","Dissertation, read only version B",BRIDGE,WATER,Study1,F,18,66,Test,User,-,,Recall,Recall2,1581,water,100,1049,1443,1,1,,1
5cf5e1d2dbfc900001f253c5,gp2y9gmtlx,Nick_Dissertation_EX1,1,311,2020-06-02T09:34:50-07:00,3.2820191383362,2,versionA_stim.csv,READVersionB.csv,"Read Version B","Dissertation, read only version B",FIX,HAND,Study1,U,75,52,Test,User,-,,Recall,Recall2,2857,replace,18.181818181818,2214,2728,0,0,,1
5cf5e1d2dbfc900001f253c5,gp2y9gmtlx,Nick_Dissertation_EX1,1,312,2020-06-02T09:34:55-07:00,4.8110468387604,2,versionA_stim.csv,READVersionB.csv,"Read Version B","Dissertation, read only version B",DUE,ASSIGNMENT,Study1,S,46,14,Test,User,-,,Recall,Recall2,4358,deadline,22.222222222222,3388,4234,0,0,,1
5cf5e1d2dbfc900001f253c5,gp2y9gmtlx,Nick_Dissertation_EX1,1,313,2020-06-02T09:34:58-07:00,3.7425451278687,2,versionA_stim.csv,READVersionB.csv,"Read Version B","Dissertation, read only version B",WORK,CHORE,Study1,B,39,70,Test,User,-,,Recall,Recall2,3293,Play,0,1164,3160,0,0,,1
5cf5e1d2dbfc900001f253c5,gp2y9gmtlx,Nick_Dissertation_EX1,1,314,2020-06-02T09:35:06-07:00,7.1540739536285,2,versionA_stim.csv,READVersionB.csv,"Read Version B","Dissertation, read only version B",STRONG,ACCIDENT,Study1,U,80,11,Test,User,-,,Recall,Recall2,6715,Lift,33.333333333333,6085,6598,0,0,,1
5cf5e1d2dbfc900001f253c5,gp2y9gmtlx,Nick_Dissertation_EX1,1,315,2020-06-02T09:35:10-07:00,4.5086989402771,2,versionA_stim.csv,READVersionB.csv,"Read Version B","Dissertation, read only version B",DIETARY,SACKING,Study1,U,67,25,Test,User,-,,Recall,Recall2,4055,sacking,100,2972,3890,1,1,,1
5cf5e1d2dbfc900001f253c5,gp2y9gmtlx,Nick_Dissertation_EX1,1,316,2020-06-02T09:35:12-07:00,2.2638580799103,2,versionA_stim.csv,READVersionB.csv,"Read Version B","Dissertation, read only version B",BEGIN,END,Study1,S,54,60,Test,User,-,,Recall,Recall2,1695,End,100,1183,1559,1,1,,1
5cf5e1d2dbfc900001f253c5,gp2y9gmtlx,Nick_Dissertation_EX1,1,317,2020-06-02T09:35:15-07:00,2.4331109523773,2,versionA_stim.csv,READVersionB.csv,"Read Version B","Dissertation, read only version B",HYGIENE,CLEAN,Study1,F,17,40,Test,User,-,,Recall,Recall2,1986,clean,100,1255,1721,1,1,,1
5cf5e1d2dbfc900001f253c5,gp2y9gmtlx,Nick_Dissertation_EX1,1,318,2020-06-02T09:35:17-07:00,2.5633769035339,2,versionA_stim.csv,READVersionB.csv,"Read Version B","Dissertation, read only version B",DRINK,SIP,Study1,B,27,72,Test,User,-,,Recall,Recall2,2132,water,0,1299,2007,0,0,,1
5cf5e1d2dbfc900001f253c5,gp2y9gmtlx,Nick_Dissertation_EX1,1,319,2020-06-02T09:35:20-07:00,2.6365571022034,2,versionA_stim.csv,READVersionB.csv,"Read Version B","Dissertation, read only version B",ART,LION,Study1,U,79,37,Test,User,-,,Recall,Recall2,2221,lion,100,1526,2071,1,1,,1
5cf5e1d2dbfc900001f253c5,gp2y9gmtlx,Nick_Dissertation_EX1,1,320,2020-06-02T09:35:22-07:00,2.2189071178436,2,versionA_stim.csv,READVersionB.csv,"Read Version B","Dissertation, read only version B",HUNGER,FAMINE,Study1,B,40,35,Test,User,-,,Recall,Recall2,1753,eat,22.222222222222,1433,1687,0,0,,1
5cf5e1d2dbfc900001f253c5,gp2y9gmtlx,Nick_Dissertation_EX1,1,321,2020-06-02T09:35:26-07:00,3.5308859348297,2,versionA_stim.csv,READVersionB.csv,"Read Version B","Dissertation, read only version B",WAY,OUT,Study1,F,16,81,Test,User,-,,Recall,Recall2,3102,route,75,2571,2973,0,1,,1
5cf5e1d2dbfc900001f253c5,gp2y9gmtlx,Nick_Dissertation_EX1,1,322,2020-06-02T09:35:28-07:00,2.0446929931641,2,versionA_stim.csv,READVersionB.csv,"Read Version B","Dissertation, read only version B",DISCOVER,FLOOR,Study1,U,71,83,Test,User,-,,Recall,Recall2,1645,find,22.222222222222,1215,1523,0,0,,1
5cf5e1d2dbfc900001f253c5,gp2y9gmtlx,Nick_Dissertation_EX1,1,323,2020-06-02T09:35:30-07:00,2.0147440433502,2,versionA_stim.csv,READVersionB.csv,"Read Version B","Dissertation, read only version B",TAKE,SEIZE,Study1,B,29,80,Test,User,-,,Recall,Recall2,1588,Give,44.444444444444,1177,1498,0,0,,1
5cf5e1d2dbfc900001f253c5,gp2y9gmtlx,Nick_Dissertation_EX1,1,324,2020-06-02T09:35:32-07:00,1.8215839862823,2,versionA_stim.csv,READVersionB.csv,"Read Version B","Dissertation, read only version B",LETTUCE,SALAD,Study1,S,59,59,Test,User,-,,Recall,Recall2,1401,salad,100,946,1312,1,1,,1
5cf5e1d2dbfc900001f253c5,gp2y9gmtlx,Nick_Dissertation_EX1,1,325,2020-06-02T09:35:37-07:00,5.0969569683075,2,versionA_stim.csv,READVersionB.csv,"Read Version B","Dissertation, read only version B",HERD,COW,Study1,F,22,75,Test,User,-,,Recall,Recall2,4650,Cow,100,3880,4510,1,1,,1
5cf5e1d2dbfc900001f253c5,gp2y9gmtlx,Nick_Dissertation_EX1,1,326,2020-06-02T09:35:40-07:00,3.2419519424438,2,versionA_stim.csv,READVersionB.csv,"Read Version B","Dissertation, read only version B",DARK,CAVE,Study1,B,28,86,Test,User,-,,Recall,Recall2,2823,Night,0,2299,2730,0,0,,1
5cf5e1d2dbfc900001f253c5,gp2y9gmtlx,Nick_Dissertation_EX1,1,327,2020-06-02T09:35:42-07:00,2.0027251243591,2,versionA_stim.csv,READVersionB.csv,"Read Version B","Dissertation, read only version B",CIRCLE,ROUND,Study1,S,65,85,Test,User,-,,Recall,Recall2,1567,round,100,998,1446,1,1,,1
5cf5e1d2dbfc900001f253c5,gp2y9gmtlx,Nick_Dissertation_EX1,1,328,2020-06-02T09:35:44-07:00,1.7516539096832,2,versionA_stim.csv,READVersionB.csv,"Read Version B","Dissertation, read only version B",KIDNEY,LIVER,Study1,S,53,57,Test,User,-,,Recall,Recall2,1337,liver,100,887,1272,1,1,,1
5cf5e1d2dbfc900001f253c5,gp2y9gmtlx,Nick_Dissertation_EX1,1,329,2020-06-02T09:35:46-07:00,2.4168879985809,2,versionA_stim.csv,READVersionB.csv,"Read Version B","Dissertation, read only version B",SHOE,FOOT,Study1,S,60,15,Test,User,-,,Recall,Recall2,2008,lace,0,1675,1931,0,0,,1
5cf5e1d2dbfc900001f253c5,gp2y9gmtlx,Nick_Dissertation_EX1,1,330,2020-06-02T09:35:48-07:00,1.8046870231628,2,versionA_stim.csv,READVersionB.csv,"Read Version B","Dissertation, read only version B",PAW,DOG,Study1,F,15,10,Test,User,-,,Recall,Recall2,1370,dog,100,1077,1278,1,1,,1
5cf5e1d2dbfc900001f253c5,gp2y9gmtlx,Nick_Dissertation_EX1,1,331,2020-06-02T09:35:50-07:00,1.8786199092865,2,versionA_stim.csv,READVersionB.csv,"Read Version B","Dissertation, read only version B",HAPPY,CAR,Study1,U,77,76,Test,User,-,,Recall,Recall2,1411,car,100,1063,1278,1,1,,1
5cf5e1d2dbfc900001f253c5,gp2y9gmtlx,Nick_Dissertation_EX1,1,332,2020-06-02T09:35:52-07:00,2.3093831539154,2,versionA_stim.csv,READVersionB.csv,"Read Version B","Dissertation, read only version B",FIRE,BLAZE,Study1,B,45,49,Test,User,-,,Recall,Recall2,1880,burn,22.222222222222,1330,1701,0,0,,1
5cf5e1d2dbfc900001f253c5,gp2y9gmtlx,Nick_Dissertation_EX1,1,333,2020-06-02T09:35:55-07:00,3.1590118408203,2,versionA_stim.csv,READVersionB.csv,"Read Version B","Dissertation, read only version B",ARCHITECTURE,DESIGN,Study1,S,51,23,Test,User,-,,Recall,Recall2,2740,design,100,1119,2558,1,1,,1
5cf5e1d2dbfc900001f253c5,gp2y9gmtlx,Nick_Dissertation_EX1,1,334,2020-06-02T09:35:58-07:00,2.5013890266418,2,versionA_stim.csv,READVersionB.csv,"Read Version B","Dissertation, read only version B",TRIAL,JURY,Study1,S,50,22,Test,User,-,,Recall,Recall2,2052,jury,100,1522,1967,1,1,,1
5cf5e1d2dbfc900001f253c5,gp2y9gmtlx,Nick_Dissertation_EX1,1,335,2020-06-02T09:36:02-07:00,4.0424420833588,2,versionA_stim.csv,READVersionB.csv,"Read Version B","Dissertation, read only version B",DISCUSSION,TALK,Study1,F,21,69,Test,User,-,,Recall,Recall2,3620,debate,20,2130,2746,0,0,,1
5cf5e1d2dbfc900001f253c5,gp2y9gmtlx,Nick_Dissertation_EX1,1,336,2020-06-02T09:36:04-07:00,2.6445229053497,2,versionA_stim.csv,READVersionB.csv,"Read Version B","Dissertation, read only version B",HEIGHT,GROWTH,Study1,B,30,58,Test,User,-,,Recall,Recall2,2138,weight,33.333333333333,1600,2018,0,0,,1
5cf5e1d2dbfc900001f253c5,gp2y9gmtlx,Nick_Dissertation_EX1,1,337,2020-06-02T09:36:07-07:00,2.0612781047821,2,versionA_stim.csv,READVersionB.csv,"Read Version B","Dissertation, read only version B",BABY,CHILD,Study1,S,64,51,Test,User,-,,Recall,Recall2,1622,child,100,998,1493,1,1,,1
5cf5e1d2dbfc900001f253c5,gp2y9gmtlx,Nick_Dissertation_EX1,1,338,2020-06-02T09:36:12-07:00,5.1707880496979,2,versionA_stim.csv,READVersionB.csv,"Read Version B","Dissertation, read only version B",CASH,WOULD,Study1,U,83,29,Test,User,-,,Recall,Recall2,3721,banker,0,3094,3660,0,0,,1
5cf5e1d2dbfc900001f253c5,gp2y9gmtlx,Nick_Dissertation_EX1,1,339,2020-06-02T09:36:14-07:00,2.6534278392792,2,versionA_stim.csv,READVersionB.csv,"Read Version B","Dissertation, read only version B",BALL,RACKET,Study1,B,38,21,Test,User,-,,Recall,Recall2,2215,racket,100,1262,2061,1,1,,1
5cf5e1d2dbfc900001f253c5,gp2y9gmtlx,Nick_Dissertation_EX1,1,340,2020-06-02T09:36:19-07:00,4.5687191486359,2,versionA_stim.csv,READVersionB.csv,"Read Version B","Dissertation, read only version B",HIDE,SICK,Study1,U,84,26,Test,User,-,,Recall,Recall2,4099,scare,44.444444444444,3493,3987,0,0,,1
5cf5e1d2dbfc900001f253c5,gp2y9gmtlx,Nick_Dissertation_EX1,1,341,2020-06-02T09:36:31-07:00,12.364453792572,2,versionA_stim.csv,READVersionB.csv,"Read Version B","Dissertation, read only version B",VALLEY,ADD,Study1,U,82,63,Test,User,-,,Recall,Recall2,4044,hill,0,3524,3917,0,0,,1
5cf5e1d2dbfc900001f253c5,gp2y9gmtlx,Nick_Dissertation_EX1,1,342,2020-06-02T09:36:34-07:00,2.5098512172699,2,versionA_stim.csv,READVersionB.csv,"Read Version B","Dissertation, read only version B",SWAN,BIRD,Study1,F,14,8,Test,User,-,,Recall,Recall2,1922,bird,100,1432,1864,1,1,,1
5cf5e1d2dbfc900001f253c5,gp2y9gmtlx,Nick_Dissertation_EX1,1,343,2020-06-02T09:36:38-07:00,4.5417289733887,2,versionA_stim.csv,READVersionB.csv,"Read Version B","Dissertation, read only version B",SLEEP,DROWSY,Study1,B,41,64,Test,User,-,,Recall,Recall2,2489,tired,18.181818181818,1985,2412,0,0,,1
5cf5e1d2dbfc900001f253c5,gp2y9gmtlx,Nick_Dissertation_EX1,1,344,2020-06-02T09:36:43-07:00,4.708456993103,2,versionA_stim.csv,READVersionB.csv,"Read Version B","Dissertation, read only version B",DELINQUENT,BAD,Study1,F,6,28,Test,User,-,,Recall,Recall2,4202,criminal,18.181818181818,2030,3952,0,0,,1
5cf5e1d2dbfc900001f253c5,gp2y9gmtlx,Nick_Dissertation_EX1,1,345,2020-06-02T09:36:46-07:00,3.3684718608856,2,versionA_stim.csv,READVersionB.csv,"Read Version B","Dissertation, read only version B",BITTER,COLD,Study1,F,12,38,Test,User,-,,Recall,Recall2,2858,Sweet,0,1852,2709,0,0,,1
5cf5e1d2dbfc900001f253c5,gp2y9gmtlx,Nick_Dissertation_EX1,1,346,2020-06-02T09:36:49-07:00,2.1456241607666,2,versionA_stim.csv,READVersionB.csv,"Read Version B","Dissertation, read only version B",HONEY,BEE,Study1,S,63,13,Test,User,-,,Recall,Recall2,1600,bee,100,1212,1462,1,1,,1
