Username,ID,ExperimentName,Session,Trial,Date,TimeDif,"Condition Number","Stimuli File","Order File","Condition Description","Condition Notes",Stimuli*Cue,Stimuli*Answer,Stimuli*Shuffle,"Stimuli*Stimuli Notes",Stimuli*Value,Procedure*Item,"Procedure*Trial Type","Procedure*Max Time","Procedure*Min Time",Procedure*Text,"Procedure*Procedure Notes",Procedure*Shuffle,Response*RT,Response*Response,Response*Accuracy,Response*RTfirst,Response*RTlast,Response*strictAcc,Response*lenientAcc,Response*focus,Response*Focus
5e72cb7f4fabc9222100f9b8,arqx02ohvd,Nick_Dissertation_EX1,1,1,2020-06-02T09:00:48-07:00,11.03395485878,4,versionC_stim.csv,READVersionD.csv,"Read Version D","Dissertation, read only version D",,,,,,0,Instruct,-,10,"Please study each of the following word pairs. Remember that your memory will be tested! When finished, press Enter to move to the next pair.",Initial_Instruct,Instruct1,10694,,,-1,-1,,,,1
5e72cb7f4fabc9222100f9b8,arqx02ohvd,Nick_Dissertation_EX1,1,2,2020-06-02T09:00:51-07:00,3.176393032074,4,versionC_stim.csv,READVersionD.csv,"Read Version D","Dissertation, read only version D",POTATO,CARROT,BUFFER3,Buffer,91,92,Study,User,-,,Study/JOL,BUFFER,2828,,,-1,-1,,,,1
5e72cb7f4fabc9222100f9b8,arqx02ohvd,Nick_Dissertation_EX1,1,3,2020-06-02T09:00:53-07:00,1.9398460388184,4,versionC_stim.csv,READVersionD.csv,"Read Version D","Dissertation, read only version D",FROZEN,ICE,BUFFER3,Buffer,94,94,Study,User,-,,Study/JOL,BUFFER,1641,,,-1,-1,,,,1
5e72cb7f4fabc9222100f9b8,arqx02ohvd,Nick_Dissertation_EX1,1,4,2020-06-02T09:00:54-07:00,1.3208470344543,4,versionC_stim.csv,READVersionD.csv,"Read Version D","Dissertation, read only version D",ADVENTURE,CAMP,BUFFER3,Buffer,95,93,Study,User,-,,Study/JOL,BUFFER,1025,,,-1,-1,,,,1
5e72cb7f4fabc9222100f9b8,arqx02ohvd,Nick_Dissertation_EX1,1,5,2020-06-02T09:00:55-07:00,1.2550520896912,4,versionC_stim.csv,READVersionD.csv,"Read Version D","Dissertation, read only version D",STRING,NOODLE,BUFFER3,Buffer,92,96,Study,User,-,,Study/JOL,BUFFER,971,,,-1,-1,,,,1
5e72cb7f4fabc9222100f9b8,arqx02ohvd,Nick_Dissertation_EX1,1,6,2020-06-02T09:00:57-07:00,1.3512899875641,4,versionC_stim.csv,READVersionD.csv,"Read Version D","Dissertation, read only version D",FISH,SHRIMP,BUFFER3,Buffer,93,95,Study,User,-,,Study/JOL,BUFFER,1047,,,-1,-1,,,,1
5e72cb7f4fabc9222100f9b8,arqx02ohvd,Nick_Dissertation_EX1,1,7,2020-06-02T09:00:58-07:00,1.0119428634644,4,versionC_stim.csv,READVersionD.csv,"Read Version D","Dissertation, read only version D",VILLAIN,BAD,Study2,F,118,104,Study,User,-,,Study/JOL,"Study Phase",731,,,-1,-1,,,,1
5e72cb7f4fabc9222100f9b8,arqx02ohvd,Nick_Dissertation_EX1,1,8,2020-06-02T09:00:59-07:00,1.4592599868774,4,versionC_stim.csv,READVersionD.csv,"Read Version D","Dissertation, read only version D",TIE,SHOELACE,Study2,B,99,121,Study,User,-,,Study/JOL,"Study Phase",1172,,,-1,-1,,,,1
5e72cb7f4fabc9222100f9b8,arqx02ohvd,Nick_Dissertation_EX1,1,9,2020-06-02T09:01:01-07:00,1.737279176712,4,versionC_stim.csv,READVersionD.csv,"Read Version D","Dissertation, read only version D",TRUTHFUL,HONEST,Study2,F,133,156,Study,User,-,,Study/JOL,"Study Phase",1431,,,-1,-1,,,,1
5e72cb7f4fabc9222100f9b8,arqx02ohvd,Nick_Dissertation_EX1,1,10,2020-06-02T09:01:02-07:00,1.1217849254608,4,versionC_stim.csv,READVersionD.csv,"Read Version D","Dissertation, read only version D",SHAVE,RAZOR,Study2,S,136,173,Study,User,-,,Study/JOL,"Study Phase",854,,,-1,-1,,,,1
5e72cb7f4fabc9222100f9b8,arqx02ohvd,Nick_Dissertation_EX1,1,11,2020-06-02T09:01:03-07:00,1.0681390762329,4,versionC_stim.csv,READVersionD.csv,"Read Version D","Dissertation, read only version D",PLANT,CACTUS,Study2,B,98,130,Study,User,-,,Study/JOL,"Study Phase",777,,,-1,-1,,,,1
5e72cb7f4fabc9222100f9b8,arqx02ohvd,Nick_Dissertation_EX1,1,12,2020-06-02T09:01:04-07:00,1.054830789566,4,versionC_stim.csv,READVersionD.csv,"Read Version D","Dissertation, read only version D",WAX,CANDLE,Study2,S,139,172,Study,User,-,,Study/JOL,"Study Phase",761,,,-1,-1,,,,1
5e72cb7f4fabc9222100f9b8,arqx02ohvd,Nick_Dissertation_EX1,1,13,2020-06-02T09:01:05-07:00,0.9456000328064,4,versionC_stim.csv,READVersionD.csv,"Read Version D","Dissertation, read only version D",DONKEY,MULE,Study2,B,108,176,Study,User,-,,Study/JOL,"Study Phase",642,,,-1,-1,,,,1
5e72cb7f4fabc9222100f9b8,arqx02ohvd,Nick_Dissertation_EX1,1,14,2020-06-02T09:01:08-07:00,2.4545140266418,4,versionC_stim.csv,READVersionD.csv,"Read Version D","Dissertation, read only version D",GROUND,EARTH,Study2,S,144,101,Study,User,-,,Study/JOL,"Study Phase",1178,,,-1,-1,,,,1
5e72cb7f4fabc9222100f9b8,arqx02ohvd,Nick_Dissertation_EX1,1,15,2020-06-02T09:01:09-07:00,0.92737102508545,4,versionC_stim.csv,READVersionD.csv,"Read Version D","Dissertation, read only version D",COLD,CHILL,Study2,B,114,146,Study,User,-,,Study/JOL,"Study Phase",636,,,-1,-1,,,,1
5e72cb7f4fabc9222100f9b8,arqx02ohvd,Nick_Dissertation_EX1,1,16,2020-06-02T09:01:10-07:00,1.6963999271393,4,versionC_stim.csv,READVersionD.csv,"Read Version D","Dissertation, read only version D",TEMPER,TANTRUM,Study2,S,154,145,Study,User,-,,Study/JOL,"Study Phase",1418,,,-1,-1,,,,1
5e72cb7f4fabc9222100f9b8,arqx02ohvd,Nick_Dissertation_EX1,1,17,2020-06-02T09:01:12-07:00,1.7331941127777,4,versionC_stim.csv,READVersionD.csv,"Read Version D","Dissertation, read only version D",THIMBLE,THREAD,Study2,F,121,149,Study,User,-,,Study/JOL,"Study Phase",1431,,,-1,-1,,,,1
5e72cb7f4fabc9222100f9b8,arqx02ohvd,Nick_Dissertation_EX1,1,18,2020-06-02T09:01:13-07:00,1.229681968689,4,versionC_stim.csv,READVersionD.csv,"Read Version D","Dissertation, read only version D",MYSTERY,DETECTIVE,Study2,B,100,105,Study,User,-,,Study/JOL,"Study Phase",943,,,-1,-1,,,,1
5e72cb7f4fabc9222100f9b8,arqx02ohvd,Nick_Dissertation_EX1,1,19,2020-06-02T09:01:14-07:00,1.2092189788818,4,versionC_stim.csv,READVersionD.csv,"Read Version D","Dissertation, read only version D",LONELY,ALONE,Study2,S,145,147,Study,User,-,,Study/JOL,"Study Phase",928,,,-1,-1,,,,1
5e72cb7f4fabc9222100f9b8,arqx02ohvd,Nick_Dissertation_EX1,1,20,2020-06-02T09:01:16-07:00,1.3568069934845,4,versionC_stim.csv,READVersionD.csv,"Read Version D","Dissertation, read only version D",CARBON,ELEMENT,Study2,S,141,108,Study,User,-,,Study/JOL,"Study Phase",1070,,,-1,-1,,,,1
5e72cb7f4fabc9222100f9b8,arqx02ohvd,Nick_Dissertation_EX1,1,21,2020-06-02T09:01:17-07:00,0.96910309791565,4,versionC_stim.csv,READVersionD.csv,"Read Version D","Dissertation, read only version D",BANKER,MONEY,Study2,F,132,144,Study,User,-,,Study/JOL,"Study Phase",660,,,-1,-1,,,,1
5e72cb7f4fabc9222100f9b8,arqx02ohvd,Nick_Dissertation_EX1,1,22,2020-06-02T09:01:19-07:00,2.0017528533936,4,versionC_stim.csv,READVersionD.csv,"Read Version D","Dissertation, read only version D",FICTION,LISTEN,Study2,U,164,142,Study,User,-,,Study/JOL,"Study Phase",1695,,,-1,-1,,,,1
5e72cb7f4fabc9222100f9b8,arqx02ohvd,Nick_Dissertation_EX1,1,23,2020-06-02T09:01:20-07:00,1.4851551055908,4,versionC_stim.csv,READVersionD.csv,"Read Version D","Dissertation, read only version D",FLIP,TURN,Study2,F,116,158,Study,User,-,,Study/JOL,"Study Phase",1184,,,-1,-1,,,,1
5e72cb7f4fabc9222100f9b8,arqx02ohvd,Nick_Dissertation_EX1,1,24,2020-06-02T09:01:21-07:00,1.1115529537201,4,versionC_stim.csv,READVersionD.csv,"Read Version D","Dissertation, read only version D",BRACELET,WRIST,Study2,S,140,170,Study,User,-,,Study/JOL,"Study Phase",821,,,-1,-1,,,,1
5e72cb7f4fabc9222100f9b8,arqx02ohvd,Nick_Dissertation_EX1,1,25,2020-06-02T09:01:23-07:00,1.4295620918274,4,versionC_stim.csv,READVersionD.csv,"Read Version D","Dissertation, read only version D",SMELL,INCENSE,Study2,B,110,116,Study,User,-,,Study/JOL,"Study Phase",1150,,,-1,-1,,,,1
5e72cb7f4fabc9222100f9b8,arqx02ohvd,Nick_Dissertation_EX1,1,26,2020-06-02T09:01:26-07:00,3.3919339179993,4,versionC_stim.csv,READVersionD.csv,"Read Version D","Dissertation, read only version D",CLEAR,MOAT,Study2,U,169,123,Study,User,-,,Study/JOL,"Study Phase",3102,,,-1,-1,,,,1
5e72cb7f4fabc9222100f9b8,arqx02ohvd,Nick_Dissertation_EX1,1,27,2020-06-02T09:01:27-07:00,1.3129539489746,4,versionC_stim.csv,READVersionD.csv,"Read Version D","Dissertation, read only version D",WET,DRY,Study2,S,146,115,Study,User,-,,Study/JOL,"Study Phase",1020,,,-1,-1,,,,1
5e72cb7f4fabc9222100f9b8,arqx02ohvd,Nick_Dissertation_EX1,1,28,2020-06-02T09:01:29-07:00,1.7529239654541,4,versionC_stim.csv,READVersionD.csv,"Read Version D","Dissertation, read only version D",BANG,FUZZY,Study2,U,168,110,Study,User,-,,Study/JOL,"Study Phase",1464,,,-1,-1,,,,1
5e72cb7f4fabc9222100f9b8,arqx02ohvd,Nick_Dissertation_EX1,1,29,2020-06-02T09:01:31-07:00,1.7583720684052,4,versionC_stim.csv,READVersionD.csv,"Read Version D","Dissertation, read only version D",SEATBELT,SAFETY,Study2,S,147,133,Study,User,-,,Study/JOL,"Study Phase",1475,,,-1,-1,,,,1
5e72cb7f4fabc9222100f9b8,arqx02ohvd,Nick_Dissertation_EX1,1,30,2020-06-02T09:01:32-07:00,1.1977119445801,4,versionC_stim.csv,READVersionD.csv,"Read Version D","Dissertation, read only version D",TRASH,LITTER,Study2,B,103,174,Study,User,-,,Study/JOL,"Study Phase",921,,,-1,-1,,,,1
5e72cb7f4fabc9222100f9b8,arqx02ohvd,Nick_Dissertation_EX1,1,31,2020-06-02T09:01:33-07:00,1.2103731632233,4,versionC_stim.csv,READVersionD.csv,"Read Version D","Dissertation, read only version D",CUT,CHOP,Study2,B,107,164,Study,User,-,,Study/JOL,"Study Phase",934,,,-1,-1,,,,1
5e72cb7f4fabc9222100f9b8,arqx02ohvd,Nick_Dissertation_EX1,1,32,2020-06-02T09:01:35-07:00,1.2131888866425,4,versionC_stim.csv,READVersionD.csv,"Read Version D","Dissertation, read only version D",REEL,ROD,Study2,S,150,113,Study,User,-,,Study/JOL,"Study Phase",907,,,-1,-1,,,,1
5e72cb7f4fabc9222100f9b8,arqx02ohvd,Nick_Dissertation_EX1,1,33,2020-06-02T09:01:36-07:00,1.6920490264893,4,versionC_stim.csv,READVersionD.csv,"Read Version D","Dissertation, read only version D",STRAWBERRY,FRUIT,Study2,F,124,169,Study,User,-,,Study/JOL,"Study Phase",1411,,,-1,-1,,,,1
5e72cb7f4fabc9222100f9b8,arqx02ohvd,Nick_Dissertation_EX1,1,34,2020-06-02T09:01:38-07:00,1.3920350074768,4,versionC_stim.csv,READVersionD.csv,"Read Version D","Dissertation, read only version D",DOG,FURRY,Study2,B,102,107,Study,User,-,,Study/JOL,"Study Phase",1087,,,-1,-1,,,,1
5e72cb7f4fabc9222100f9b8,arqx02ohvd,Nick_Dissertation_EX1,1,35,2020-06-02T09:01:39-07:00,1.4629230499268,4,versionC_stim.csv,READVersionD.csv,"Read Version D","Dissertation, read only version D",COMMUNICATION,PHONE,Study2,S,149,162,Study,User,-,,Study/JOL,"Study Phase",1103,,,-1,-1,,,,1
5e72cb7f4fabc9222100f9b8,arqx02ohvd,Nick_Dissertation_EX1,1,36,2020-06-02T09:01:40-07:00,1.2872560024261,4,versionC_stim.csv,READVersionD.csv,"Read Version D","Dissertation, read only version D",STEAK,GIVE,Study2,U,158,114,Study,User,-,,Study/JOL,"Study Phase",996,,,-1,-1,,,,1
5e72cb7f4fabc9222100f9b8,arqx02ohvd,Nick_Dissertation_EX1,1,37,2020-06-02T09:01:45-07:00,4.9080488681793,4,versionC_stim.csv,READVersionD.csv,"Read Version D","Dissertation, read only version D",LONG,EXTENSION,Study2,B,96,126,Study,User,-,,Study/JOL,"Study Phase",4621,,,-1,-1,,,,1
5e72cb7f4fabc9222100f9b8,arqx02ohvd,Nick_Dissertation_EX1,1,38,2020-06-02T09:01:47-07:00,1.2672760486603,4,versionC_stim.csv,READVersionD.csv,"Read Version D","Dissertation, read only version D",SIGN,LOAN,Study2,U,171,98,Study,User,-,,Study/JOL,"Study Phase",976,,,-1,-1,,,,1
5e72cb7f4fabc9222100f9b8,arqx02ohvd,Nick_Dissertation_EX1,1,39,2020-06-02T09:01:48-07:00,1.2204020023346,4,versionC_stim.csv,READVersionD.csv,"Read Version D","Dissertation, read only version D",EQUAL,RIGHTS,Study2,S,137,132,Study,User,-,,Study/JOL,"Study Phase",937,,,-1,-1,,,,1
5e72cb7f4fabc9222100f9b8,arqx02ohvd,Nick_Dissertation_EX1,1,40,2020-06-02T09:01:49-07:00,1.6214809417725,4,versionC_stim.csv,READVersionD.csv,"Read Version D","Dissertation, read only version D",EAT,DINE,Study2,B,111,141,Study,User,-,,Study/JOL,"Study Phase",1340,,,-1,-1,,,,1
5e72cb7f4fabc9222100f9b8,arqx02ohvd,Nick_Dissertation_EX1,1,41,2020-06-02T09:01:51-07:00,1.5392551422119,4,versionC_stim.csv,READVersionD.csv,"Read Version D","Dissertation, read only version D",OBTAIN,MEAT,Study2,U,161,151,Study,User,-,,Study/JOL,"Study Phase",1243,,,-1,-1,,,,1
5e72cb7f4fabc9222100f9b8,arqx02ohvd,Nick_Dissertation_EX1,1,42,2020-06-02T09:01:53-07:00,1.6763670444489,4,versionC_stim.csv,READVersionD.csv,"Read Version D","Dissertation, read only version D",GAME,CLUE,Study2,B,97,117,Study,User,-,,Study/JOL,"Study Phase",1390,,,-1,-1,,,,1
5e72cb7f4fabc9222100f9b8,arqx02ohvd,Nick_Dissertation_EX1,1,43,2020-06-02T09:01:56-07:00,3.8231358528137,4,versionC_stim.csv,READVersionD.csv,"Read Version D","Dissertation, read only version D",PENGUIN,BIRD,Study2,F,119,103,Study,User,-,,Study/JOL,"Study Phase",3502,,,-1,-1,,,,1
5e72cb7f4fabc9222100f9b8,arqx02ohvd,Nick_Dissertation_EX1,1,44,2020-06-02T09:01:58-07:00,1.2445900440216,4,versionC_stim.csv,READVersionD.csv,"Read Version D","Dissertation, read only version D",WINDSHIELD,CAR,Study2,F,117,163,Study,User,-,,Study/JOL,"Study Phase",957,,,-1,-1,,,,1
5e72cb7f4fabc9222100f9b8,arqx02ohvd,Nick_Dissertation_EX1,1,45,2020-06-02T09:01:59-07:00,1.288115978241,4,versionC_stim.csv,READVersionD.csv,"Read Version D","Dissertation, read only version D",FAVORITE,BEST,Study2,F,125,148,Study,User,-,,Study/JOL,"Study Phase",1017,,,-1,-1,,,,1
5e72cb7f4fabc9222100f9b8,arqx02ohvd,Nick_Dissertation_EX1,1,46,2020-06-02T09:02:01-07:00,1.511745929718,4,versionC_stim.csv,READVersionD.csv,"Read Version D","Dissertation, read only version D",CLOTH,STRETCH,Study2,U,157,135,Study,User,-,,Study/JOL,"Study Phase",1211,,,-1,-1,,,,1
5e72cb7f4fabc9222100f9b8,arqx02ohvd,Nick_Dissertation_EX1,1,47,2020-06-02T09:02:02-07:00,1.62193608284,4,versionC_stim.csv,READVersionD.csv,"Read Version D","Dissertation, read only version D",LOVE,AFFECTION,Study2,B,115,171,Study,User,-,,Study/JOL,"Study Phase",1337,,,-1,-1,,,,1
5e72cb7f4fabc9222100f9b8,arqx02ohvd,Nick_Dissertation_EX1,1,48,2020-06-02T09:02:03-07:00,1.2747910022736,4,versionC_stim.csv,READVersionD.csv,"Read Version D","Dissertation, read only version D",TOIL,LEASE,Study2,U,170,159,Study,User,-,,Study/JOL,"Study Phase",987,,,-1,-1,,,,1
5e72cb7f4fabc9222100f9b8,arqx02ohvd,Nick_Dissertation_EX1,1,49,2020-06-02T09:02:05-07:00,1.7736608982086,4,versionC_stim.csv,READVersionD.csv,"Read Version D","Dissertation, read only version D",HAVE,OWN,Study2,S,153,168,Study,User,-,,Study/JOL,"Study Phase",1484,,,-1,-1,,,,1
5e72cb7f4fabc9222100f9b8,arqx02ohvd,Nick_Dissertation_EX1,1,50,2020-06-02T09:02:07-07:00,1.590273141861,4,versionC_stim.csv,READVersionD.csv,"Read Version D","Dissertation, read only version D",CHILDREN,MIRROR,Study2,U,174,140,Study,User,-,,Study/JOL,"Study Phase",1319,,,-1,-1,,,,1
5e72cb7f4fabc9222100f9b8,arqx02ohvd,Nick_Dissertation_EX1,1,51,2020-06-02T09:02:09-07:00,2.1508300304413,4,versionC_stim.csv,READVersionD.csv,"Read Version D","Dissertation, read only version D",SCAR,MAIN,Study2,U,175,127,Study,User,-,,Study/JOL,"Study Phase",1861,,,-1,-1,,,,1
5e72cb7f4fabc9222100f9b8,arqx02ohvd,Nick_Dissertation_EX1,1,52,2020-06-02T09:02:19-07:00,10.425405979156,4,versionC_stim.csv,READVersionD.csv,"Read Version D","Dissertation, read only version D",PANTHER,CAT,Study2,F,126,154,Study,User,-,,Study/JOL,"Study Phase",3787,,,-1,-1,,,,1
5e72cb7f4fabc9222100f9b8,arqx02ohvd,Nick_Dissertation_EX1,1,53,2020-06-02T09:02:23-07:00,3.7203040122986,4,versionC_stim.csv,READVersionD.csv,"Read Version D","Dissertation, read only version D",CHARM,VEHICLE,Study2,U,160,119,Study,User,-,,Study/JOL,"Study Phase",3447,,,-1,-1,,,,1
5e72cb7f4fabc9222100f9b8,arqx02ohvd,Nick_Dissertation_EX1,1,54,2020-06-02T09:02:24-07:00,1.2021188735962,4,versionC_stim.csv,READVersionD.csv,"Read Version D","Dissertation, read only version D",COFFIN,DEAD,Study2,F,128,125,Study,User,-,,Study/JOL,"Study Phase",900,,,-1,-1,,,,1
5e72cb7f4fabc9222100f9b8,arqx02ohvd,Nick_Dissertation_EX1,1,55,2020-06-02T09:02:25-07:00,1.0988600254059,4,versionC_stim.csv,READVersionD.csv,"Read Version D","Dissertation, read only version D",HATE,NAME,Study2,U,167,138,Study,User,-,,Study/JOL,"Study Phase",806,,,-1,-1,,,,1
5e72cb7f4fabc9222100f9b8,arqx02ohvd,Nick_Dissertation_EX1,1,56,2020-06-02T09:02:27-07:00,1.6243491172791,4,versionC_stim.csv,READVersionD.csv,"Read Version D","Dissertation, read only version D",FIGHT,FEUD,Study2,B,113,161,Study,User,-,,Study/JOL,"Study Phase",1329,,,-1,-1,,,,1
5e72cb7f4fabc9222100f9b8,arqx02ohvd,Nick_Dissertation_EX1,1,57,2020-06-02T09:02:28-07:00,1.2823560237885,4,versionC_stim.csv,READVersionD.csv,"Read Version D","Dissertation, read only version D",RED,CHERRY,Study2,B,104,152,Study,User,-,,Study/JOL,"Study Phase",1002,,,-1,-1,,,,1
5e72cb7f4fabc9222100f9b8,arqx02ohvd,Nick_Dissertation_EX1,1,58,2020-06-02T09:02:31-07:00,3.0028069019318,4,versionC_stim.csv,READVersionD.csv,"Read Version D","Dissertation, read only version D",NOISE,LOUD,Study2,S,152,167,Study,User,-,,Study/JOL,"Study Phase",2712,,,-1,-1,,,,1
5e72cb7f4fabc9222100f9b8,arqx02ohvd,Nick_Dissertation_EX1,1,59,2020-06-02T09:02:34-07:00,2.2349720001221,4,versionC_stim.csv,READVersionD.csv,"Read Version D","Dissertation, read only version D",CLOTHES,CAKE,Study2,U,166,97,Study,User,-,,Study/JOL,"Study Phase",1939,,,-1,-1,,,,1
5e72cb7f4fabc9222100f9b8,arqx02ohvd,Nick_Dissertation_EX1,1,60,2020-06-02T09:02:35-07:00,1.2311990261078,4,versionC_stim.csv,READVersionD.csv,"Read Version D","Dissertation, read only version D",HEAD,SCALP,Study2,B,105,153,Study,User,-,,Study/JOL,"Study Phase",952,,,-1,-1,,,,1
5e72cb7f4fabc9222100f9b8,arqx02ohvd,Nick_Dissertation_EX1,1,61,2020-06-02T09:02:36-07:00,1.108717918396,4,versionC_stim.csv,READVersionD.csv,"Read Version D","Dissertation, read only version D",TAN,SUN,Study2,S,155,128,Study,User,-,,Study/JOL,"Study Phase",819,,,-1,-1,,,,1
5e72cb7f4fabc9222100f9b8,arqx02ohvd,Nick_Dissertation_EX1,1,62,2020-06-02T09:02:37-07:00,1.1681690216064,4,versionC_stim.csv,READVersionD.csv,"Read Version D","Dissertation, read only version D",AIRCRAFT,PLANE,Study2,F,129,109,Study,User,-,,Study/JOL,"Study Phase",854,,,-1,-1,,,,1
5e72cb7f4fabc9222100f9b8,arqx02ohvd,Nick_Dissertation_EX1,1,63,2020-06-02T09:02:38-07:00,1.3646011352539,4,versionC_stim.csv,READVersionD.csv,"Read Version D","Dissertation, read only version D",SCISSORS,SHEARS,Study2,B,112,131,Study,User,-,,Study/JOL,"Study Phase",1090,,,-1,-1,,,,1
5e72cb7f4fabc9222100f9b8,arqx02ohvd,Nick_Dissertation_EX1,1,64,2020-06-02T09:02:41-07:00,2.2402839660645,4,versionC_stim.csv,READVersionD.csv,"Read Version D","Dissertation, read only version D",Morning,TEMPERATURE,Study2,U,173,112,Study,User,-,,Study/JOL,"Study Phase",1897,,,-1,-1,,,,1
5e72cb7f4fabc9222100f9b8,arqx02ohvd,Nick_Dissertation_EX1,1,65,2020-06-02T09:02:42-07:00,1.7075078487396,4,versionC_stim.csv,READVersionD.csv,"Read Version D","Dissertation, read only version D",REVENGE,EVEN,Study2,F,122,122,Study,User,-,,Study/JOL,"Study Phase",1437,,,-1,-1,,,,1
5e72cb7f4fabc9222100f9b8,arqx02ohvd,Nick_Dissertation_EX1,1,66,2020-06-02T09:02:44-07:00,1.8939561843872,4,versionC_stim.csv,READVersionD.csv,"Read Version D","Dissertation, read only version D",SARDINE,FISH,Study2,F,130,155,Study,User,-,,Study/JOL,"Study Phase",1600,,,-1,-1,,,,1
5e72cb7f4fabc9222100f9b8,arqx02ohvd,Nick_Dissertation_EX1,1,67,2020-06-02T09:02:46-07:00,1.8817608356476,4,versionC_stim.csv,READVersionD.csv,"Read Version D","Dissertation, read only version D",JAR,MASON,Study2,S,138,157,Study,User,-,,Study/JOL,"Study Phase",1604,,,-1,-1,,,,1
5e72cb7f4fabc9222100f9b8,arqx02ohvd,Nick_Dissertation_EX1,1,68,2020-06-02T09:02:48-07:00,2.256373167038,4,versionC_stim.csv,READVersionD.csv,"Read Version D","Dissertation, read only version D",END,ADJOURN,Study2,B,101,99,Study,User,-,,Study/JOL,"Study Phase",1942,,,-1,-1,,,,1
5e72cb7f4fabc9222100f9b8,arqx02ohvd,Nick_Dissertation_EX1,1,69,2020-06-02T09:02:50-07:00,1.6004498004913,4,versionC_stim.csv,READVersionD.csv,"Read Version D","Dissertation, read only version D",CAR,DRIVER,Study2,B,106,165,Study,User,-,,Study/JOL,"Study Phase",1317,,,-1,-1,,,,1
5e72cb7f4fabc9222100f9b8,arqx02ohvd,Nick_Dissertation_EX1,1,70,2020-06-02T09:02:52-07:00,2.1463630199432,4,versionC_stim.csv,READVersionD.csv,"Read Version D","Dissertation, read only version D",ACTRESS,STAR,Study2,F,120,100,Study,User,-,,Study/JOL,"Study Phase",1827,,,-1,-1,,,,1
5e72cb7f4fabc9222100f9b8,arqx02ohvd,Nick_Dissertation_EX1,1,71,2020-06-02T09:02:57-07:00,4.4232530593872,4,versionC_stim.csv,READVersionD.csv,"Read Version D","Dissertation, read only version D",ABLE,CRACKLE,Study2,U,162,143,Study,User,-,,Study/JOL,"Study Phase",4082,,,-1,-1,,,,1
5e72cb7f4fabc9222100f9b8,arqx02ohvd,Nick_Dissertation_EX1,1,72,2020-06-02T09:03:08-07:00,11.567790031433,4,versionC_stim.csv,READVersionD.csv,"Read Version D","Dissertation, read only version D",JOKE,KEYS,Study2,U,165,150,Study,User,-,,Study/JOL,"Study Phase",11242,,,-1,-1,,,,1
5e72cb7f4fabc9222100f9b8,arqx02ohvd,Nick_Dissertation_EX1,1,73,2020-06-02T09:03:10-07:00,1.447676897049,4,versionC_stim.csv,READVersionD.csv,"Read Version D","Dissertation, read only version D",BREAKABLE,GLASS,Study2,F,127,160,Study,User,-,,Study/JOL,"Study Phase",1089,,,-1,-1,,,,1
5e72cb7f4fabc9222100f9b8,arqx02ohvd,Nick_Dissertation_EX1,1,74,2020-06-02T09:03:14-07:00,4.9129250049591,4,versionC_stim.csv,READVersionD.csv,"Read Version D","Dissertation, read only version D",MAROON,JUSTICE,Study2,U,156,111,Study,User,-,,Study/JOL,"Study Phase",4600,,,-1,-1,,,,1
5e72cb7f4fabc9222100f9b8,arqx02ohvd,Nick_Dissertation_EX1,1,75,2020-06-02T09:03:17-07:00,2.5890440940857,4,versionC_stim.csv,READVersionD.csv,"Read Version D","Dissertation, read only version D",OUNCE,BOTH,Study2,U,172,106,Study,User,-,,Study/JOL,"Study Phase",2294,,,-1,-1,,,,1
5e72cb7f4fabc9222100f9b8,arqx02ohvd,Nick_Dissertation_EX1,1,76,2020-06-02T09:03:19-07:00,2.2861220836639,4,versionC_stim.csv,READVersionD.csv,"Read Version D","Dissertation, read only version D",ELECTION,MAZE,Study2,U,159,175,Study,User,-,,Study/JOL,"Study Phase",1989,,,-1,-1,,,,1
5e72cb7f4fabc9222100f9b8,arqx02ohvd,Nick_Dissertation_EX1,1,77,2020-06-02T09:03:22-07:00,2.9431188106537,4,versionC_stim.csv,READVersionD.csv,"Read Version D","Dissertation, read only version D",LEAGUE,BASEBALL,Study2,F,131,120,Study,User,-,,Study/JOL,"Study Phase",2655,,,-1,-1,,,,1
5e72cb7f4fabc9222100f9b8,arqx02ohvd,Nick_Dissertation_EX1,1,78,2020-06-02T09:03:27-07:00,4.7545750141144,4,versionC_stim.csv,READVersionD.csv,"Read Version D","Dissertation, read only version D",TICK,FLEA,Study2,S,151,166,Study,User,-,,Study/JOL,"Study Phase",4470,,,-1,-1,,,,1
5e72cb7f4fabc9222100f9b8,arqx02ohvd,Nick_Dissertation_EX1,1,79,2020-06-02T09:03:29-07:00,1.988697052002,4,versionC_stim.csv,READVersionD.csv,"Read Version D","Dissertation, read only version D",AWAY,GONE,Study2,S,142,137,Study,User,-,,Study/JOL,"Study Phase",1699,,,-1,-1,,,,1
5e72cb7f4fabc9222100f9b8,arqx02ohvd,Nick_Dissertation_EX1,1,80,2020-06-02T09:03:31-07:00,2.42254114151,4,versionC_stim.csv,READVersionD.csv,"Read Version D","Dissertation, read only version D",PAPER,DOCUMENT,Study2,B,109,118,Study,User,-,,Study/JOL,"Study Phase",1119,,,-1,-1,,,,1
5e72cb7f4fabc9222100f9b8,arqx02ohvd,Nick_Dissertation_EX1,1,81,2020-06-02T09:03:33-07:00,1.3445589542389,4,versionC_stim.csv,READVersionD.csv,"Read Version D","Dissertation, read only version D",LIE,TRUTH,Study2,S,148,136,Study,User,-,,Study/JOL,"Study Phase",1044,,,-1,-1,,,,1
5e72cb7f4fabc9222100f9b8,arqx02ohvd,Nick_Dissertation_EX1,1,82,2020-06-02T09:03:34-07:00,1.4641928672791,4,versionC_stim.csv,READVersionD.csv,"Read Version D","Dissertation, read only version D",NAP,SLEEP,Study2,F,134,102,Study,User,-,,Study/JOL,"Study Phase",1146,,,-1,-1,,,,1
5e72cb7f4fabc9222100f9b8,arqx02ohvd,Nick_Dissertation_EX1,1,83,2020-06-02T09:03:36-07:00,1.3392219543457,4,versionC_stim.csv,READVersionD.csv,"Read Version D","Dissertation, read only version D",BRAWL,FIGHT,Study2,F,135,134,Study,User,-,,Study/JOL,"Study Phase",1042,,,-1,-1,,,,1
5e72cb7f4fabc9222100f9b8,arqx02ohvd,Nick_Dissertation_EX1,1,84,2020-06-02T09:03:37-07:00,1.6899721622467,4,versionC_stim.csv,READVersionD.csv,"Read Version D","Dissertation, read only version D",DRINK,WATER,Study2,S,143,139,Study,User,-,,Study/JOL,"Study Phase",1391,,,-1,-1,,,,1
5e72cb7f4fabc9222100f9b8,arqx02ohvd,Nick_Dissertation_EX1,1,85,2020-06-02T09:03:39-07:00,1.7756090164185,4,versionC_stim.csv,READVersionD.csv,"Read Version D","Dissertation, read only version D",BALLOON,POP,Study2,F,123,124,Study,User,-,,Study/JOL,"Study Phase",1490,,,-1,-1,,,,1
5e72cb7f4fabc9222100f9b8,arqx02ohvd,Nick_Dissertation_EX1,1,86,2020-06-02T09:03:41-07:00,2.049302816391,4,versionC_stim.csv,READVersionD.csv,"Read Version D","Dissertation, read only version D",SHAKE,Shell,Study2,U,163,129,Study,User,-,,Study/JOL,"Study Phase",1747,,,-1,-1,,,,1
5e72cb7f4fabc9222100f9b8,arqx02ohvd,Nick_Dissertation_EX1,1,87,2020-06-02T09:03:43-07:00,1.9363830089569,4,versionC_stim.csv,READVersionD.csv,"Read Version D","Dissertation, read only version D",SPOOKY,OCTOBER,BUFFER4,Buffer,180,180,Study,User,-,,Study/JOL,BUFFER2,1623,,,-1,-1,,,,1
5e72cb7f4fabc9222100f9b8,arqx02ohvd,Nick_Dissertation_EX1,1,88,2020-06-02T09:03:45-07:00,1.8919010162354,4,versionC_stim.csv,READVersionD.csv,"Read Version D","Dissertation, read only version D",MARCH,SPRING,BUFFER4,Buffer,179,181,Study,User,-,,Study/JOL,BUFFER2,1618,,,-1,-1,,,,1
5e72cb7f4fabc9222100f9b8,arqx02ohvd,Nick_Dissertation_EX1,1,89,2020-06-02T09:03:47-07:00,1.8444221019745,4,versionC_stim.csv,READVersionD.csv,"Read Version D","Dissertation, read only version D",SHED,TOOL,BUFFER4,Buffer,178,178,Study,User,-,,Study/JOL,BUFFER2,1562,,,-1,-1,,,,1
5e72cb7f4fabc9222100f9b8,arqx02ohvd,Nick_Dissertation_EX1,1,90,2020-06-02T09:03:50-07:00,3.2283360958099,4,versionC_stim.csv,READVersionD.csv,"Read Version D","Dissertation, read only version D",WEAKS,DAYS,BUFFER4,Buffer,176,179,Study,User,-,,Study/JOL,BUFFER2,2907,,,-1,-1,,,,1
5e72cb7f4fabc9222100f9b8,arqx02ohvd,Nick_Dissertation_EX1,1,91,2020-06-02T09:03:58-07:00,7.8807668685913,4,versionC_stim.csv,READVersionD.csv,"Read Version D","Dissertation, read only version D",YEAR,MONTH,BUFFER4,Buffer,177,177,Study,User,-,,Study/JOL,BUFFER2,7599,,,-1,-1,,,,0.75
5e72cb7f4fabc9222100f9b8,arqx02ohvd,Nick_Dissertation_EX1,1,92,2020-06-02T09:04:00-07:00,1.9850080013275,4,versionC_stim.csv,READVersionD.csv,"Read Version D","Dissertation, read only version D",,,,,,0,Instruct,User,-,"You have completed this section. Please press Enter.",Filler_Instruction,Instruct2,1667,,,-1,-1,,,,1
5e72cb7f4fabc9222100f9b8,arqx02ohvd,Nick_Dissertation_EX1,1,93,2020-06-02T09:06:00-07:00,120.3246691227,4,versionC_stim.csv,READVersionD.csv,"Read Version D","Dissertation, read only version D",,,,,,0,FreeRecall,120,120,"Please list the 50 US states in alphabetical order. The task will automatically advance to the next screen after two minutes.",,Filler1,120002,"Alabama Alaska Arizona California Colorado Connecticut Hawaii Maine New York Oregon Texas Washington Wyoming",0,15784,118628,0,0,,1
5e72cb7f4fabc9222100f9b8,arqx02ohvd,Nick_Dissertation_EX1,1,94,2020-06-02T09:06:11-07:00,10.999480009079,4,versionC_stim.csv,READVersionD.csv,"Read Version D","Dissertation, read only version D",,,,,,0,Instruct,-,10,"You will now be presented with the first word from each of the previously studied item pairs. Please type the missing word. If you do not know the word, you may guess or press Enter to skip forward to the next pair.",,Instruct3,10613,,,-1,-1,,,,1
5e72cb7f4fabc9222100f9b8,arqx02ohvd,Nick_Dissertation_EX1,1,95,2020-06-02T09:06:24-07:00,12.49510383606,4,versionC_stim.csv,READVersionD.csv,"Read Version D","Dissertation, read only version D",ELECTION,MAZE,Study2,U,159,175,Test,User,-,,Recall,Recall1,12119,vote,25,10516,10955,0,0,,1
5e72cb7f4fabc9222100f9b8,arqx02ohvd,Nick_Dissertation_EX1,1,96,2020-06-02T09:06:27-07:00,3.3892951011658,4,versionC_stim.csv,READVersionD.csv,"Read Version D","Dissertation, read only version D",CUT,CHOP,Study2,B,107,164,Test,User,-,,Recall,Recall1,3048,shears,20,2169,2861,0,0,,1
5e72cb7f4fabc9222100f9b8,arqx02ohvd,Nick_Dissertation_EX1,1,97,2020-06-02T09:06:29-07:00,1.9229919910431,4,versionC_stim.csv,READVersionD.csv,"Read Version D","Dissertation, read only version D",PENGUIN,BIRD,Study2,F,119,103,Test,User,-,,Recall,Recall1,1613,bird,100,1061,1517,1,1,,1
5e72cb7f4fabc9222100f9b8,arqx02ohvd,Nick_Dissertation_EX1,1,98,2020-06-02T09:06:31-07:00,2.4040808677673,4,versionC_stim.csv,READVersionD.csv,"Read Version D","Dissertation, read only version D",LONELY,ALONE,Study2,S,145,147,Test,User,-,,Recall,Recall1,2101,alone,100,989,1488,1,1,,1
5e72cb7f4fabc9222100f9b8,arqx02ohvd,Nick_Dissertation_EX1,1,99,2020-06-02T09:06:35-07:00,3.259397983551,4,versionC_stim.csv,READVersionD.csv,"Read Version D","Dissertation, read only version D",HAVE,OWN,Study2,S,153,168,Test,User,-,,Recall,Recall1,2970,,0,-1,-1,0,0,,1
5e72cb7f4fabc9222100f9b8,arqx02ohvd,Nick_Dissertation_EX1,1,100,2020-06-02T09:06:49-07:00,14.277905225754,4,versionC_stim.csv,READVersionD.csv,"Read Version D","Dissertation, read only version D",LONG,EXTENSION,Study2,B,96,126,Test,User,-,,Recall,Recall1,13950,noodle,26.666666666667,12618,13338,0,0,,1
5e72cb7f4fabc9222100f9b8,arqx02ohvd,Nick_Dissertation_EX1,1,101,2020-06-02T09:06:51-07:00,2.153128862381,4,versionC_stim.csv,READVersionD.csv,"Read Version D","Dissertation, read only version D",EQUAL,RIGHTS,Study2,S,137,132,Test,User,-,,Recall,Recall1,1784,rights,100,1124,1675,1,1,,1
5e72cb7f4fabc9222100f9b8,arqx02ohvd,Nick_Dissertation_EX1,1,102,2020-06-02T09:06:54-07:00,2.7444379329681,4,versionC_stim.csv,READVersionD.csv,"Read Version D","Dissertation, read only version D",TEMPER,TANTRUM,Study2,S,154,145,Test,User,-,,Recall,Recall1,2400,tantrum,100,1024,1946,1,1,,1
5e72cb7f4fabc9222100f9b8,arqx02ohvd,Nick_Dissertation_EX1,1,103,2020-06-02T09:06:59-07:00,4.7482991218567,4,versionC_stim.csv,READVersionD.csv,"Read Version D","Dissertation, read only version D",SHAKE,Shell,Study2,U,163,129,Test,User,-,,Recall,Recall1,4416,,0,-1,-1,0,0,,1
5e72cb7f4fabc9222100f9b8,arqx02ohvd,Nick_Dissertation_EX1,1,104,2020-06-02T09:07:02-07:00,3.2469730377197,4,versionC_stim.csv,READVersionD.csv,"Read Version D","Dissertation, read only version D",NAP,SLEEP,Study2,F,134,102,Test,User,-,,Recall,Recall1,2951,sleep,100,2242,2695,1,1,,1
5e72cb7f4fabc9222100f9b8,arqx02ohvd,Nick_Dissertation_EX1,1,105,2020-06-02T09:07:06-07:00,4.5695719718933,4,versionC_stim.csv,READVersionD.csv,"Read Version D","Dissertation, read only version D",SCAR,MAIN,Study2,U,175,127,Test,User,-,,Recall,Recall1,4268,,0,-1,-1,0,0,,1
5e72cb7f4fabc9222100f9b8,arqx02ohvd,Nick_Dissertation_EX1,1,106,2020-06-02T09:07:10-07:00,3.1233859062195,4,versionC_stim.csv,READVersionD.csv,"Read Version D","Dissertation, read only version D",CLOTH,STRETCH,Study2,U,157,135,Test,User,-,,Recall,Recall1,2835,wear,18.181818181818,2284,2690,0,0,,1
5e72cb7f4fabc9222100f9b8,arqx02ohvd,Nick_Dissertation_EX1,1,107,2020-06-02T09:07:13-07:00,3.636402130127,4,versionC_stim.csv,READVersionD.csv,"Read Version D","Dissertation, read only version D",DONKEY,MULE,Study2,B,108,176,Test,User,-,,Recall,Recall1,3342,mule,100,2302,3243,1,1,,1
5e72cb7f4fabc9222100f9b8,arqx02ohvd,Nick_Dissertation_EX1,1,108,2020-06-02T09:07:19-07:00,5.3994448184967,4,versionC_stim.csv,READVersionD.csv,"Read Version D","Dissertation, read only version D",TRUTHFUL,HONEST,Study2,F,133,156,Test,User,-,,Recall,Recall1,5086,,0,-1,-1,0,0,,1
5e72cb7f4fabc9222100f9b8,arqx02ohvd,Nick_Dissertation_EX1,1,109,2020-06-02T09:07:25-07:00,6.0188980102539,4,versionC_stim.csv,READVersionD.csv,"Read Version D","Dissertation, read only version D",COMMUNICATION,PHONE,Study2,S,149,162,Test,User,-,,Recall,Recall1,5723,,0,-1,-1,0,0,,1
5e72cb7f4fabc9222100f9b8,arqx02ohvd,Nick_Dissertation_EX1,1,110,2020-06-02T09:07:34-07:00,9.0060482025146,4,versionC_stim.csv,READVersionD.csv,"Read Version D","Dissertation, read only version D",PLANT,CACTUS,Study2,B,98,130,Test,User,-,,Recall,Recall1,8679,trees,36.363636363636,4819,8408,0,0,,1
5e72cb7f4fabc9222100f9b8,arqx02ohvd,Nick_Dissertation_EX1,1,111,2020-06-02T09:07:38-07:00,4.7546107769012,4,versionC_stim.csv,READVersionD.csv,"Read Version D","Dissertation, read only version D",HEAD,SCALP,Study2,B,105,153,Test,User,-,,Recall,Recall1,4459,,0,-1,-1,0,0,,1
5e72cb7f4fabc9222100f9b8,arqx02ohvd,Nick_Dissertation_EX1,1,112,2020-06-02T09:07:41-07:00,3.0969831943512,4,versionC_stim.csv,READVersionD.csv,"Read Version D","Dissertation, read only version D",BREAKABLE,GLASS,Study2,F,127,160,Test,User,-,,Recall,Recall1,2800,glass,100,1749,2331,1,1,,1
5e72cb7f4fabc9222100f9b8,arqx02ohvd,Nick_Dissertation_EX1,1,113,2020-06-02T09:07:47-07:00,5.592132806778,4,versionC_stim.csv,READVersionD.csv,"Read Version D","Dissertation, read only version D",TOIL,LEASE,Study2,U,170,159,Test,User,-,,Recall,Recall1,5289,,0,-1,-1,0,0,,1
5e72cb7f4fabc9222100f9b8,arqx02ohvd,Nick_Dissertation_EX1,1,114,2020-06-02T09:07:49-07:00,2.1943340301514,4,versionC_stim.csv,READVersionD.csv,"Read Version D","Dissertation, read only version D",ACTRESS,STAR,Study2,F,120,100,Test,User,-,,Recall,Recall1,1877,star,100,1222,1701,1,1,,1
5e72cb7f4fabc9222100f9b8,arqx02ohvd,Nick_Dissertation_EX1,1,115,2020-06-02T09:07:58-07:00,8.8740451335907,4,versionC_stim.csv,READVersionD.csv,"Read Version D","Dissertation, read only version D",HATE,NAME,Study2,U,167,138,Test,User,-,,Recall,Recall1,8581,,0,-1,-1,0,0,,1
5e72cb7f4fabc9222100f9b8,arqx02ohvd,Nick_Dissertation_EX1,1,116,2020-06-02T09:08:01-07:00,3.2861640453339,4,versionC_stim.csv,READVersionD.csv,"Read Version D","Dissertation, read only version D",ABLE,CRACKLE,Study2,U,162,143,Test,User,-,,Recall,Recall1,2962,,0,-1,-1,0,0,,1
5e72cb7f4fabc9222100f9b8,arqx02ohvd,Nick_Dissertation_EX1,1,117,2020-06-02T09:08:05-07:00,3.2549397945404,4,versionC_stim.csv,READVersionD.csv,"Read Version D","Dissertation, read only version D",STEAK,GIVE,Study2,U,158,114,Test,User,-,,Recall,Recall1,2961,,0,-1,-1,0,0,,1
5e72cb7f4fabc9222100f9b8,arqx02ohvd,Nick_Dissertation_EX1,1,118,2020-06-02T09:08:10-07:00,5.3257811069489,4,versionC_stim.csv,READVersionD.csv,"Read Version D","Dissertation, read only version D",BRAWL,FIGHT,Study2,F,135,134,Test,User,-,,Recall,Recall1,5027,fight,100,3698,4846,1,1,,1
5e72cb7f4fabc9222100f9b8,arqx02ohvd,Nick_Dissertation_EX1,1,119,2020-06-02T09:08:15-07:00,5.0947918891907,4,versionC_stim.csv,READVersionD.csv,"Read Version D","Dissertation, read only version D",JOKE,KEYS,Study2,U,165,150,Test,User,-,,Recall,Recall1,4782,keys,100,4056,4661,1,1,,1
5e72cb7f4fabc9222100f9b8,arqx02ohvd,Nick_Dissertation_EX1,1,120,2020-06-02T09:08:19-07:00,3.688766002655,4,versionC_stim.csv,READVersionD.csv,"Read Version D","Dissertation, read only version D",WET,DRY,Study2,S,146,115,Test,User,-,,Recall,Recall1,3373,,0,-1,-1,0,0,,1
5e72cb7f4fabc9222100f9b8,arqx02ohvd,Nick_Dissertation_EX1,1,121,2020-06-02T09:08:29-07:00,10.353608131409,4,versionC_stim.csv,READVersionD.csv,"Read Version D","Dissertation, read only version D",CARBON,ELEMENT,Study2,S,141,108,Test,User,-,,Recall,Recall1,10024,emission,40,2122,9531,0,0,,1
5e72cb7f4fabc9222100f9b8,arqx02ohvd,Nick_Dissertation_EX1,1,122,2020-06-02T09:08:33-07:00,4.3213238716125,4,versionC_stim.csv,READVersionD.csv,"Read Version D","Dissertation, read only version D",MYSTERY,DETECTIVE,Study2,B,100,105,Test,User,-,,Recall,Recall1,3955,detective,100,1436,3810,1,1,,1
5e72cb7f4fabc9222100f9b8,arqx02ohvd,Nick_Dissertation_EX1,1,123,2020-06-02T09:08:37-07:00,3.7158310413361,4,versionC_stim.csv,READVersionD.csv,"Read Version D","Dissertation, read only version D",SARDINE,FISH,Study2,F,130,155,Test,User,-,,Recall,Recall1,3413,fish,100,2721,3029,1,1,,1
5e72cb7f4fabc9222100f9b8,arqx02ohvd,Nick_Dissertation_EX1,1,124,2020-06-02T09:08:43-07:00,5.7931489944458,4,versionC_stim.csv,READVersionD.csv,"Read Version D","Dissertation, read only version D",CAR,DRIVER,Study2,B,106,165,Test,User,-,,Recall,Recall1,3180,,0,-1,-1,0,0,,1
5e72cb7f4fabc9222100f9b8,arqx02ohvd,Nick_Dissertation_EX1,1,125,2020-06-02T09:08:48-07:00,4.7468550205231,4,versionC_stim.csv,READVersionD.csv,"Read Version D","Dissertation, read only version D",EAT,DINE,Study2,B,111,141,Test,User,-,,Recall,Recall1,4315,food,25,3780,4160,0,0,,1
5e72cb7f4fabc9222100f9b8,arqx02ohvd,Nick_Dissertation_EX1,1,126,2020-06-02T09:08:59-07:00,11.641252994537,4,versionC_stim.csv,READVersionD.csv,"Read Version D","Dissertation, read only version D",MAROON,JUSTICE,Study2,U,156,111,Test,User,-,,Recall,Recall1,11288,war,0,6283,10564,0,0,,0.772
5e72cb7f4fabc9222100f9b8,arqx02ohvd,Nick_Dissertation_EX1,1,127,2020-06-02T09:09:09-07:00,9.5459790229797,4,versionC_stim.csv,READVersionD.csv,"Read Version D","Dissertation, read only version D",TRASH,LITTER,Study2,B,103,174,Test,User,-,,Recall,Recall1,9135,garbage,15.384615384615,6415,8191,0,0,,1
5e72cb7f4fabc9222100f9b8,arqx02ohvd,Nick_Dissertation_EX1,1,128,2020-06-02T09:09:32-07:00,22.695760965347,4,versionC_stim.csv,READVersionD.csv,"Read Version D","Dissertation, read only version D",TIE,SHOELACE,Study2,B,99,121,Test,User,-,,Recall,Recall1,22316,,0,-1,-1,0,0,,1
5e72cb7f4fabc9222100f9b8,arqx02ohvd,Nick_Dissertation_EX1,1,129,2020-06-02T09:09:39-07:00,7.8683559894562,4,versionC_stim.csv,READVersionD.csv,"Read Version D","Dissertation, read only version D",FICTION,LISTEN,Study2,U,164,142,Test,User,-,,Recall,Recall1,7563,book,0,3377,3990,0,0,,1
5e72cb7f4fabc9222100f9b8,arqx02ohvd,Nick_Dissertation_EX1,1,130,2020-06-02T09:09:45-07:00,5.5494601726532,4,versionC_stim.csv,READVersionD.csv,"Read Version D","Dissertation, read only version D",REVENGE,EVEN,Study2,F,122,122,Test,User,-,,Recall,Recall1,5253,envy,50,4352,4658,0,0,,1
5e72cb7f4fabc9222100f9b8,arqx02ohvd,Nick_Dissertation_EX1,1,131,2020-06-02T09:09:49-07:00,4.4421489238739,4,versionC_stim.csv,READVersionD.csv,"Read Version D","Dissertation, read only version D",SCISSORS,SHEARS,Study2,B,112,131,Test,User,-,,Recall,Recall1,4155,shears,100,2639,3526,1,1,,1
5e72cb7f4fabc9222100f9b8,arqx02ohvd,Nick_Dissertation_EX1,1,132,2020-06-02T09:09:53-07:00,3.2804300785065,4,versionC_stim.csv,READVersionD.csv,"Read Version D","Dissertation, read only version D",CHARM,VEHICLE,Study2,U,160,119,Test,User,-,,Recall,Recall1,2975,luck,18.181818181818,1592,2040,0,0,,1
5e72cb7f4fabc9222100f9b8,arqx02ohvd,Nick_Dissertation_EX1,1,133,2020-06-02T09:09:55-07:00,2.7464468479156,4,versionC_stim.csv,READVersionD.csv,"Read Version D","Dissertation, read only version D",DOG,FURRY,Study2,B,102,107,Test,User,-,,Recall,Recall1,2440,animal,0,1587,2194,0,0,,1
5e72cb7f4fabc9222100f9b8,arqx02ohvd,Nick_Dissertation_EX1,1,134,2020-06-02T09:10:02-07:00,6.7912480831146,4,versionC_stim.csv,READVersionD.csv,"Read Version D","Dissertation, read only version D",GROUND,EARTH,Study2,S,144,101,Test,User,-,,Recall,Recall1,5486,,0,-1,-1,0,0,,1
5e72cb7f4fabc9222100f9b8,arqx02ohvd,Nick_Dissertation_EX1,1,135,2020-06-02T09:10:07-07:00,4.2926650047302,4,versionC_stim.csv,READVersionD.csv,"Read Version D","Dissertation, read only version D",COLD,CHILL,Study2,B,114,146,Test,User,-,,Recall,Recall1,3860,ice,25,2568,3258,0,0,,1
5e72cb7f4fabc9222100f9b8,arqx02ohvd,Nick_Dissertation_EX1,1,136,2020-06-02T09:10:10-07:00,3.4284420013428,4,versionC_stim.csv,READVersionD.csv,"Read Version D","Dissertation, read only version D",LIE,TRUTH,Study2,S,148,136,Test,User,-,,Recall,Recall1,3108,,0,-1,-1,0,0,,1
5e72cb7f4fabc9222100f9b8,arqx02ohvd,Nick_Dissertation_EX1,1,137,2020-06-02T09:10:16-07:00,5.9508550167084,4,versionC_stim.csv,READVersionD.csv,"Read Version D","Dissertation, read only version D",FAVORITE,BEST,Study2,F,125,148,Test,User,-,,Recall,Recall1,5663,,0,-1,-1,0,0,,1
5e72cb7f4fabc9222100f9b8,arqx02ohvd,Nick_Dissertation_EX1,1,138,2020-06-02T09:10:20-07:00,4.5142979621887,4,versionC_stim.csv,READVersionD.csv,"Read Version D","Dissertation, read only version D",LOVE,AFFECTION,Study2,B,115,171,Test,User,-,,Recall,Recall1,4212,,0,-1,-1,0,0,,1
5e72cb7f4fabc9222100f9b8,arqx02ohvd,Nick_Dissertation_EX1,1,139,2020-06-02T09:10:27-07:00,6.5501370429993,4,versionC_stim.csv,READVersionD.csv,"Read Version D","Dissertation, read only version D",Morning,TEMPERATURE,Study2,U,173,112,Test,User,-,,Recall,Recall1,6239,temperature,100,2231,5950,1,1,,1
5e72cb7f4fabc9222100f9b8,arqx02ohvd,Nick_Dissertation_EX1,1,140,2020-06-02T09:10:33-07:00,5.7038309574127,4,versionC_stim.csv,READVersionD.csv,"Read Version D","Dissertation, read only version D",CLOTHES,CAKE,Study2,U,166,97,Test,User,-,,Recall,Recall1,5407,wear,25,3512,4028,0,0,,1
5e72cb7f4fabc9222100f9b8,arqx02ohvd,Nick_Dissertation_EX1,1,141,2020-06-02T09:10:35-07:00,2.145231962204,4,versionC_stim.csv,READVersionD.csv,"Read Version D","Dissertation, read only version D",TICK,FLEA,Study2,S,151,166,Test,User,-,,Recall,Recall1,1836,flea,100,1352,1719,1,1,,1
5e72cb7f4fabc9222100f9b8,arqx02ohvd,Nick_Dissertation_EX1,1,142,2020-06-02T09:10:37-07:00,2.5126490592957,4,versionC_stim.csv,READVersionD.csv,"Read Version D","Dissertation, read only version D",TAN,SUN,Study2,S,155,128,Test,User,-,,Recall,Recall1,2180,sun,100,1619,1890,1,1,,1
5e72cb7f4fabc9222100f9b8,arqx02ohvd,Nick_Dissertation_EX1,1,143,2020-06-02T09:10:44-07:00,6.3432869911194,4,versionC_stim.csv,READVersionD.csv,"Read Version D","Dissertation, read only version D",REEL,ROD,Study2,S,150,113,Test,User,-,,Recall,Recall1,6040,fish,0,5356,5678,0,0,,1
5e72cb7f4fabc9222100f9b8,arqx02ohvd,Nick_Dissertation_EX1,1,144,2020-06-02T09:10:46-07:00,2.2217619419098,4,versionC_stim.csv,READVersionD.csv,"Read Version D","Dissertation, read only version D",JAR,MASON,Study2,S,138,157,Test,User,-,,Recall,Recall1,1911,mason,100,1108,1644,1,1,,1
5e72cb7f4fabc9222100f9b8,arqx02ohvd,Nick_Dissertation_EX1,1,145,2020-06-02T09:10:49-07:00,3.1209421157837,4,versionC_stim.csv,READVersionD.csv,"Read Version D","Dissertation, read only version D",GAME,CLUE,Study2,B,97,117,Test,User,-,,Recall,Recall1,2831,day,0,2068,2303,0,0,,1
5e72cb7f4fabc9222100f9b8,arqx02ohvd,Nick_Dissertation_EX1,1,146,2020-06-02T09:10:55-07:00,5.5773169994354,4,versionC_stim.csv,READVersionD.csv,"Read Version D","Dissertation, read only version D",AIRCRAFT,PLANE,Study2,F,129,109,Test,User,-,,Recall,Recall1,5269,carrier,33.333333333333,4201,5064,0,0,,1
5e72cb7f4fabc9222100f9b8,arqx02ohvd,Nick_Dissertation_EX1,1,147,2020-06-02T09:10:57-07:00,2.7701749801636,4,versionC_stim.csv,READVersionD.csv,"Read Version D","Dissertation, read only version D",AWAY,GONE,Study2,S,142,137,Test,User,-,,Recall,Recall1,2472,gone,100,1978,2349,1,1,,1
5e72cb7f4fabc9222100f9b8,arqx02ohvd,Nick_Dissertation_EX1,1,148,2020-06-02T09:11:01-07:00,3.110860824585,4,versionC_stim.csv,READVersionD.csv,"Read Version D","Dissertation, read only version D",SIGN,LOAN,Study2,U,171,98,Test,User,-,,Recall,Recall1,2794,,0,-1,-1,0,0,,1
5e72cb7f4fabc9222100f9b8,arqx02ohvd,Nick_Dissertation_EX1,1,149,2020-06-02T09:11:05-07:00,4.3758320808411,4,versionC_stim.csv,READVersionD.csv,"Read Version D","Dissertation, read only version D",WINDSHIELD,CAR,Study2,F,117,163,Test,User,-,,Recall,Recall1,4064,,0,-1,-1,0,0,,1
5e72cb7f4fabc9222100f9b8,arqx02ohvd,Nick_Dissertation_EX1,1,150,2020-06-02T09:11:08-07:00,3.4554769992828,4,versionC_stim.csv,READVersionD.csv,"Read Version D","Dissertation, read only version D",NOISE,LOUD,Study2,S,152,167,Test,User,-,,Recall,Recall1,3147,loud,100,2407,2884,1,1,,1
5e72cb7f4fabc9222100f9b8,arqx02ohvd,Nick_Dissertation_EX1,1,151,2020-06-02T09:11:11-07:00,2.2091300487518,4,versionC_stim.csv,READVersionD.csv,"Read Version D","Dissertation, read only version D",BANG,FUZZY,Study2,U,168,110,Test,User,-,,Recall,Recall1,1886,,0,-1,-1,0,0,,1
5e72cb7f4fabc9222100f9b8,arqx02ohvd,Nick_Dissertation_EX1,1,152,2020-06-02T09:11:16-07:00,4.9887220859528,4,versionC_stim.csv,READVersionD.csv,"Read Version D","Dissertation, read only version D",STRAWBERRY,FRUIT,Study2,F,124,169,Test,User,-,,Recall,Recall1,4660,fruit,100,3832,4459,1,1,,1
5e72cb7f4fabc9222100f9b8,arqx02ohvd,Nick_Dissertation_EX1,1,153,2020-06-02T09:11:20-07:00,3.9693148136139,4,versionC_stim.csv,READVersionD.csv,"Read Version D","Dissertation, read only version D",FLIP,TURN,Study2,F,116,158,Test,User,-,,Recall,Recall1,3672,turn,100,3049,3400,1,1,,1
5e72cb7f4fabc9222100f9b8,arqx02ohvd,Nick_Dissertation_EX1,1,154,2020-06-02T09:11:23-07:00,3.6049439907074,4,versionC_stim.csv,READVersionD.csv,"Read Version D","Dissertation, read only version D",END,ADJOURN,Study2,B,101,99,Test,User,-,,Recall,Recall1,3306,,0,-1,-1,0,0,,1
5e72cb7f4fabc9222100f9b8,arqx02ohvd,Nick_Dissertation_EX1,1,155,2020-06-02T09:11:27-07:00,3.6542789936066,4,versionC_stim.csv,READVersionD.csv,"Read Version D","Dissertation, read only version D",FIGHT,FEUD,Study2,B,113,161,Test,User,-,,Recall,Recall1,3328,,0,-1,-1,0,0,,1
5e72cb7f4fabc9222100f9b8,arqx02ohvd,Nick_Dissertation_EX1,1,156,2020-06-02T09:11:33-07:00,6.3835752010345,4,versionC_stim.csv,READVersionD.csv,"Read Version D","Dissertation, read only version D",BANKER,MONEY,Study2,F,132,144,Test,User,-,,Recall,Recall1,6077,,0,-1,-1,0,0,,1
5e72cb7f4fabc9222100f9b8,arqx02ohvd,Nick_Dissertation_EX1,1,157,2020-06-02T09:11:40-07:00,7.2684938907623,4,versionC_stim.csv,READVersionD.csv,"Read Version D","Dissertation, read only version D",CLEAR,MOAT,Study2,U,169,123,Test,User,-,,Recall,Recall1,6968,cut,28.571428571429,6218,6709,0,0,,1
5e72cb7f4fabc9222100f9b8,arqx02ohvd,Nick_Dissertation_EX1,1,158,2020-06-02T09:11:43-07:00,2.7064819335938,4,versionC_stim.csv,READVersionD.csv,"Read Version D","Dissertation, read only version D",OUNCE,BOTH,Study2,U,172,106,Test,User,-,,Recall,Recall1,2377,both,100,1589,2084,1,1,,1
5e72cb7f4fabc9222100f9b8,arqx02ohvd,Nick_Dissertation_EX1,1,159,2020-06-02T09:11:55-07:00,11.828811168671,4,versionC_stim.csv,READVersionD.csv,"Read Version D","Dissertation, read only version D",WAX,CANDLE,Study2,S,139,172,Test,User,-,,Recall,Recall1,11488,,0,-1,-1,0,0,,1
5e72cb7f4fabc9222100f9b8,arqx02ohvd,Nick_Dissertation_EX1,1,160,2020-06-02T09:11:57-07:00,2.3970949649811,4,versionC_stim.csv,READVersionD.csv,"Read Version D","Dissertation, read only version D",BALLOON,POP,Study2,F,123,124,Test,User,-,,Recall,Recall1,2052,pop,100,1357,1690,1,1,,1
5e72cb7f4fabc9222100f9b8,arqx02ohvd,Nick_Dissertation_EX1,1,161,2020-06-02T09:11:59-07:00,1.9998450279236,4,versionC_stim.csv,READVersionD.csv,"Read Version D","Dissertation, read only version D",COFFIN,DEAD,Study2,F,128,125,Test,User,-,,Recall,Recall1,1688,dead,100,1093,1523,1,1,,1
5e72cb7f4fabc9222100f9b8,arqx02ohvd,Nick_Dissertation_EX1,1,162,2020-06-02T09:12:02-07:00,3.0041508674622,4,versionC_stim.csv,READVersionD.csv,"Read Version D","Dissertation, read only version D",RED,CHERRY,Study2,B,104,152,Test,User,-,,Recall,Recall1,2701,,0,-1,-1,0,0,,1
5e72cb7f4fabc9222100f9b8,arqx02ohvd,Nick_Dissertation_EX1,1,163,2020-06-02T09:12:05-07:00,2.7790620326996,4,versionC_stim.csv,READVersionD.csv,"Read Version D","Dissertation, read only version D",CHILDREN,MIRROR,Study2,U,174,140,Test,User,-,,Recall,Recall1,2457,,0,-1,-1,0,0,,1
5e72cb7f4fabc9222100f9b8,arqx02ohvd,Nick_Dissertation_EX1,1,164,2020-06-02T09:12:12-07:00,6.7217500209808,4,versionC_stim.csv,READVersionD.csv,"Read Version D","Dissertation, read only version D",LEAGUE,BASEBALL,Study2,F,131,120,Test,User,-,,Recall,Recall1,6418,sports,14.285714285714,5302,6237,0,0,,1
5e72cb7f4fabc9222100f9b8,arqx02ohvd,Nick_Dissertation_EX1,1,165,2020-06-02T09:12:19-07:00,7.2432188987732,4,versionC_stim.csv,READVersionD.csv,"Read Version D","Dissertation, read only version D",PANTHER,CAT,Study2,F,126,154,Test,User,-,,Recall,Recall1,6953,,0,-1,-1,0,0,,1
5e72cb7f4fabc9222100f9b8,arqx02ohvd,Nick_Dissertation_EX1,1,166,2020-06-02T09:12:22-07:00,3.1837131977081,4,versionC_stim.csv,READVersionD.csv,"Read Version D","Dissertation, read only version D",SEATBELT,SAFETY,Study2,S,147,133,Test,User,-,,Recall,Recall1,2893,safety,100,1405,2550,1,1,,1
5e72cb7f4fabc9222100f9b8,arqx02ohvd,Nick_Dissertation_EX1,1,167,2020-06-02T09:12:26-07:00,3.4300718307495,4,versionC_stim.csv,READVersionD.csv,"Read Version D","Dissertation, read only version D",DRINK,WATER,Study2,S,143,139,Test,User,-,,Recall,Recall1,3138,,0,-1,-1,0,0,,1
5e72cb7f4fabc9222100f9b8,arqx02ohvd,Nick_Dissertation_EX1,1,168,2020-06-02T09:12:29-07:00,3.6705839633942,4,versionC_stim.csv,READVersionD.csv,"Read Version D","Dissertation, read only version D",PAPER,DOCUMENT,Study2,B,109,118,Test,User,-,,Recall,Recall1,3359,,0,-1,-1,0,0,,1
5e72cb7f4fabc9222100f9b8,arqx02ohvd,Nick_Dissertation_EX1,1,169,2020-06-02T09:12:32-07:00,2.2729551792145,4,versionC_stim.csv,READVersionD.csv,"Read Version D","Dissertation, read only version D",BRACELET,WRIST,Study2,S,140,170,Test,User,-,,Recall,Recall1,1964,wear,44.444444444444,1362,1767,0,0,,1
5e72cb7f4fabc9222100f9b8,arqx02ohvd,Nick_Dissertation_EX1,1,170,2020-06-02T09:12:35-07:00,3.1413249969482,4,versionC_stim.csv,READVersionD.csv,"Read Version D","Dissertation, read only version D",SHAVE,RAZOR,Study2,S,136,173,Test,User,-,,Recall,Recall1,2845,shear,40,2195,2684,0,0,,1
5e72cb7f4fabc9222100f9b8,arqx02ohvd,Nick_Dissertation_EX1,1,171,2020-06-02T09:12:37-07:00,2.67067694664,4,versionC_stim.csv,READVersionD.csv,"Read Version D","Dissertation, read only version D",THIMBLE,THREAD,Study2,F,121,149,Test,User,-,,Recall,Recall1,2308,thread,100,1266,2134,1,1,,1
5e72cb7f4fabc9222100f9b8,arqx02ohvd,Nick_Dissertation_EX1,1,172,2020-06-02T09:12:44-07:00,6.2209460735321,4,versionC_stim.csv,READVersionD.csv,"Read Version D","Dissertation, read only version D",OBTAIN,MEAT,Study2,U,161,151,Test,User,-,,Recall,Recall1,5782,,0,-1,-1,0,0,,1
5e72cb7f4fabc9222100f9b8,arqx02ohvd,Nick_Dissertation_EX1,1,173,2020-06-02T09:12:47-07:00,2.9639439582825,4,versionC_stim.csv,READVersionD.csv,"Read Version D","Dissertation, read only version D",SMELL,INCENSE,Study2,B,110,116,Test,User,-,,Recall,Recall1,2642,,0,-1,-1,0,0,,1
5e72cb7f4fabc9222100f9b8,arqx02ohvd,Nick_Dissertation_EX1,1,174,2020-06-02T09:12:50-07:00,2.8791320323944,4,versionC_stim.csv,READVersionD.csv,"Read Version D","Dissertation, read only version D",VILLAIN,BAD,Study2,F,118,104,Test,User,-,,Recall,Recall1,2593,evil,0,1834,2304,0,0,,1
5e72cb7f4fabc9222100f9b8,arqx02ohvd,Nick_Dissertation_EX1,1,175,2020-06-02T09:14:02-07:00,71.984483003616,4,versionC_stim.csv,READVersionD.csv,"Read Version D","Dissertation, read only version D",,,,,,0,Instruct,-,10,"You will now be presented with a new set of word pairs. Please study each pair. Remember that your memory will be tested! When finished, press Enter to move to the next pair.",Initial_Instruct,Instruct4,71649,,,-1,-1,,,,0.35
5e72cb7f4fabc9222100f9b8,arqx02ohvd,Nick_Dissertation_EX1,1,176,2020-06-02T09:14:04-07:00,2.322762966156,4,versionC_stim.csv,READVersionD.csv,"Read Version D","Dissertation, read only version D",HIDE,SCARE,BUFFER1,Buffer,4,4,Study,User,-,,Study/JOL,BUFFER3,1980,,,-1,-1,,,,1
5e72cb7f4fabc9222100f9b8,arqx02ohvd,Nick_Dissertation_EX1,1,177,2020-06-02T09:14:06-07:00,2.5443110466003,4,versionC_stim.csv,READVersionD.csv,"Read Version D","Dissertation, read only version D",JAM,SPACE,BUFFER1,Buffer,5,6,Study,User,-,,Study/JOL,BUFFER3,2239,,,-1,-1,,,,1
5e72cb7f4fabc9222100f9b8,arqx02ohvd,Nick_Dissertation_EX1,1,178,2020-06-02T09:14:08-07:00,1.7602479457855,4,versionC_stim.csv,READVersionD.csv,"Read Version D","Dissertation, read only version D",GREEN,TREES,BUFFER1,Buffer,1,3,Study,User,-,,Study/JOL,BUFFER3,1450,,,-1,-1,,,,1
5e72cb7f4fabc9222100f9b8,arqx02ohvd,Nick_Dissertation_EX1,1,179,2020-06-02T09:14:10-07:00,1.789263010025,4,versionC_stim.csv,READVersionD.csv,"Read Version D","Dissertation, read only version D",BUTTER,PEANUT,BUFFER1,Buffer,3,2,Study,User,-,,Study/JOL,BUFFER3,1492,,,-1,-1,,,,1
5e72cb7f4fabc9222100f9b8,arqx02ohvd,Nick_Dissertation_EX1,1,180,2020-06-02T09:14:12-07:00,1.8017280101776,4,versionC_stim.csv,READVersionD.csv,"Read Version D","Dissertation, read only version D",CATCHER,BASEBALL,BUFFER1,Buffer,2,5,Study,User,-,,Study/JOL,BUFFER3,1498,,,-1,-1,,,,1
5e72cb7f4fabc9222100f9b8,arqx02ohvd,Nick_Dissertation_EX1,1,181,2020-06-02T09:14:14-07:00,2.5894899368286,4,versionC_stim.csv,READVersionD.csv,"Read Version D","Dissertation, read only version D",WATER,BRIDGE,Study1,B,18,66,Study,User,-,,Study/JOL,"Study Phase2",2268,,,-1,-1,,,,1
5e72cb7f4fabc9222100f9b8,arqx02ohvd,Nick_Dissertation_EX1,1,182,2020-06-02T09:14:19-07:00,4.3818650245667,4,versionC_stim.csv,READVersionD.csv,"Read Version D","Dissertation, read only version D",BUSINESS,DEATH,Study1,U,72,30,Study,User,-,,Study/JOL,"Study Phase2",2966,,,-1,-1,,,,1
5e72cb7f4fabc9222100f9b8,arqx02ohvd,Nick_Dissertation_EX1,1,183,2020-06-02T09:14:21-07:00,1.8840980529785,4,versionC_stim.csv,READVersionD.csv,"Read Version D","Dissertation, read only version D",OUT,WAY,Study1,B,16,60,Study,User,-,,Study/JOL,"Study Phase2",1572,,,-1,-1,,,,1
5e72cb7f4fabc9222100f9b8,arqx02ohvd,Nick_Dissertation_EX1,1,184,2020-06-02T09:14:24-07:00,3.6719398498535,4,versionC_stim.csv,READVersionD.csv,"Read Version D","Dissertation, read only version D",PILOT,PLANE,Study1,F,44,77,Study,User,-,,Study/JOL,"Study Phase2",3374,,,-1,-1,,,,1
5e72cb7f4fabc9222100f9b8,arqx02ohvd,Nick_Dissertation_EX1,1,185,2020-06-02T09:14:26-07:00,1.8740010261536,4,versionC_stim.csv,READVersionD.csv,"Read Version D","Dissertation, read only version D",LATCH,KEY,Study1,F,36,83,Study,User,-,,Study/JOL,"Study Phase2",1553,,,-1,-1,,,,1
5e72cb7f4fabc9222100f9b8,arqx02ohvd,Nick_Dissertation_EX1,1,186,2020-06-02T09:14:30-07:00,3.6349549293518,4,versionC_stim.csv,READVersionD.csv,"Read Version D","Dissertation, read only version D",ENOUGH,FULL,Study1,F,26,63,Study,User,-,,Study/JOL,"Study Phase2",2321,,,-1,-1,,,,1
5e72cb7f4fabc9222100f9b8,arqx02ohvd,Nick_Dissertation_EX1,1,187,2020-06-02T09:14:33-07:00,2.8630230426788,4,versionC_stim.csv,READVersionD.csv,"Read Version D","Dissertation, read only version D",WIND,BLOW,Study1,S,55,14,Study,User,-,,Study/JOL,"Study Phase2",2475,,,-1,-1,,,,1
5e72cb7f4fabc9222100f9b8,arqx02ohvd,Nick_Dissertation_EX1,1,188,2020-06-02T09:14:36-07:00,3.6398780345917,4,versionC_stim.csv,READVersionD.csv,"Read Version D","Dissertation, read only version D",TUCK,ALLOW,Study1,U,78,76,Study,User,-,,Study/JOL,"Study Phase2",3313,,,-1,-1,,,,1
5e72cb7f4fabc9222100f9b8,arqx02ohvd,Nick_Dissertation_EX1,1,189,2020-06-02T09:14:38-07:00,1.9242510795593,4,versionC_stim.csv,READVersionD.csv,"Read Version D","Dissertation, read only version D",HAMMER,CHISEL,Study1,B,9,25,Study,User,-,,Study/JOL,"Study Phase2",1634,,,-1,-1,,,,1
5e72cb7f4fabc9222100f9b8,arqx02ohvd,Nick_Dissertation_EX1,1,190,2020-06-02T09:14:40-07:00,1.4063138961792,4,versionC_stim.csv,READVersionD.csv,"Read Version D","Dissertation, read only version D",FISH,TUNA,Study1,B,25,12,Study,User,-,,Study/JOL,"Study Phase2",1090,,,-1,-1,,,,1
5e72cb7f4fabc9222100f9b8,arqx02ohvd,Nick_Dissertation_EX1,1,191,2020-06-02T09:14:42-07:00,2.2614030838013,4,versionC_stim.csv,READVersionD.csv,"Read Version D","Dissertation, read only version D",CAVE,DARK,Study1,F,28,61,Study,User,-,,Study/JOL,"Study Phase2",1957,,,-1,-1,,,,1
5e72cb7f4fabc9222100f9b8,arqx02ohvd,Nick_Dissertation_EX1,1,192,2020-06-02T09:14:44-07:00,2.0617880821228,4,versionC_stim.csv,READVersionD.csv,"Read Version D","Dissertation, read only version D",DROWSY,SLEEP,Study1,F,41,43,Study,User,-,,Study/JOL,"Study Phase2",1755,,,-1,-1,,,,1
5e72cb7f4fabc9222100f9b8,arqx02ohvd,Nick_Dissertation_EX1,1,193,2020-06-02T09:14:46-07:00,1.8630299568176,4,versionC_stim.csv,READVersionD.csv,"Read Version D","Dissertation, read only version D",CHEESE,WINE,Study1,S,57,40,Study,User,-,,Study/JOL,"Study Phase2",1566,,,-1,-1,,,,1
5e72cb7f4fabc9222100f9b8,arqx02ohvd,Nick_Dissertation_EX1,1,194,2020-06-02T09:14:48-07:00,2.5424799919128,4,versionC_stim.csv,READVersionD.csv,"Read Version D","Dissertation, read only version D",BELT,SOON,Study1,U,70,17,Study,User,-,,Study/JOL,"Study Phase2",2233,,,-1,-1,,,,1
5e72cb7f4fabc9222100f9b8,arqx02ohvd,Nick_Dissertation_EX1,1,195,2020-06-02T09:14:51-07:00,2.5902969837189,4,versionC_stim.csv,READVersionD.csv,"Read Version D","Dissertation, read only version D",END,BEGIN,Study1,S,54,29,Study,User,-,,Study/JOL,"Study Phase2",2196,,,-1,-1,,,,1
5e72cb7f4fabc9222100f9b8,arqx02ohvd,Nick_Dissertation_EX1,1,196,2020-06-02T09:14:53-07:00,1.8007259368896,4,versionC_stim.csv,READVersionD.csv,"Read Version D","Dissertation, read only version D",WORD,SENTENCE,Study1,F,31,45,Study,User,-,,Study/JOL,"Study Phase2",1491,,,-1,-1,,,,1
5e72cb7f4fabc9222100f9b8,arqx02ohvd,Nick_Dissertation_EX1,1,197,2020-06-02T09:14:55-07:00,1.9460060596466,4,versionC_stim.csv,READVersionD.csv,"Read Version D","Dissertation, read only version D",STING,HORNET,Study1,B,11,80,Study,User,-,,Study/JOL,"Study Phase2",1647,,,-1,-1,,,,1
5e72cb7f4fabc9222100f9b8,arqx02ohvd,Nick_Dissertation_EX1,1,198,2020-06-02T09:14:57-07:00,2.505392074585,4,versionC_stim.csv,READVersionD.csv,"Read Version D","Dissertation, read only version D",WASP,BUG,Study1,F,32,28,Study,User,-,,Study/JOL,"Study Phase2",2207,,,-1,-1,,,,1
5e72cb7f4fabc9222100f9b8,arqx02ohvd,Nick_Dissertation_EX1,1,199,2020-06-02T09:14:59-07:00,1.6617438793182,4,versionC_stim.csv,READVersionD.csv,"Read Version D","Dissertation, read only version D",STENCH,SMELL,Study1,F,42,50,Study,User,-,,Study/JOL,"Study Phase2",1359,,,-1,-1,,,,1
5e72cb7f4fabc9222100f9b8,arqx02ohvd,Nick_Dissertation_EX1,1,200,2020-06-02T09:15:01-07:00,1.9139931201935,4,versionC_stim.csv,READVersionD.csv,"Read Version D","Dissertation, read only version D",FUTURE,PAST,Study1,S,61,33,Study,User,-,,Study/JOL,"Study Phase2",1614,,,-1,-1,,,,1
5e72cb7f4fabc9222100f9b8,arqx02ohvd,Nick_Dissertation_EX1,1,201,2020-06-02T09:15:05-07:00,3.9626548290253,4,versionC_stim.csv,READVersionD.csv,"Read Version D","Dissertation, read only version D",DEFINITION,MEANING,Study1,S,62,32,Study,User,-,,Study/JOL,"Study Phase2",3659,,,-1,-1,,,,1
5e72cb7f4fabc9222100f9b8,arqx02ohvd,Nick_Dissertation_EX1,1,202,2020-06-02T09:15:07-07:00,2.5069830417633,4,versionC_stim.csv,READVersionD.csv,"Read Version D","Dissertation, read only version D",RIDDLE,SUGAR,Study1,U,81,41,Study,User,-,,Study/JOL,"Study Phase2",2194,,,-1,-1,,,,1
5e72cb7f4fabc9222100f9b8,arqx02ohvd,Nick_Dissertation_EX1,1,203,2020-06-02T09:15:09-07:00,2.1935000419617,4,versionC_stim.csv,READVersionD.csv,"Read Version D","Dissertation, read only version D",WOMAN,LIFT,Study1,U,69,72,Study,User,-,,Study/JOL,"Study Phase2",1888,,,-1,-1,,,,1
5e72cb7f4fabc9222100f9b8,arqx02ohvd,Nick_Dissertation_EX1,1,204,2020-06-02T09:15:12-07:00,2.4679529666901,4,versionC_stim.csv,READVersionD.csv,"Read Version D","Dissertation, read only version D",BAR,GRILL,Study1,S,52,56,Study,User,-,,Study/JOL,"Study Phase2",2131,,,-1,-1,,,,1
5e72cb7f4fabc9222100f9b8,arqx02ohvd,Nick_Dissertation_EX1,1,205,2020-06-02T09:15:16-07:00,3.7221169471741,4,versionC_stim.csv,READVersionD.csv,"Read Version D","Dissertation, read only version D",SIGHT,DEBATE,Study1,U,73,26,Study,User,-,,Study/JOL,"Study Phase2",3408,,,-1,-1,,,,1
5e72cb7f4fabc9222100f9b8,arqx02ohvd,Nick_Dissertation_EX1,1,206,2020-06-02T09:15:17-07:00,1.7017750740051,4,versionC_stim.csv,READVersionD.csv,"Read Version D","Dissertation, read only version D",CHILD,BABY,Study1,S,64,67,Study,User,-,,Study/JOL,"Study Phase2",1380,,,-1,-1,,,,1
5e72cb7f4fabc9222100f9b8,arqx02ohvd,Nick_Dissertation_EX1,1,207,2020-06-02T09:15:19-07:00,1.5697340965271,4,versionC_stim.csv,READVersionD.csv,"Read Version D","Dissertation, read only version D",NEWS,EDITOR,Study1,B,10,48,Study,User,-,,Study/JOL,"Study Phase2",1219,,,-1,-1,,,,1
5e72cb7f4fabc9222100f9b8,arqx02ohvd,Nick_Dissertation_EX1,1,208,2020-06-02T09:15:20-07:00,1.4590768814087,4,versionC_stim.csv,READVersionD.csv,"Read Version D","Dissertation, read only version D",WASTE,DUMP,Study1,S,49,15,Study,User,-,,Study/JOL,"Study Phase2",1140,,,-1,-1,,,,1
5e72cb7f4fabc9222100f9b8,arqx02ohvd,Nick_Dissertation_EX1,1,209,2020-06-02T09:15:22-07:00,1.8439309597015,4,versionC_stim.csv,READVersionD.csv,"Read Version D","Dissertation, read only version D",PLANT,ROOT,Study1,B,13,49,Study,User,-,,Study/JOL,"Study Phase2",1546,,,-1,-1,,,,1
5e72cb7f4fabc9222100f9b8,arqx02ohvd,Nick_Dissertation_EX1,1,210,2020-06-02T09:15:24-07:00,1.7967841625214,4,versionC_stim.csv,READVersionD.csv,"Read Version D","Dissertation, read only version D",FLOWER,ORCHID,Study1,B,24,85,Study,User,-,,Study/JOL,"Study Phase2",1503,,,-1,-1,,,,1
5e72cb7f4fabc9222100f9b8,arqx02ohvd,Nick_Dissertation_EX1,1,211,2020-06-02T09:15:30-07:00,6.492164850235,4,versionC_stim.csv,READVersionD.csv,"Read Version D","Dissertation, read only version D",CHORE,WORK,Study1,F,39,84,Study,User,-,,Study/JOL,"Study Phase2",6157,,,-1,-1,,,,1
5e72cb7f4fabc9222100f9b8,arqx02ohvd,Nick_Dissertation_EX1,1,212,2020-06-02T09:15:32-07:00,1.7004580497742,4,versionC_stim.csv,READVersionD.csv,"Read Version D","Dissertation, read only version D",STOMACH,DIGESTION,Study1,B,7,54,Study,User,-,,Study/JOL,"Study Phase2",1404,,,-1,-1,,,,1
5e72cb7f4fabc9222100f9b8,arqx02ohvd,Nick_Dissertation_EX1,1,213,2020-06-02T09:15:33-07:00,1.3069679737091,4,versionC_stim.csv,READVersionD.csv,"Read Version D","Dissertation, read only version D",DIVISION,MATH,Study1,F,33,51,Study,User,-,,Study/JOL,"Study Phase2",1005,,,-1,-1,,,,1
5e72cb7f4fabc9222100f9b8,arqx02ohvd,Nick_Dissertation_EX1,1,214,2020-06-02T09:15:35-07:00,1.5716319084167,4,versionC_stim.csv,READVersionD.csv,"Read Version D","Dissertation, read only version D",SITE,LOCATION,Study1,S,48,58,Study,User,-,,Study/JOL,"Study Phase2",1271,,,-1,-1,,,,1
5e72cb7f4fabc9222100f9b8,arqx02ohvd,Nick_Dissertation_EX1,1,215,2020-06-02T09:15:37-07:00,2.2442090511322,4,versionC_stim.csv,READVersionD.csv,"Read Version D","Dissertation, read only version D",ROCK,GEOLOGY,Study1,B,19,35,Study,User,-,,Study/JOL,"Study Phase2",1952,,,-1,-1,,,,1
5e72cb7f4fabc9222100f9b8,arqx02ohvd,Nick_Dissertation_EX1,1,216,2020-06-02T09:15:39-07:00,2.2010860443115,4,versionC_stim.csv,READVersionD.csv,"Read Version D","Dissertation, read only version D",JURY,TRIAL,Study1,S,50,82,Study,User,-,,Study/JOL,"Study Phase2",1883,,,-1,-1,,,,1
5e72cb7f4fabc9222100f9b8,arqx02ohvd,Nick_Dissertation_EX1,1,217,2020-06-02T09:15:42-07:00,2.5115630626678,4,versionC_stim.csv,READVersionD.csv,"Read Version D","Dissertation, read only version D",TOILET,BATHROOM,Study1,S,58,19,Study,User,-,,Study/JOL,"Study Phase2",2171,,,-1,-1,,,,1
5e72cb7f4fabc9222100f9b8,arqx02ohvd,Nick_Dissertation_EX1,1,218,2020-06-02T09:15:44-07:00,1.6897158622742,4,versionC_stim.csv,READVersionD.csv,"Read Version D","Dissertation, read only version D",POSITION,MACHINE,Study1,U,76,10,Study,User,-,,Study/JOL,"Study Phase2",1372,,,-1,-1,,,,1
5e72cb7f4fabc9222100f9b8,arqx02ohvd,Nick_Dissertation_EX1,1,219,2020-06-02T09:15:45-07:00,1.7429571151733,4,versionC_stim.csv,READVersionD.csv,"Read Version D","Dissertation, read only version D",CAR,HAPPY,Study1,U,77,86,Study,User,-,,Study/JOL,"Study Phase2",1443,,,-1,-1,,,,1
5e72cb7f4fabc9222100f9b8,arqx02ohvd,Nick_Dissertation_EX1,1,220,2020-06-02T09:15:47-07:00,1.8536629676819,4,versionC_stim.csv,READVersionD.csv,"Read Version D","Dissertation, read only version D",FAMINE,HUNGER,Study1,F,40,81,Study,User,-,,Study/JOL,"Study Phase2",1555,,,-1,-1,,,,1
5e72cb7f4fabc9222100f9b8,arqx02ohvd,Nick_Dissertation_EX1,1,221,2020-06-02T09:15:49-07:00,1.2613980770111,4,versionC_stim.csv,READVersionD.csv,"Read Version D","Dissertation, read only version D",BEE,HONEY,Study1,S,63,27,Study,User,-,,Study/JOL,"Study Phase2",970,,,-1,-1,,,,1
5e72cb7f4fabc9222100f9b8,arqx02ohvd,Nick_Dissertation_EX1,1,222,2020-06-02T09:15:52-07:00,2.9563188552856,4,versionC_stim.csv,READVersionD.csv,"Read Version D","Dissertation, read only version D",ADD,VALLEY,Study1,U,82,8,Study,User,-,,Study/JOL,"Study Phase2",2651,,,-1,-1,,,,1
5e72cb7f4fabc9222100f9b8,arqx02ohvd,Nick_Dissertation_EX1,1,223,2020-06-02T09:15:54-07:00,2.6922459602356,4,versionC_stim.csv,READVersionD.csv,"Read Version D","Dissertation, read only version D",CLUTTER,PUSHER,Study1,U,66,31,Study,User,-,,Study/JOL,"Study Phase2",2403,,,-1,-1,,,,1
5e72cb7f4fabc9222100f9b8,arqx02ohvd,Nick_Dissertation_EX1,1,224,2020-06-02T09:15:56-07:00,1.3414602279663,4,versionC_stim.csv,READVersionD.csv,"Read Version D","Dissertation, read only version D",SIP,DRINK,Study1,F,27,39,Study,User,-,,Study/JOL,"Study Phase2",1043,,,-1,-1,,,,1
5e72cb7f4fabc9222100f9b8,arqx02ohvd,Nick_Dissertation_EX1,1,225,2020-06-02T09:15:59-07:00,3.9409279823303,4,versionC_stim.csv,READVersionD.csv,"Read Version D","Dissertation, read only version D",RACKET,BALL,Study1,F,38,44,Study,User,-,,Study/JOL,"Study Phase2",2541,,,-1,-1,,,,1
5e72cb7f4fabc9222100f9b8,arqx02ohvd,Nick_Dissertation_EX1,1,226,2020-06-02T09:16:02-07:00,2.0286169052124,4,versionC_stim.csv,READVersionD.csv,"Read Version D","Dissertation, read only version D",SEIZE,TAKE,Study1,F,29,23,Study,User,-,,Study/JOL,"Study Phase2",1708,,,-1,-1,,,,1
5e72cb7f4fabc9222100f9b8,arqx02ohvd,Nick_Dissertation_EX1,1,227,2020-06-02T09:16:03-07:00,1.8726439476013,4,versionC_stim.csv,READVersionD.csv,"Read Version D","Dissertation, read only version D",CHILI,HOT,Study1,F,37,64,Study,User,-,,Study/JOL,"Study Phase2",1543,,,-1,-1,,,,1
5e72cb7f4fabc9222100f9b8,arqx02ohvd,Nick_Dissertation_EX1,1,228,2020-06-02T09:16:05-07:00,1.1943390369415,4,versionC_stim.csv,READVersionD.csv,"Read Version D","Dissertation, read only version D",ROUND,CIRCLE,Study1,S,65,47,Study,User,-,,Study/JOL,"Study Phase2",877,,,-1,-1,,,,1
5e72cb7f4fabc9222100f9b8,arqx02ohvd,Nick_Dissertation_EX1,1,229,2020-06-02T09:16:07-07:00,2.7318849563599,4,versionC_stim.csv,READVersionD.csv,"Read Version D","Dissertation, read only version D",CARD,CREDIT,Study1,B,23,53,Study,User,-,,Study/JOL,"Study Phase2",2440,,,-1,-1,,,,1
5e72cb7f4fabc9222100f9b8,arqx02ohvd,Nick_Dissertation_EX1,1,230,2020-06-02T09:16:09-07:00,2.1926159858704,4,versionC_stim.csv,READVersionD.csv,"Read Version D","Dissertation, read only version D",DESIGN,ARCHITECTURE,Study1,S,51,20,Study,User,-,,Study/JOL,"Study Phase2",1888,,,-1,-1,,,,1
5e72cb7f4fabc9222100f9b8,arqx02ohvd,Nick_Dissertation_EX1,1,231,2020-06-02T09:16:12-07:00,2.4299631118774,4,versionC_stim.csv,READVersionD.csv,"Read Version D","Dissertation, read only version D",HAND,FIX,Study1,U,75,75,Study,User,-,,Study/JOL,"Study Phase2",2109,,,-1,-1,,,,1
5e72cb7f4fabc9222100f9b8,arqx02ohvd,Nick_Dissertation_EX1,1,232,2020-06-02T09:16:14-07:00,1.8927760124207,4,versionC_stim.csv,READVersionD.csv,"Read Version D","Dissertation, read only version D",DOG,PAW,Study1,B,15,37,Study,User,-,,Study/JOL,"Study Phase2",1590,,,-1,-1,,,,1
5e72cb7f4fabc9222100f9b8,arqx02ohvd,Nick_Dissertation_EX1,1,233,2020-06-02T09:16:16-07:00,2.6534199714661,4,versionC_stim.csv,READVersionD.csv,"Read Version D","Dissertation, read only version D",LION,ART,Study1,U,79,68,Study,User,-,,Study/JOL,"Study Phase2",2364,,,-1,-1,,,,1
5e72cb7f4fabc9222100f9b8,arqx02ohvd,Nick_Dissertation_EX1,1,234,2020-06-02T09:16:18-07:00,1.9904298782349,4,versionC_stim.csv,READVersionD.csv,"Read Version D","Dissertation, read only version D",COLD,BITTER,Study1,B,12,16,Study,User,-,,Study/JOL,"Study Phase2",1654,,,-1,-1,,,,1
5e72cb7f4fabc9222100f9b8,arqx02ohvd,Nick_Dissertation_EX1,1,235,2020-06-02T09:16:23-07:00,4.9937770366669,4,versionC_stim.csv,READVersionD.csv,"Read Version D","Dissertation, read only version D",ACCIDENT,STRONG,Study1,U,80,78,Study,User,-,,Study/JOL,"Study Phase2",4693,,,-1,-1,,,,1
5e72cb7f4fabc9222100f9b8,arqx02ohvd,Nick_Dissertation_EX1,1,236,2020-06-02T09:16:25-07:00,1.6763260364532,4,versionC_stim.csv,READVersionD.csv,"Read Version D","Dissertation, read only version D",FOOT,SHOE,Study1,S,60,34,Study,User,-,,Study/JOL,"Study Phase2",1364,,,-1,-1,,,,1
5e72cb7f4fabc9222100f9b8,arqx02ohvd,Nick_Dissertation_EX1,1,237,2020-06-02T09:16:27-07:00,2.2532620429993,4,versionC_stim.csv,READVersionD.csv,"Read Version D","Dissertation, read only version D",ATTIRE,CLOTHES,Study1,F,43,79,Study,User,-,,Study/JOL,"Study Phase2",1948,,,-1,-1,,,,1
5e72cb7f4fabc9222100f9b8,arqx02ohvd,Nick_Dissertation_EX1,1,238,2020-06-02T09:16:29-07:00,1.9971280097961,4,versionC_stim.csv,READVersionD.csv,"Read Version D","Dissertation, read only version D",ATTORNEY,LAW,Study1,F,34,69,Study,User,-,,Study/JOL,"Study Phase2",1698,,,-1,-1,,,,1
5e72cb7f4fabc9222100f9b8,arqx02ohvd,Nick_Dissertation_EX1,1,239,2020-06-02T09:16:31-07:00,1.8721878528595,4,versionC_stim.csv,READVersionD.csv,"Read Version D","Dissertation, read only version D",GROWTH,HEIGHT,Study1,F,30,73,Study,User,-,,Study/JOL,"Study Phase2",1564,,,-1,-1,,,,1
5e72cb7f4fabc9222100f9b8,arqx02ohvd,Nick_Dissertation_EX1,1,240,2020-06-02T09:16:35-07:00,3.4499962329865,4,versionC_stim.csv,READVersionD.csv,"Read Version D","Dissertation, read only version D",SODA,POP,Study1,S,56,18,Study,User,-,,Study/JOL,"Study Phase2",1735,,,-1,-1,,,,1
5e72cb7f4fabc9222100f9b8,arqx02ohvd,Nick_Dissertation_EX1,1,241,2020-06-02T09:16:38-07:00,2.840931892395,4,versionC_stim.csv,READVersionD.csv,"Read Version D","Dissertation, read only version D",CLEAN,HYGIENE,Study1,B,17,9,Study,User,-,,Study/JOL,"Study Phase2",2526,,,-1,-1,,,,1
5e72cb7f4fabc9222100f9b8,arqx02ohvd,Nick_Dissertation_EX1,1,242,2020-06-02T09:16:39-07:00,1.8000450134277,4,versionC_stim.csv,READVersionD.csv,"Read Version D","Dissertation, read only version D",BLAZE,FIRE,Study1,F,45,70,Study,User,-,,Study/JOL,"Study Phase2",1488,,,-1,-1,,,,1
5e72cb7f4fabc9222100f9b8,arqx02ohvd,Nick_Dissertation_EX1,1,243,2020-06-02T09:16:42-07:00,2.428514957428,4,versionC_stim.csv,READVersionD.csv,"Read Version D","Dissertation, read only version D",BRONZE,ARTERY,Study1,U,74,59,Study,User,-,,Study/JOL,"Study Phase2",2117,,,-1,-1,,,,1
5e72cb7f4fabc9222100f9b8,arqx02ohvd,Nick_Dissertation_EX1,1,244,2020-06-02T09:16:45-07:00,3.5748190879822,4,versionC_stim.csv,READVersionD.csv,"Read Version D","Dissertation, read only version D",FLOOR,DISCOVER,Study1,U,71,13,Study,User,-,,Study/JOL,"Study Phase2",2265,,,-1,-1,,,,1
5e72cb7f4fabc9222100f9b8,arqx02ohvd,Nick_Dissertation_EX1,1,245,2020-06-02T09:16:48-07:00,2.3209798336029,4,versionC_stim.csv,READVersionD.csv,"Read Version D","Dissertation, read only version D",BAD,DELINQUENT,Study1,B,6,42,Study,User,-,,Study/JOL,"Study Phase2",2005,,,-1,-1,,,,1
5e72cb7f4fabc9222100f9b8,arqx02ohvd,Nick_Dissertation_EX1,1,246,2020-06-02T09:16:50-07:00,2.6392250061035,4,versionC_stim.csv,READVersionD.csv,"Read Version D","Dissertation, read only version D",VASE,KING,Study1,U,85,55,Study,User,-,,Study/JOL,"Study Phase2",2277,,,-1,-1,,,,1
5e72cb7f4fabc9222100f9b8,arqx02ohvd,Nick_Dissertation_EX1,1,247,2020-06-02T09:16:52-07:00,1.9446790218353,4,versionC_stim.csv,READVersionD.csv,"Read Version D","Dissertation, read only version D",LIVER,KIDNEY,Study1,S,53,24,Study,User,-,,Study/JOL,"Study Phase2",1648,,,-1,-1,,,,1
5e72cb7f4fabc9222100f9b8,arqx02ohvd,Nick_Dissertation_EX1,1,248,2020-06-02T09:16:55-07:00,2.4102821350098,4,versionC_stim.csv,READVersionD.csv,"Read Version D","Dissertation, read only version D",COW,HERD,Study1,B,22,71,Study,User,-,,Study/JOL,"Study Phase2",2117,,,-1,-1,,,,1
5e72cb7f4fabc9222100f9b8,arqx02ohvd,Nick_Dissertation_EX1,1,249,2020-06-02T09:16:56-07:00,1.6643970012665,4,versionC_stim.csv,READVersionD.csv,"Read Version D","Dissertation, read only version D",FANTASTIC,GREAT,Study1,F,35,46,Study,User,-,,Study/JOL,"Study Phase2",1353,,,-1,-1,,,,1
5e72cb7f4fabc9222100f9b8,arqx02ohvd,Nick_Dissertation_EX1,1,250,2020-06-02T09:16:58-07:00,1.8154189586639,4,versionC_stim.csv,READVersionD.csv,"Read Version D","Dissertation, read only version D",ASSIGNMENT,DUE,Study1,S,46,57,Study,User,-,,Study/JOL,"Study Phase2",1504,,,-1,-1,,,,1
5e72cb7f4fabc9222100f9b8,arqx02ohvd,Nick_Dissertation_EX1,1,251,2020-06-02T09:17:00-07:00,1.4629509449005,4,versionC_stim.csv,READVersionD.csv,"Read Version D","Dissertation, read only version D",HUNGRY,PARK,Study1,U,68,65,Study,User,-,,Study/JOL,"Study Phase2",1158,,,-1,-1,,,,1
5e72cb7f4fabc9222100f9b8,arqx02ohvd,Nick_Dissertation_EX1,1,252,2020-06-02T09:17:01-07:00,1.2300980091095,4,versionC_stim.csv,READVersionD.csv,"Read Version D","Dissertation, read only version D",AMOUNT,NUMBER,Study1,S,47,62,Study,User,-,,Study/JOL,"Study Phase2",939,,,-1,-1,,,,1
5e72cb7f4fabc9222100f9b8,arqx02ohvd,Nick_Dissertation_EX1,1,253,2020-06-02T09:17:02-07:00,1.5001399517059,4,versionC_stim.csv,READVersionD.csv,"Read Version D","Dissertation, read only version D",MONEY,WAGE,Study1,B,8,21,Study,User,-,,Study/JOL,"Study Phase2",1204,,,-1,-1,,,,1
5e72cb7f4fabc9222100f9b8,arqx02ohvd,Nick_Dissertation_EX1,1,254,2020-06-02T09:17:04-07:00,1.6612989902496,4,versionC_stim.csv,READVersionD.csv,"Read Version D","Dissertation, read only version D",BIRD,SWAN,Study1,B,14,22,Study,User,-,,Study/JOL,"Study Phase2",1351,,,-1,-1,,,,1
5e72cb7f4fabc9222100f9b8,arqx02ohvd,Nick_Dissertation_EX1,1,255,2020-06-02T09:17:08-07:00,3.5415191650391,4,versionC_stim.csv,READVersionD.csv,"Read Version D","Dissertation, read only version D",SACKING,DIETARY,Study1,U,67,52,Study,User,-,,Study/JOL,"Study Phase2",3220,,,-1,-1,,,,1
5e72cb7f4fabc9222100f9b8,arqx02ohvd,Nick_Dissertation_EX1,1,256,2020-06-02T09:17:09-07:00,1.6428740024567,4,versionC_stim.csv,READVersionD.csv,"Read Version D","Dissertation, read only version D",WAR,REVOLUTION,Study1,B,20,7,Study,User,-,,Study/JOL,"Study Phase2",1325,,,-1,-1,,,,1
5e72cb7f4fabc9222100f9b8,arqx02ohvd,Nick_Dissertation_EX1,1,257,2020-06-02T09:17:11-07:00,1.839231967926,4,versionC_stim.csv,READVersionD.csv,"Read Version D","Dissertation, read only version D",WOULD,CASH,Study1,U,83,38,Study,User,-,,Study/JOL,"Study Phase2",1549,,,-1,-1,,,,1
5e72cb7f4fabc9222100f9b8,arqx02ohvd,Nick_Dissertation_EX1,1,258,2020-06-02T09:17:13-07:00,1.939080953598,4,versionC_stim.csv,READVersionD.csv,"Read Version D","Dissertation, read only version D",TALK,DISCUSSION,Study1,B,21,74,Study,User,-,,Study/JOL,"Study Phase2",1622,,,-1,-1,,,,1
5e72cb7f4fabc9222100f9b8,arqx02ohvd,Nick_Dissertation_EX1,1,259,2020-06-02T09:17:14-07:00,1.4729568958282,4,versionC_stim.csv,READVersionD.csv,"Read Version D","Dissertation, read only version D",SALAD,LETTUCE,Study1,S,59,11,Study,User,-,,Study/JOL,"Study Phase2",1167,,,-1,-1,,,,1
5e72cb7f4fabc9222100f9b8,arqx02ohvd,Nick_Dissertation_EX1,1,260,2020-06-02T09:17:16-07:00,1.7561922073364,4,versionC_stim.csv,READVersionD.csv,"Read Version D","Dissertation, read only version D",SICK,HIDE,Study1,U,84,36,Study,User,-,,Study/JOL,"Study Phase2",1456,,,-1,-1,,,,1
5e72cb7f4fabc9222100f9b8,arqx02ohvd,Nick_Dissertation_EX1,1,261,2020-06-02T09:17:18-07:00,1.4313809871674,4,versionC_stim.csv,READVersionD.csv,"Read Version D","Dissertation, read only version D",CHOCOLATE,MALT,BUFFER2,Buffer,88,91,Study,User,-,,Study/JOL,BUFFER4,1110,,,-1,-1,,,,1
5e72cb7f4fabc9222100f9b8,arqx02ohvd,Nick_Dissertation_EX1,1,262,2020-06-02T09:17:19-07:00,1.7947638034821,4,versionC_stim.csv,READVersionD.csv,"Read Version D","Dissertation, read only version D",SPACE,MOON,BUFFER2,Buffer,89,88,Study,User,-,,Study/JOL,BUFFER4,1433,,,-1,-1,,,,1
5e72cb7f4fabc9222100f9b8,arqx02ohvd,Nick_Dissertation_EX1,1,263,2020-06-02T09:17:21-07:00,1.3980910778046,4,versionC_stim.csv,READVersionD.csv,"Read Version D","Dissertation, read only version D",STUFF,THING,BUFFER2,Buffer,90,90,Study,User,-,,Study/JOL,BUFFER4,1087,,,-1,-1,,,,1
5e72cb7f4fabc9222100f9b8,arqx02ohvd,Nick_Dissertation_EX1,1,264,2020-06-02T09:17:23-07:00,1.9466180801392,4,versionC_stim.csv,READVersionD.csv,"Read Version D","Dissertation, read only version D",POLICE,SHERRIF,BUFFER2,Buffer,87,89,Study,User,-,,Study/JOL,BUFFER4,1647,,,-1,-1,,,,1
5e72cb7f4fabc9222100f9b8,arqx02ohvd,Nick_Dissertation_EX1,1,265,2020-06-02T09:17:24-07:00,1.2704379558563,4,versionC_stim.csv,READVersionD.csv,"Read Version D","Dissertation, read only version D",GOOSE,GEESE,BUFFER2,Buffer,86,87,Study,User,-,,Study/JOL,BUFFER4,958,,,-1,-1,,,,1
5e72cb7f4fabc9222100f9b8,arqx02ohvd,Nick_Dissertation_EX1,1,266,2020-06-02T09:17:26-07:00,1.6262629032135,4,versionC_stim.csv,READVersionD.csv,"Read Version D","Dissertation, read only version D",,,,,,0,Instruct,User,-,"You have completed this section. Please press Enter.",Filler_Instruction,Instruct5,1330,,,-1,-1,,,,1
5e72cb7f4fabc9222100f9b8,arqx02ohvd,Nick_Dissertation_EX1,1,267,2020-06-02T09:19:26-07:00,120.35557699203,4,versionC_stim.csv,READVersionD.csv,"Read Version D","Dissertation, read only version D",,,,,,0,FreeRecall,120,120,"Please list the 50 US states in reverse alphabetical order (z - a). The task will automatically advance to the next screen after two minutes.",,Filler2,120008,"Wyoming Washington Texas Oregon New York Michigan Maine Kansas Hawaii Georgia Connecticut Colorado California Arizona Arkansas Alaska Alabama",0,6677,113462,0,0,,1
5e72cb7f4fabc9222100f9b8,arqx02ohvd,Nick_Dissertation_EX1,1,268,2020-06-02T09:20:08-07:00,42.273670196533,4,versionC_stim.csv,READVersionD.csv,"Read Version D","Dissertation, read only version D",,,,,,0,Instruct,-,10,"You will now be presented with the first word from each of the previously studied item pairs. Please type the missing word. If you do not know the word, you may guess or press Enter to skip forward to the next pair.",,Instruct6,40754,,,-1,-1,,,,1
5e72cb7f4fabc9222100f9b8,arqx02ohvd,Nick_Dissertation_EX1,1,269,2020-06-02T09:20:12-07:00,3.354083776474,4,versionC_stim.csv,READVersionD.csv,"Read Version D","Dissertation, read only version D",WASTE,DUMP,Study1,S,49,15,Test,User,-,,Recall,Recall2,3021,garbage,0,1592,2856,0,0,,1
5e72cb7f4fabc9222100f9b8,arqx02ohvd,Nick_Dissertation_EX1,1,270,2020-06-02T09:20:15-07:00,3.0845410823822,4,versionC_stim.csv,READVersionD.csv,"Read Version D","Dissertation, read only version D",HAMMER,CHISEL,Study1,B,9,25,Test,User,-,,Recall,Recall2,2763,chisel,100,1431,2548,1,1,,1
5e72cb7f4fabc9222100f9b8,arqx02ohvd,Nick_Dissertation_EX1,1,271,2020-06-02T09:20:18-07:00,2.8700840473175,4,versionC_stim.csv,READVersionD.csv,"Read Version D","Dissertation, read only version D",FLOOR,DISCOVER,Study1,U,71,13,Test,User,-,,Recall,Recall2,2564,,0,-1,-1,0,0,,1
5e72cb7f4fabc9222100f9b8,arqx02ohvd,Nick_Dissertation_EX1,1,272,2020-06-02T09:20:22-07:00,4.0811040401459,4,versionC_stim.csv,READVersionD.csv,"Read Version D","Dissertation, read only version D",GROWTH,HEIGHT,Study1,F,30,73,Test,User,-,,Recall,Recall2,3750,,0,-1,-1,0,0,,1
5e72cb7f4fabc9222100f9b8,arqx02ohvd,Nick_Dissertation_EX1,1,273,2020-06-02T09:20:25-07:00,3.5200939178467,4,versionC_stim.csv,READVersionD.csv,"Read Version D","Dissertation, read only version D",CAVE,DARK,Study1,F,28,61,Test,User,-,,Recall,Recall2,3209,dark,100,2544,2973,1,1,,1
5e72cb7f4fabc9222100f9b8,arqx02ohvd,Nick_Dissertation_EX1,1,274,2020-06-02T09:20:28-07:00,2.4585571289062,4,versionC_stim.csv,READVersionD.csv,"Read Version D","Dissertation, read only version D",PILOT,PLANE,Study1,F,44,77,Test,User,-,,Recall,Recall2,2150,plane,100,1409,1980,1,1,,1
5e72cb7f4fabc9222100f9b8,arqx02ohvd,Nick_Dissertation_EX1,1,275,2020-06-02T09:20:32-07:00,3.9348039627075,4,versionC_stim.csv,READVersionD.csv,"Read Version D","Dissertation, read only version D",LIVER,KIDNEY,Study1,S,53,24,Test,User,-,,Recall,Recall2,3619,kidney,100,1095,3312,1,1,,1
5e72cb7f4fabc9222100f9b8,arqx02ohvd,Nick_Dissertation_EX1,1,276,2020-06-02T09:20:38-07:00,6.8570308685303,4,versionC_stim.csv,READVersionD.csv,"Read Version D","Dissertation, read only version D",OUT,WAY,Study1,B,16,60,Test,User,-,,Recall,Recall2,6547,,0,3771,4404,0,0,,1
5e72cb7f4fabc9222100f9b8,arqx02ohvd,Nick_Dissertation_EX1,1,277,2020-06-02T09:20:43-07:00,4.959361076355,4,versionC_stim.csv,READVersionD.csv,"Read Version D","Dissertation, read only version D",SITE,LOCATION,Study1,S,48,58,Test,User,-,,Recall,Recall2,4625,,0,-1,-1,0,0,,1
5e72cb7f4fabc9222100f9b8,arqx02ohvd,Nick_Dissertation_EX1,1,278,2020-06-02T09:20:54-07:00,10.800045013428,4,versionC_stim.csv,READVersionD.csv,"Read Version D","Dissertation, read only version D",JURY,TRIAL,Study1,S,50,82,Test,User,-,,Recall,Recall2,10447,court,20,1456,10161,0,0,,1
5e72cb7f4fabc9222100f9b8,arqx02ohvd,Nick_Dissertation_EX1,1,279,2020-06-02T09:20:57-07:00,3.0872690677643,4,versionC_stim.csv,READVersionD.csv,"Read Version D","Dissertation, read only version D",BUSINESS,DEATH,Study1,U,72,30,Test,User,-,,Recall,Recall2,2722,death,100,1809,2389,1,1,,1
5e72cb7f4fabc9222100f9b8,arqx02ohvd,Nick_Dissertation_EX1,1,280,2020-06-02T09:21:02-07:00,4.9205229282379,4,versionC_stim.csv,READVersionD.csv,"Read Version D","Dissertation, read only version D",STING,HORNET,Study1,B,11,80,Test,User,-,,Recall,Recall2,4597,wasp,0,1807,2280,0,0,,1
5e72cb7f4fabc9222100f9b8,arqx02ohvd,Nick_Dissertation_EX1,1,281,2020-06-02T09:21:07-07:00,4.2838408946991,4,versionC_stim.csv,READVersionD.csv,"Read Version D","Dissertation, read only version D",AMOUNT,NUMBER,Study1,S,47,62,Test,User,-,,Recall,Recall2,3958,,0,-1,-1,0,0,,1
5e72cb7f4fabc9222100f9b8,arqx02ohvd,Nick_Dissertation_EX1,1,282,2020-06-02T09:21:13-07:00,6.4904680252075,4,versionC_stim.csv,READVersionD.csv,"Read Version D","Dissertation, read only version D",WOMAN,LIFT,Study1,U,69,72,Test,User,-,,Recall,Recall2,6172,growth,20,4317,5733,0,0,,1
5e72cb7f4fabc9222100f9b8,arqx02ohvd,Nick_Dissertation_EX1,1,283,2020-06-02T09:21:21-07:00,8.3583221435547,4,versionC_stim.csv,READVersionD.csv,"Read Version D","Dissertation, read only version D",WASP,BUG,Study1,F,32,28,Test,User,-,,Recall,Recall2,8053,sting,25,5276,7723,0,0,,1
5e72cb7f4fabc9222100f9b8,arqx02ohvd,Nick_Dissertation_EX1,1,284,2020-06-02T09:21:24-07:00,2.3460419178009,4,versionC_stim.csv,READVersionD.csv,"Read Version D","Dissertation, read only version D",STENCH,SMELL,Study1,F,42,50,Test,User,-,,Recall,Recall2,2038,smell,100,1418,1851,1,1,,1
5e72cb7f4fabc9222100f9b8,arqx02ohvd,Nick_Dissertation_EX1,1,285,2020-06-02T09:21:26-07:00,2.745815038681,4,versionC_stim.csv,READVersionD.csv,"Read Version D","Dissertation, read only version D",FOOT,SHOE,Study1,S,60,34,Test,User,-,,Recall,Recall2,2434,,0,-1,-1,0,0,,1
5e72cb7f4fabc9222100f9b8,arqx02ohvd,Nick_Dissertation_EX1,1,286,2020-06-02T09:21:29-07:00,2.1716270446777,4,versionC_stim.csv,READVersionD.csv,"Read Version D","Dissertation, read only version D",SEIZE,TAKE,Study1,F,29,23,Test,User,-,,Recall,Recall2,1859,take,100,1371,1761,1,1,,1
5e72cb7f4fabc9222100f9b8,arqx02ohvd,Nick_Dissertation_EX1,1,287,2020-06-02T09:21:34-07:00,5.3192448616028,4,versionC_stim.csv,READVersionD.csv,"Read Version D","Dissertation, read only version D",NEWS,EDITOR,Study1,B,10,48,Test,User,-,,Recall,Recall2,3989,anchor,33.333333333333,1976,3647,0,0,,1
5e72cb7f4fabc9222100f9b8,arqx02ohvd,Nick_Dissertation_EX1,1,288,2020-06-02T09:21:45-07:00,11.373283147812,4,versionC_stim.csv,READVersionD.csv,"Read Version D","Dissertation, read only version D",CLUTTER,PUSHER,Study1,U,66,31,Test,User,-,,Recall,Recall2,10955,sort,40,4813,5706,0,0,,1
5e72cb7f4fabc9222100f9b8,arqx02ohvd,Nick_Dissertation_EX1,1,289,2020-06-02T09:21:48-07:00,2.7147409915924,4,versionC_stim.csv,READVersionD.csv,"Read Version D","Dissertation, read only version D",ROUND,CIRCLE,Study1,S,65,47,Test,User,-,,Recall,Recall2,2287,circle,100,1488,2198,1,1,,1
5e72cb7f4fabc9222100f9b8,arqx02ohvd,Nick_Dissertation_EX1,1,290,2020-06-02T09:21:55-07:00,7.1002810001373,4,versionC_stim.csv,READVersionD.csv,"Read Version D","Dissertation, read only version D",CAR,HAPPY,Study1,U,77,86,Test,User,-,,Recall,Recall2,6719,happy,100,1555,6616,1,1,,1
5e72cb7f4fabc9222100f9b8,arqx02ohvd,Nick_Dissertation_EX1,1,291,2020-06-02T09:21:58-07:00,3.1481909751892,4,versionC_stim.csv,READVersionD.csv,"Read Version D","Dissertation, read only version D",SIP,DRINK,Study1,F,27,39,Test,User,-,,Recall,Recall2,2803,drink,100,1655,2541,1,1,,1
5e72cb7f4fabc9222100f9b8,arqx02ohvd,Nick_Dissertation_EX1,1,292,2020-06-02T09:22:01-07:00,2.7329158782959,4,versionC_stim.csv,READVersionD.csv,"Read Version D","Dissertation, read only version D",BLAZE,FIRE,Study1,F,45,70,Test,User,-,,Recall,Recall2,2412,fire,100,1333,2289,1,1,,1
5e72cb7f4fabc9222100f9b8,arqx02ohvd,Nick_Dissertation_EX1,1,293,2020-06-02T09:22:04-07:00,2.778923034668,4,versionC_stim.csv,READVersionD.csv,"Read Version D","Dissertation, read only version D",WOULD,CASH,Study1,U,83,38,Test,User,-,,Recall,Recall2,2442,,0,-1,-1,0,0,,1
5e72cb7f4fabc9222100f9b8,arqx02ohvd,Nick_Dissertation_EX1,1,294,2020-06-02T09:22:07-07:00,2.7472779750824,4,versionC_stim.csv,READVersionD.csv,"Read Version D","Dissertation, read only version D",SICK,HIDE,Study1,U,84,36,Test,User,-,,Recall,Recall2,2423,,0,-1,-1,0,0,,1
5e72cb7f4fabc9222100f9b8,arqx02ohvd,Nick_Dissertation_EX1,1,295,2020-06-02T09:22:10-07:00,3.3851239681244,4,versionC_stim.csv,READVersionD.csv,"Read Version D","Dissertation, read only version D",COW,HERD,Study1,B,22,71,Test,User,-,,Recall,Recall2,3072,herd,100,2317,2739,1,1,,1
5e72cb7f4fabc9222100f9b8,arqx02ohvd,Nick_Dissertation_EX1,1,296,2020-06-02T09:22:16-07:00,6.0534081459045,4,versionC_stim.csv,READVersionD.csv,"Read Version D","Dissertation, read only version D",CHORE,WORK,Study1,F,39,84,Test,User,-,,Recall,Recall2,5697,work,100,5110,5419,1,1,,1
5e72cb7f4fabc9222100f9b8,arqx02ohvd,Nick_Dissertation_EX1,1,297,2020-06-02T09:22:18-07:00,2.3425629138947,4,versionC_stim.csv,READVersionD.csv,"Read Version D","Dissertation, read only version D",CHEESE,WINE,Study1,S,57,40,Test,User,-,,Recall,Recall2,2011,wine,100,1278,1898,1,1,,1
5e72cb7f4fabc9222100f9b8,arqx02ohvd,Nick_Dissertation_EX1,1,298,2020-06-02T09:22:20-07:00,1.6607840061188,4,versionC_stim.csv,READVersionD.csv,"Read Version D","Dissertation, read only version D",FANTASTIC,GREAT,Study1,F,35,46,Test,User,-,,Recall,Recall2,1332,,0,-1,-1,0,0,,1
5e72cb7f4fabc9222100f9b8,arqx02ohvd,Nick_Dissertation_EX1,1,299,2020-06-02T09:22:22-07:00,1.9610779285431,4,versionC_stim.csv,READVersionD.csv,"Read Version D","Dissertation, read only version D",FUTURE,PAST,Study1,S,61,33,Test,User,-,,Recall,Recall2,1560,past,100,1028,1433,1,1,,1
5e72cb7f4fabc9222100f9b8,arqx02ohvd,Nick_Dissertation_EX1,1,300,2020-06-02T09:22:25-07:00,2.7337191104889,4,versionC_stim.csv,READVersionD.csv,"Read Version D","Dissertation, read only version D",FAMINE,HUNGER,Study1,F,40,81,Test,User,-,,Recall,Recall2,2402,hunger,100,1456,2117,1,1,,1
5e72cb7f4fabc9222100f9b8,arqx02ohvd,Nick_Dissertation_EX1,1,301,2020-06-02T09:22:42-07:00,17.005857944489,4,versionC_stim.csv,READVersionD.csv,"Read Version D","Dissertation, read only version D",DESIGN,ARCHITECTURE,Study1,S,51,20,Test,User,-,,Recall,Recall2,16651,"architecture ",100,1130,13810,1,1,,1
5e72cb7f4fabc9222100f9b8,arqx02ohvd,Nick_Dissertation_EX1,1,302,2020-06-02T09:22:48-07:00,6.0262229442596,4,versionC_stim.csv,READVersionD.csv,"Read Version D","Dissertation, read only version D",SALAD,LETTUCE,Study1,S,59,11,Test,User,-,,Recall,Recall2,5686,lettuce,100,1461,5553,1,1,,1
5e72cb7f4fabc9222100f9b8,arqx02ohvd,Nick_Dissertation_EX1,1,303,2020-06-02T09:22:56-07:00,8.4507720470428,4,versionC_stim.csv,READVersionD.csv,"Read Version D","Dissertation, read only version D",WAR,REVOLUTION,Study1,B,20,7,Test,User,-,,Recall,Recall2,8111,destruction,57.142857142857,6247,7849,0,0,,1
5e72cb7f4fabc9222100f9b8,arqx02ohvd,Nick_Dissertation_EX1,1,304,2020-06-02T09:22:59-07:00,2.3894369602203,4,versionC_stim.csv,READVersionD.csv,"Read Version D","Dissertation, read only version D",TALK,DISCUSSION,Study1,B,21,74,Test,User,-,,Recall,Recall2,2069,,0,-1,-1,0,0,,1
5e72cb7f4fabc9222100f9b8,arqx02ohvd,Nick_Dissertation_EX1,1,305,2020-06-02T09:23:01-07:00,2.9061100482941,4,versionC_stim.csv,READVersionD.csv,"Read Version D","Dissertation, read only version D",DROWSY,SLEEP,Study1,F,41,43,Test,User,-,,Recall,Recall2,2564,sleep,100,1656,2378,1,1,,1
5e72cb7f4fabc9222100f9b8,arqx02ohvd,Nick_Dissertation_EX1,1,306,2020-06-02T09:23:05-07:00,3.1927230358124,4,versionC_stim.csv,READVersionD.csv,"Read Version D","Dissertation, read only version D",CHILD,BABY,Study1,S,64,67,Test,User,-,,Recall,Recall2,2873,,0,-1,-1,0,0,,1
5e72cb7f4fabc9222100f9b8,arqx02ohvd,Nick_Dissertation_EX1,1,307,2020-06-02T09:23:09-07:00,4.2607309818268,4,versionC_stim.csv,READVersionD.csv,"Read Version D","Dissertation, read only version D",PLANT,ROOT,Study1,B,13,49,Test,User,-,,Recall,Recall2,3919,green,22.222222222222,2582,3300,0,0,,1
5e72cb7f4fabc9222100f9b8,arqx02ohvd,Nick_Dissertation_EX1,1,308,2020-06-02T09:23:13-07:00,4.3208780288696,4,versionC_stim.csv,READVersionD.csv,"Read Version D","Dissertation, read only version D",CARD,CREDIT,Study1,B,23,53,Test,User,-,,Recall,Recall2,4015,credit,100,3111,3876,1,1,,1
5e72cb7f4fabc9222100f9b8,arqx02ohvd,Nick_Dissertation_EX1,1,309,2020-06-02T09:23:17-07:00,3.8063960075378,4,versionC_stim.csv,READVersionD.csv,"Read Version D","Dissertation, read only version D",FLOWER,ORCHID,Study1,B,24,85,Test,User,-,,Recall,Recall2,3480,orchid,100,2167,3342,1,1,,1
5e72cb7f4fabc9222100f9b8,arqx02ohvd,Nick_Dissertation_EX1,1,310,2020-06-02T09:23:21-07:00,4.3298940658569,4,versionC_stim.csv,READVersionD.csv,"Read Version D","Dissertation, read only version D",BIRD,SWAN,Study1,B,14,22,Test,User,-,,Recall,Recall2,4007,peguin,20,2420,3736,0,0,,1
5e72cb7f4fabc9222100f9b8,arqx02ohvd,Nick_Dissertation_EX1,1,311,2020-06-02T09:23:26-07:00,4.5215029716492,4,versionC_stim.csv,READVersionD.csv,"Read Version D","Dissertation, read only version D",CLEAN,HYGIENE,Study1,B,17,9,Test,User,-,,Recall,Recall2,4207,,0,-1,-1,0,0,,1
5e72cb7f4fabc9222100f9b8,arqx02ohvd,Nick_Dissertation_EX1,1,312,2020-06-02T09:23:29-07:00,2.6405680179596,4,versionC_stim.csv,READVersionD.csv,"Read Version D","Dissertation, read only version D",TOILET,BATHROOM,Study1,S,58,19,Test,User,-,,Recall,Recall2,2309,flush,15.384615384615,1657,2082,0,0,,1
5e72cb7f4fabc9222100f9b8,arqx02ohvd,Nick_Dissertation_EX1,1,313,2020-06-02T09:23:33-07:00,4.6163768768311,4,versionC_stim.csv,READVersionD.csv,"Read Version D","Dissertation, read only version D",BRONZE,ARTERY,Study1,U,74,59,Test,User,-,,Recall,Recall2,4285,"artery ",100,1334,3948,1,1,,1
5e72cb7f4fabc9222100f9b8,arqx02ohvd,Nick_Dissertation_EX1,1,314,2020-06-02T09:23:37-07:00,3.6349670886993,4,versionC_stim.csv,READVersionD.csv,"Read Version D","Dissertation, read only version D",WATER,BRIDGE,Study1,B,18,66,Test,User,-,,Recall,Recall2,3261,,0,-1,-1,0,0,,1
5e72cb7f4fabc9222100f9b8,arqx02ohvd,Nick_Dissertation_EX1,1,315,2020-06-02T09:23:41-07:00,4.2894299030304,4,versionC_stim.csv,READVersionD.csv,"Read Version D","Dissertation, read only version D",BAR,GRILL,Study1,S,52,56,Test,User,-,,Recall,Recall2,3981,drink,40,3100,3730,0,0,,1
5e72cb7f4fabc9222100f9b8,arqx02ohvd,Nick_Dissertation_EX1,1,316,2020-06-02T09:23:45-07:00,3.4882831573486,4,versionC_stim.csv,READVersionD.csv,"Read Version D","Dissertation, read only version D",MONEY,WAGE,Study1,B,8,21,Test,User,-,,Recall,Recall2,3166,,0,-1,-1,0,0,,1
5e72cb7f4fabc9222100f9b8,arqx02ohvd,Nick_Dissertation_EX1,1,317,2020-06-02T09:23:51-07:00,6.5365958213806,4,versionC_stim.csv,READVersionD.csv,"Read Version D","Dissertation, read only version D",RIDDLE,SUGAR,Study1,U,81,41,Test,User,-,,Recall,Recall2,6204,,0,-1,-1,0,0,,1
5e72cb7f4fabc9222100f9b8,arqx02ohvd,Nick_Dissertation_EX1,1,318,2020-06-02T09:23:53-07:00,2.2386081218719,4,versionC_stim.csv,READVersionD.csv,"Read Version D","Dissertation, read only version D",LION,ART,Study1,U,79,68,Test,User,-,,Recall,Recall2,1929,art,100,1256,1718,1,1,,1
5e72cb7f4fabc9222100f9b8,arqx02ohvd,Nick_Dissertation_EX1,1,319,2020-06-02T09:23:57-07:00,3.6849210262299,4,versionC_stim.csv,READVersionD.csv,"Read Version D","Dissertation, read only version D",HUNGRY,PARK,Study1,U,68,65,Test,User,-,,Recall,Recall2,3336,,0,-1,-1,0,0,,1
5e72cb7f4fabc9222100f9b8,arqx02ohvd,Nick_Dissertation_EX1,1,320,2020-06-02T09:24:01-07:00,4.2544519901276,4,versionC_stim.csv,READVersionD.csv,"Read Version D","Dissertation, read only version D",WORD,SENTENCE,Study1,F,31,45,Test,User,-,,Recall,Recall2,3917,,0,-1,-1,0,0,,1
5e72cb7f4fabc9222100f9b8,arqx02ohvd,Nick_Dissertation_EX1,1,321,2020-06-02T09:24:05-07:00,4.1869769096375,4,versionC_stim.csv,READVersionD.csv,"Read Version D","Dissertation, read only version D",TUCK,ALLOW,Study1,U,78,76,Test,User,-,,Recall,Recall2,3842,,0,-1,-1,0,0,,1
5e72cb7f4fabc9222100f9b8,arqx02ohvd,Nick_Dissertation_EX1,1,322,2020-06-02T09:24:08-07:00,2.7400281429291,4,versionC_stim.csv,READVersionD.csv,"Read Version D","Dissertation, read only version D",DOG,PAW,Study1,B,15,37,Test,User,-,,Recall,Recall2,2412,paw,100,1911,2281,1,1,,1
5e72cb7f4fabc9222100f9b8,arqx02ohvd,Nick_Dissertation_EX1,1,323,2020-06-02T09:24:10-07:00,2.1675219535828,4,versionC_stim.csv,READVersionD.csv,"Read Version D","Dissertation, read only version D",POSITION,MACHINE,Study1,U,76,10,Test,User,-,,Recall,Recall2,1845,,0,-1,-1,0,0,,1
5e72cb7f4fabc9222100f9b8,arqx02ohvd,Nick_Dissertation_EX1,1,324,2020-06-02T09:24:14-07:00,4.0541100502014,4,versionC_stim.csv,READVersionD.csv,"Read Version D","Dissertation, read only version D",SACKING,DIETARY,Study1,U,67,52,Test,User,-,,Recall,Recall2,3696,,0,-1,-1,0,0,,1
5e72cb7f4fabc9222100f9b8,arqx02ohvd,Nick_Dissertation_EX1,1,325,2020-06-02T09:24:16-07:00,1.9771919250488,4,versionC_stim.csv,READVersionD.csv,"Read Version D","Dissertation, read only version D",ATTORNEY,LAW,Study1,F,34,69,Test,User,-,,Recall,Recall2,1655,law,100,1217,1499,1,1,,1
5e72cb7f4fabc9222100f9b8,arqx02ohvd,Nick_Dissertation_EX1,1,326,2020-06-02T09:24:20-07:00,3.566957950592,4,versionC_stim.csv,READVersionD.csv,"Read Version D","Dissertation, read only version D",END,BEGIN,Study1,S,54,29,Test,User,-,,Recall,Recall2,3253,,0,-1,-1,0,0,,1
5e72cb7f4fabc9222100f9b8,arqx02ohvd,Nick_Dissertation_EX1,1,327,2020-06-02T09:24:23-07:00,2.6390280723572,4,versionC_stim.csv,READVersionD.csv,"Read Version D","Dissertation, read only version D",HAND,FIX,Study1,U,75,75,Test,User,-,,Recall,Recall2,2314,,0,-1,-1,0,0,,1
5e72cb7f4fabc9222100f9b8,arqx02ohvd,Nick_Dissertation_EX1,1,328,2020-06-02T09:24:27-07:00,4.3744299411774,4,versionC_stim.csv,READVersionD.csv,"Read Version D","Dissertation, read only version D",SIGHT,DEBATE,Study1,U,73,26,Test,User,-,,Recall,Recall2,4038,,0,-1,-1,0,0,,1
5e72cb7f4fabc9222100f9b8,arqx02ohvd,Nick_Dissertation_EX1,1,329,2020-06-02T09:24:30-07:00,3.3101999759674,4,versionC_stim.csv,READVersionD.csv,"Read Version D","Dissertation, read only version D",RACKET,BALL,Study1,F,38,44,Test,User,-,,Recall,Recall2,2995,ball,100,1796,2406,1,1,,1
5e72cb7f4fabc9222100f9b8,arqx02ohvd,Nick_Dissertation_EX1,1,330,2020-06-02T09:24:33-07:00,3.1294939517975,4,versionC_stim.csv,READVersionD.csv,"Read Version D","Dissertation, read only version D",ATTIRE,CLOTHES,Study1,F,43,79,Test,User,-,,Recall,Recall2,2819,clothes,100,1469,2690,1,1,,1
5e72cb7f4fabc9222100f9b8,arqx02ohvd,Nick_Dissertation_EX1,1,331,2020-06-02T09:24:37-07:00,3.6704349517822,4,versionC_stim.csv,READVersionD.csv,"Read Version D","Dissertation, read only version D",ASSIGNMENT,DUE,Study1,S,46,57,Test,User,-,,Recall,Recall2,3347,,0,-1,-1,0,0,,1
5e72cb7f4fabc9222100f9b8,arqx02ohvd,Nick_Dissertation_EX1,1,332,2020-06-02T09:24:39-07:00,1.8074581623077,4,versionC_stim.csv,READVersionD.csv,"Read Version D","Dissertation, read only version D",SODA,POP,Study1,S,56,18,Test,User,-,,Recall,Recall2,1472,pop,100,959,1273,1,1,,1
5e72cb7f4fabc9222100f9b8,arqx02ohvd,Nick_Dissertation_EX1,1,333,2020-06-02T09:24:51-07:00,12.058439016342,4,versionC_stim.csv,READVersionD.csv,"Read Version D","Dissertation, read only version D",BELT,SOON,Study1,U,70,17,Test,User,-,,Recall,Recall2,11706,soon,100,2321,11079,1,1,,1
5e72cb7f4fabc9222100f9b8,arqx02ohvd,Nick_Dissertation_EX1,1,334,2020-06-02T09:24:53-07:00,1.5785410404205,4,versionC_stim.csv,READVersionD.csv,"Read Version D","Dissertation, read only version D",ADD,VALLEY,Study1,U,82,8,Test,User,-,,Recall,Recall2,1170,,0,-1,-1,0,0,,1
5e72cb7f4fabc9222100f9b8,arqx02ohvd,Nick_Dissertation_EX1,1,335,2020-06-02T09:24:57-07:00,4.2700848579407,4,versionC_stim.csv,READVersionD.csv,"Read Version D","Dissertation, read only version D",COLD,BITTER,Study1,B,12,16,Test,User,-,,Recall,Recall2,3956,ice,44.444444444444,3364,3786,0,0,,1
5e72cb7f4fabc9222100f9b8,arqx02ohvd,Nick_Dissertation_EX1,1,336,2020-06-02T09:24:59-07:00,2.0436940193176,4,versionC_stim.csv,READVersionD.csv,"Read Version D","Dissertation, read only version D",WIND,BLOW,Study1,S,55,14,Test,User,-,,Recall,Recall2,1734,blow,100,1288,1627,1,1,,1
5e72cb7f4fabc9222100f9b8,arqx02ohvd,Nick_Dissertation_EX1,1,337,2020-06-02T09:25:03-07:00,4.0912311077118,4,versionC_stim.csv,READVersionD.csv,"Read Version D","Dissertation, read only version D",BEE,HONEY,Study1,S,63,27,Test,User,-,,Recall,Recall2,3767,sting,20,3023,3642,0,0,,1
5e72cb7f4fabc9222100f9b8,arqx02ohvd,Nick_Dissertation_EX1,1,338,2020-06-02T09:25:05-07:00,2.5360498428345,4,versionC_stim.csv,READVersionD.csv,"Read Version D","Dissertation, read only version D",VASE,KING,Study1,U,85,55,Test,User,-,,Recall,Recall2,2164,king,100,1691,2042,1,1,,1
5e72cb7f4fabc9222100f9b8,arqx02ohvd,Nick_Dissertation_EX1,1,339,2020-06-02T09:25:08-07:00,2.1844711303711,4,versionC_stim.csv,READVersionD.csv,"Read Version D","Dissertation, read only version D",CHILI,HOT,Study1,F,37,64,Test,User,-,,Recall,Recall2,1868,hot,100,1056,1695,1,1,,1
5e72cb7f4fabc9222100f9b8,arqx02ohvd,Nick_Dissertation_EX1,1,340,2020-06-02T09:25:12-07:00,4.0424020290375,4,versionC_stim.csv,READVersionD.csv,"Read Version D","Dissertation, read only version D",ROCK,GEOLOGY,Study1,B,19,35,Test,User,-,,Recall,Recall2,3679,,0,-1,-1,0,0,,1
5e72cb7f4fabc9222100f9b8,arqx02ohvd,Nick_Dissertation_EX1,1,341,2020-06-02T09:25:15-07:00,3.6225628852844,4,versionC_stim.csv,READVersionD.csv,"Read Version D","Dissertation, read only version D",DIVISION,MATH,Study1,F,33,51,Test,User,-,,Recall,Recall2,3302,,0,-1,-1,0,0,,1
5e72cb7f4fabc9222100f9b8,arqx02ohvd,Nick_Dissertation_EX1,1,342,2020-06-02T09:25:22-07:00,6.3297801017761,4,versionC_stim.csv,READVersionD.csv,"Read Version D","Dissertation, read only version D",STOMACH,DIGESTION,Study1,B,7,54,Test,User,-,,Recall,Recall2,6003,digestion,100,4576,5752,1,1,,1
5e72cb7f4fabc9222100f9b8,arqx02ohvd,Nick_Dissertation_EX1,1,343,2020-06-02T09:25:25-07:00,3.8244459629059,4,versionC_stim.csv,READVersionD.csv,"Read Version D","Dissertation, read only version D",DEFINITION,MEANING,Study1,S,62,32,Test,User,-,,Recall,Recall2,3483,,0,-1,-1,0,0,,1
5e72cb7f4fabc9222100f9b8,arqx02ohvd,Nick_Dissertation_EX1,1,344,2020-06-02T09:25:28-07:00,2.4092638492584,4,versionC_stim.csv,READVersionD.csv,"Read Version D","Dissertation, read only version D",BAD,DELINQUENT,Study1,B,6,42,Test,User,-,,Recall,Recall2,2082,,0,-1,-1,0,0,,1
5e72cb7f4fabc9222100f9b8,arqx02ohvd,Nick_Dissertation_EX1,1,345,2020-06-02T09:25:30-07:00,1.8557751178741,4,versionC_stim.csv,READVersionD.csv,"Read Version D","Dissertation, read only version D",ENOUGH,FULL,Study1,F,26,63,Test,User,-,,Recall,Recall2,1523,,0,-1,-1,0,0,,1
5e72cb7f4fabc9222100f9b8,arqx02ohvd,Nick_Dissertation_EX1,1,346,2020-06-02T09:25:32-07:00,2.166934967041,4,versionC_stim.csv,READVersionD.csv,"Read Version D","Dissertation, read only version D",FISH,TUNA,Study1,B,25,12,Test,User,-,,Recall,Recall2,1803,tuna,100,1248,1666,1,1,,1
5e72cb7f4fabc9222100f9b8,arqx02ohvd,Nick_Dissertation_EX1,1,347,2020-06-02T09:25:34-07:00,1.8584339618683,4,versionC_stim.csv,READVersionD.csv,"Read Version D","Dissertation, read only version D",ACCIDENT,STRONG,Study1,U,80,78,Test,User,-,,Recall,Recall2,1519,,0,-1,-1,0,0,,1
5e72cb7f4fabc9222100f9b8,arqx02ohvd,Nick_Dissertation_EX1,1,348,2020-06-02T09:25:36-07:00,2.1667721271515,4,versionC_stim.csv,READVersionD.csv,"Read Version D","Dissertation, read only version D",LATCH,KEY,Study1,F,36,83,Test,User,-,,Recall,Recall2,1824,key,100,1111,1678,1,1,,1
5e72cb7f4fabc9222100f9b8,arqx02ohvd,Nick_Dissertation_EX1,1,349,2020-06-02T09:25:37-07:00,1.4850389957428,4,versionC_stim.csv,READVersionD.csv,"Read Version D","Dissertation, read only version D",,,,,,0,Instruct,User,-,"You have completed this section. Please press Enter.",,Instruct7,1168,,,-1,-1,,,,1
