Username,ID,ExperimentName,Session,Trial,Date,TimeDif,"Condition Number","Stimuli File","Order File","Condition Description","Condition Notes",Stimuli*Cue,Stimuli*Answer,Stimuli*Shuffle,"Stimuli*Stimuli Notes",Stimuli*Value,Procedure*Item,"Procedure*Trial Type","Procedure*Max Time","Procedure*Min Time",Procedure*Text,"Procedure*Procedure Notes",Procedure*Shuffle,Response*RT,Response*Response,Response*Accuracy,Response*RTfirst,Response*RTlast,Response*strictAcc,Response*lenientAcc,Response*focus,Response*Focus
5e81eabc6db6e88e6b519e67,4gdjiy53ma,Nick_Dissertation_EX1,1,1,2020-06-02T09:05:16-07:00,12.060043096542,3,versionC_stim.csv,READVersionC.csv,"Read Version C","Dissertation, read only version C",,,,,,0,Instruct,-,10,"Please study each of the following word pairs. Remember that your memory will be tested! When finished, press Enter to move to the next pair.",Initial_Instruct,Instruct1,11818,,,-1,-1,,,,1
5e81eabc6db6e88e6b519e67,4gdjiy53ma,Nick_Dissertation_EX1,1,2,2020-06-02T09:05:19-07:00,2.710902929306,3,versionC_stim.csv,READVersionC.csv,"Read Version C","Dissertation, read only version C",CATCHER,BASEBALL,BUFFER1,Buffer,2,5,Study,User,-,,Study/JOL,BUFFER,2407,,,-1,-1,,,,1
5e81eabc6db6e88e6b519e67,4gdjiy53ma,Nick_Dissertation_EX1,1,3,2020-06-02T09:05:23-07:00,4.6290180683136,3,versionC_stim.csv,READVersionC.csv,"Read Version C","Dissertation, read only version C",HIDE,SCARE,BUFFER1,Buffer,4,2,Study,User,-,,Study/JOL,BUFFER,3354,,,-1,-1,,,,1
5e81eabc6db6e88e6b519e67,4gdjiy53ma,Nick_Dissertation_EX1,1,4,2020-06-02T09:05:25-07:00,1.4256269931793,3,versionC_stim.csv,READVersionC.csv,"Read Version C","Dissertation, read only version C",JAM,SPACE,BUFFER1,Buffer,5,3,Study,User,-,,Study/JOL,BUFFER,1156,,,-1,-1,,,,1
5e81eabc6db6e88e6b519e67,4gdjiy53ma,Nick_Dissertation_EX1,1,5,2020-06-02T09:05:27-07:00,2.5245540142059,3,versionC_stim.csv,READVersionC.csv,"Read Version C","Dissertation, read only version C",GREEN,TREES,BUFFER1,Buffer,1,4,Study,User,-,,Study/JOL,BUFFER,1243,,,-1,-1,,,,1
5e81eabc6db6e88e6b519e67,4gdjiy53ma,Nick_Dissertation_EX1,1,6,2020-06-02T09:05:29-07:00,1.2812299728394,3,versionC_stim.csv,READVersionC.csv,"Read Version C","Dissertation, read only version C",BUTTER,PEANUT,BUFFER1,Buffer,3,6,Study,User,-,,Study/JOL,BUFFER,1007,,,-1,-1,,,,1
5e81eabc6db6e88e6b519e67,4gdjiy53ma,Nick_Dissertation_EX1,1,7,2020-06-02T09:05:31-07:00,2.2600159645081,3,versionC_stim.csv,READVersionC.csv,"Read Version C","Dissertation, read only version C",HUNGRY,PARK,Study1,U,68,41,Study,User,-,,Study/JOL,"Study Phase",1953,,,-1,-1,,,,1
5e81eabc6db6e88e6b519e67,4gdjiy53ma,Nick_Dissertation_EX1,1,8,2020-06-02T09:05:33-07:00,2.1103920936584,3,versionC_stim.csv,READVersionC.csv,"Read Version C","Dissertation, read only version C",MONEY,WAGE,Study1,B,8,18,Study,User,-,,Study/JOL,"Study Phase",1844,,,-1,-1,,,,1
5e81eabc6db6e88e6b519e67,4gdjiy53ma,Nick_Dissertation_EX1,1,9,2020-06-02T09:05:35-07:00,2.237774848938,3,versionC_stim.csv,READVersionC.csv,"Read Version C","Dissertation, read only version C",TUCK,ALLOW,Study1,U,78,77,Study,User,-,,Study/JOL,"Study Phase",1891,,,-1,-1,,,,1
5e81eabc6db6e88e6b519e67,4gdjiy53ma,Nick_Dissertation_EX1,1,10,2020-06-02T09:05:37-07:00,1.7628440856934,3,versionC_stim.csv,READVersionC.csv,"Read Version C","Dissertation, read only version C",FISH,TUNA,Study1,B,25,73,Study,User,-,,Study/JOL,"Study Phase",1490,,,-1,-1,,,,1
5e81eabc6db6e88e6b519e67,4gdjiy53ma,Nick_Dissertation_EX1,1,11,2020-06-02T09:05:38-07:00,1.3718230724335,3,versionC_stim.csv,READVersionC.csv,"Read Version C","Dissertation, read only version C",COW,HERD,Study1,B,22,20,Study,User,-,,Study/JOL,"Study Phase",1102,,,-1,-1,,,,1
5e81eabc6db6e88e6b519e67,4gdjiy53ma,Nick_Dissertation_EX1,1,12,2020-06-02T09:05:40-07:00,1.7478818893433,3,versionC_stim.csv,READVersionC.csv,"Read Version C","Dissertation, read only version C",WASTE,DUMP,Study1,S,49,60,Study,User,-,,Study/JOL,"Study Phase",1480,,,-1,-1,,,,1
5e81eabc6db6e88e6b519e67,4gdjiy53ma,Nick_Dissertation_EX1,1,13,2020-06-02T09:05:42-07:00,1.7214741706848,3,versionC_stim.csv,READVersionC.csv,"Read Version C","Dissertation, read only version C",WIND,BLOW,Study1,S,55,19,Study,User,-,,Study/JOL,"Study Phase",1453,,,-1,-1,,,,1
5e81eabc6db6e88e6b519e67,4gdjiy53ma,Nick_Dissertation_EX1,1,14,2020-06-02T09:05:43-07:00,1.4328498840332,3,versionC_stim.csv,READVersionC.csv,"Read Version C","Dissertation, read only version C",CHILI,HOT,Study1,F,37,58,Study,User,-,,Study/JOL,"Study Phase",1097,,,-1,-1,,,,1
5e81eabc6db6e88e6b519e67,4gdjiy53ma,Nick_Dissertation_EX1,1,15,2020-06-02T09:05:45-07:00,1.412938117981,3,versionC_stim.csv,READVersionC.csv,"Read Version C","Dissertation, read only version C",ATTORNEY,LAW,Study1,F,34,30,Study,User,-,,Study/JOL,"Study Phase",1138,,,-1,-1,,,,1
5e81eabc6db6e88e6b519e67,4gdjiy53ma,Nick_Dissertation_EX1,1,16,2020-06-02T09:05:46-07:00,1.292778968811,3,versionC_stim.csv,READVersionC.csv,"Read Version C","Dissertation, read only version C",HAND,FIX,Study1,U,75,21,Study,User,-,,Study/JOL,"Study Phase",1019,,,-1,-1,,,,1
5e81eabc6db6e88e6b519e67,4gdjiy53ma,Nick_Dissertation_EX1,1,17,2020-06-02T09:05:47-07:00,1.280669927597,3,versionC_stim.csv,READVersionC.csv,"Read Version C","Dissertation, read only version C",PLANT,ROOT,Study1,B,13,17,Study,User,-,,Study/JOL,"Study Phase",1008,,,-1,-1,,,,1
5e81eabc6db6e88e6b519e67,4gdjiy53ma,Nick_Dissertation_EX1,1,18,2020-06-02T09:05:48-07:00,0.77131199836731,3,versionC_stim.csv,READVersionC.csv,"Read Version C","Dissertation, read only version C",POSITION,MACHINE,Study1,U,76,65,Study,User,-,,Study/JOL,"Study Phase",496,,,-1,-1,,,,1
5e81eabc6db6e88e6b519e67,4gdjiy53ma,Nick_Dissertation_EX1,1,19,2020-06-02T09:05:52-07:00,3.9426329135895,3,versionC_stim.csv,READVersionC.csv,"Read Version C","Dissertation, read only version C",ROUND,CIRCLE,Study1,S,65,8,Study,User,-,,Study/JOL,"Study Phase",972,,,-1,-1,,,,1
5e81eabc6db6e88e6b519e67,4gdjiy53ma,Nick_Dissertation_EX1,1,20,2020-06-02T09:05:54-07:00,2.0101611614227,3,versionC_stim.csv,READVersionC.csv,"Read Version C","Dissertation, read only version C",BAD,DELINQUENT,Study1,B,6,33,Study,User,-,,Study/JOL,"Study Phase",1723,,,-1,-1,,,,1
5e81eabc6db6e88e6b519e67,4gdjiy53ma,Nick_Dissertation_EX1,1,21,2020-06-02T09:05:56-07:00,1.6787919998169,3,versionC_stim.csv,READVersionC.csv,"Read Version C","Dissertation, read only version C",LION,ART,Study1,U,79,46,Study,User,-,,Study/JOL,"Study Phase",1414,,,-1,-1,,,,1
5e81eabc6db6e88e6b519e67,4gdjiy53ma,Nick_Dissertation_EX1,1,22,2020-06-02T09:05:58-07:00,2.1060609817505,3,versionC_stim.csv,READVersionC.csv,"Read Version C","Dissertation, read only version C",WOULD,CASH,Study1,U,83,40,Study,User,-,,Study/JOL,"Study Phase",1841,,,-1,-1,,,,1
5e81eabc6db6e88e6b519e67,4gdjiy53ma,Nick_Dissertation_EX1,1,23,2020-06-02T09:05:59-07:00,1.1966300010681,3,versionC_stim.csv,READVersionC.csv,"Read Version C","Dissertation, read only version C",DEFINITION,MEANING,Study1,S,62,53,Study,User,-,,Study/JOL,"Study Phase",931,,,-1,-1,,,,1
5e81eabc6db6e88e6b519e67,4gdjiy53ma,Nick_Dissertation_EX1,1,24,2020-06-02T09:06:00-07:00,1.0755989551544,3,versionC_stim.csv,READVersionC.csv,"Read Version C","Dissertation, read only version C",LATCH,KEY,Study1,F,36,48,Study,User,-,,Study/JOL,"Study Phase",815,,,-1,-1,,,,1
5e81eabc6db6e88e6b519e67,4gdjiy53ma,Nick_Dissertation_EX1,1,25,2020-06-02T09:06:01-07:00,0.91883587837219,3,versionC_stim.csv,READVersionC.csv,"Read Version C","Dissertation, read only version C",BIRD,SWAN,Study1,B,14,10,Study,User,-,,Study/JOL,"Study Phase",658,,,-1,-1,,,,1
5e81eabc6db6e88e6b519e67,4gdjiy53ma,Nick_Dissertation_EX1,1,26,2020-06-02T09:06:02-07:00,1.2263031005859,3,versionC_stim.csv,READVersionC.csv,"Read Version C","Dissertation, read only version C",NEWS,EDITOR,Study1,B,10,85,Study,User,-,,Study/JOL,"Study Phase",963,,,-1,-1,,,,1
5e81eabc6db6e88e6b519e67,4gdjiy53ma,Nick_Dissertation_EX1,1,27,2020-06-02T09:06:03-07:00,0.86053800582886,3,versionC_stim.csv,READVersionC.csv,"Read Version C","Dissertation, read only version C",ADD,VALLEY,Study1,U,82,23,Study,User,-,,Study/JOL,"Study Phase",586,,,-1,-1,,,,1
5e81eabc6db6e88e6b519e67,4gdjiy53ma,Nick_Dissertation_EX1,1,28,2020-06-02T09:06:04-07:00,1.3215000629425,3,versionC_stim.csv,READVersionC.csv,"Read Version C","Dissertation, read only version C",GROWTH,HEIGHT,Study1,F,30,13,Study,User,-,,Study/JOL,"Study Phase",1057,,,-1,-1,,,,1
5e81eabc6db6e88e6b519e67,4gdjiy53ma,Nick_Dissertation_EX1,1,29,2020-06-02T09:06:06-07:00,1.4061648845673,3,versionC_stim.csv,READVersionC.csv,"Read Version C","Dissertation, read only version C",ACCIDENT,STRONG,Study1,U,80,7,Study,User,-,,Study/JOL,"Study Phase",1132,,,-1,-1,,,,1
5e81eabc6db6e88e6b519e67,4gdjiy53ma,Nick_Dissertation_EX1,1,30,2020-06-02T09:06:07-07:00,1.0885939598083,3,versionC_stim.csv,READVersionC.csv,"Read Version C","Dissertation, read only version C",OUT,WAY,Study1,B,16,47,Study,User,-,,Study/JOL,"Study Phase",826,,,-1,-1,,,,1
5e81eabc6db6e88e6b519e67,4gdjiy53ma,Nick_Dissertation_EX1,1,31,2020-06-02T09:06:08-07:00,1.1331570148468,3,versionC_stim.csv,READVersionC.csv,"Read Version C","Dissertation, read only version C",CLUTTER,PUSHER,Study1,U,66,55,Study,User,-,,Study/JOL,"Study Phase",870,,,-1,-1,,,,1
5e81eabc6db6e88e6b519e67,4gdjiy53ma,Nick_Dissertation_EX1,1,32,2020-06-02T09:06:09-07:00,1.2846841812134,3,versionC_stim.csv,READVersionC.csv,"Read Version C","Dissertation, read only version C",SIP,DRINK,Study1,F,27,62,Study,User,-,,Study/JOL,"Study Phase",1016,,,-1,-1,,,,1
5e81eabc6db6e88e6b519e67,4gdjiy53ma,Nick_Dissertation_EX1,1,33,2020-06-02T09:06:12-07:00,3.2041158676147,3,versionC_stim.csv,READVersionC.csv,"Read Version C","Dissertation, read only version C",CARD,CREDIT,Study1,B,23,82,Study,User,-,,Study/JOL,"Study Phase",2842,,,-1,-1,,,,1
5e81eabc6db6e88e6b519e67,4gdjiy53ma,Nick_Dissertation_EX1,1,34,2020-06-02T09:06:15-07:00,2.244775056839,3,versionC_stim.csv,READVersionC.csv,"Read Version C","Dissertation, read only version C",VASE,KING,Study1,U,85,12,Study,User,-,,Study/JOL,"Study Phase",1931,,,-1,-1,,,,1
5e81eabc6db6e88e6b519e67,4gdjiy53ma,Nick_Dissertation_EX1,1,35,2020-06-02T09:06:18-07:00,3.5723559856415,3,versionC_stim.csv,READVersionC.csv,"Read Version C","Dissertation, read only version C",WAR,REVOLUTION,Study1,B,20,61,Study,User,-,,Study/JOL,"Study Phase",3212,,,-1,-1,,,,1
5e81eabc6db6e88e6b519e67,4gdjiy53ma,Nick_Dissertation_EX1,1,36,2020-06-02T09:06:22-07:00,3.5425100326538,3,versionC_stim.csv,READVersionC.csv,"Read Version C","Dissertation, read only version C",JURY,TRIAL,Study1,S,50,76,Study,User,-,,Study/JOL,"Study Phase",3272,,,-1,-1,,,,1
5e81eabc6db6e88e6b519e67,4gdjiy53ma,Nick_Dissertation_EX1,1,37,2020-06-02T09:06:25-07:00,3.3063468933105,3,versionC_stim.csv,READVersionC.csv,"Read Version C","Dissertation, read only version C",WOMAN,LIFT,Study1,U,69,16,Study,User,-,,Study/JOL,"Study Phase",3032,,,-1,-1,,,,1
5e81eabc6db6e88e6b519e67,4gdjiy53ma,Nick_Dissertation_EX1,1,38,2020-06-02T09:06:29-07:00,4.0852520465851,3,versionC_stim.csv,READVersionC.csv,"Read Version C","Dissertation, read only version C",STING,HORNET,Study1,B,11,56,Study,User,-,,Study/JOL,"Study Phase",1062,,,-1,-1,,,,1
5e81eabc6db6e88e6b519e67,4gdjiy53ma,Nick_Dissertation_EX1,1,39,2020-06-02T09:06:30-07:00,1.0619399547577,3,versionC_stim.csv,READVersionC.csv,"Read Version C","Dissertation, read only version C",AMOUNT,NUMBER,Study1,S,47,32,Study,User,-,,Study/JOL,"Study Phase",769,,,-1,-1,,,,1
5e81eabc6db6e88e6b519e67,4gdjiy53ma,Nick_Dissertation_EX1,1,40,2020-06-02T09:06:31-07:00,1.1113359928131,3,versionC_stim.csv,READVersionC.csv,"Read Version C","Dissertation, read only version C",HAMMER,CHISEL,Study1,B,9,71,Study,User,-,,Study/JOL,"Study Phase",845,,,-1,-1,,,,1
5e81eabc6db6e88e6b519e67,4gdjiy53ma,Nick_Dissertation_EX1,1,41,2020-06-02T09:06:34-07:00,2.265545129776,3,versionC_stim.csv,READVersionC.csv,"Read Version C","Dissertation, read only version C",ATTIRE,CLOTHES,Study1,F,43,79,Study,User,-,,Study/JOL,"Study Phase",1998,,,-1,-1,,,,1
5e81eabc6db6e88e6b519e67,4gdjiy53ma,Nick_Dissertation_EX1,1,42,2020-06-02T09:06:35-07:00,1.6945478916168,3,versionC_stim.csv,READVersionC.csv,"Read Version C","Dissertation, read only version C",RIDDLE,SUGAR,Study1,U,81,74,Study,User,-,,Study/JOL,"Study Phase",1421,,,-1,-1,,,,1
5e81eabc6db6e88e6b519e67,4gdjiy53ma,Nick_Dissertation_EX1,1,43,2020-06-02T09:06:37-07:00,1.7354550361633,3,versionC_stim.csv,READVersionC.csv,"Read Version C","Dissertation, read only version C",STOMACH,DIGESTION,Study1,B,7,72,Study,User,-,,Study/JOL,"Study Phase",1464,,,-1,-1,,,,1
5e81eabc6db6e88e6b519e67,4gdjiy53ma,Nick_Dissertation_EX1,1,44,2020-06-02T09:06:38-07:00,1.4735810756683,3,versionC_stim.csv,READVersionC.csv,"Read Version C","Dissertation, read only version C",BEE,HONEY,Study1,S,63,78,Study,User,-,,Study/JOL,"Study Phase",1202,,,-1,-1,,,,1
5e81eabc6db6e88e6b519e67,4gdjiy53ma,Nick_Dissertation_EX1,1,45,2020-06-02T09:06:40-07:00,1.349378824234,3,versionC_stim.csv,READVersionC.csv,"Read Version C","Dissertation, read only version C",COLD,BITTER,Study1,B,12,35,Study,User,-,,Study/JOL,"Study Phase",1086,,,-1,-1,,,,1
5e81eabc6db6e88e6b519e67,4gdjiy53ma,Nick_Dissertation_EX1,1,46,2020-06-02T09:06:43-07:00,3.0494492053986,3,versionC_stim.csv,READVersionC.csv,"Read Version C","Dissertation, read only version C",CAR,HAPPY,Study1,U,77,44,Study,User,-,,Study/JOL,"Study Phase",2779,,,-1,-1,,,,1
5e81eabc6db6e88e6b519e67,4gdjiy53ma,Nick_Dissertation_EX1,1,47,2020-06-02T09:06:44-07:00,1.3912129402161,3,versionC_stim.csv,READVersionC.csv,"Read Version C","Dissertation, read only version C",STENCH,SMELL,Study1,F,42,11,Study,User,-,,Study/JOL,"Study Phase",1128,,,-1,-1,,,,1
5e81eabc6db6e88e6b519e67,4gdjiy53ma,Nick_Dissertation_EX1,1,48,2020-06-02T09:06:46-07:00,1.5751328468323,3,versionC_stim.csv,READVersionC.csv,"Read Version C","Dissertation, read only version C",FANTASTIC,GREAT,Study1,F,35,25,Study,User,-,,Study/JOL,"Study Phase",1312,,,-1,-1,,,,1
5e81eabc6db6e88e6b519e67,4gdjiy53ma,Nick_Dissertation_EX1,1,49,2020-06-02T09:06:48-07:00,2.3245420455933,3,versionC_stim.csv,READVersionC.csv,"Read Version C","Dissertation, read only version C",FAMINE,HUNGER,Study1,F,40,24,Study,User,-,,Study/JOL,"Study Phase",2063,,,-1,-1,,,,1
5e81eabc6db6e88e6b519e67,4gdjiy53ma,Nick_Dissertation_EX1,1,50,2020-06-02T09:06:50-07:00,1.4387011528015,3,versionC_stim.csv,READVersionC.csv,"Read Version C","Dissertation, read only version C",SACKING,DIETARY,Study1,U,67,70,Study,User,-,,Study/JOL,"Study Phase",1178,,,-1,-1,,,,1
5e81eabc6db6e88e6b519e67,4gdjiy53ma,Nick_Dissertation_EX1,1,51,2020-06-02T09:06:50-07:00,0.8803927898407,3,versionC_stim.csv,READVersionC.csv,"Read Version C","Dissertation, read only version C",BUSINESS,DEATH,Study1,U,72,34,Study,User,-,,Study/JOL,"Study Phase",592,,,-1,-1,,,,1
5e81eabc6db6e88e6b519e67,4gdjiy53ma,Nick_Dissertation_EX1,1,52,2020-06-02T09:06:52-07:00,1.2307291030884,3,versionC_stim.csv,READVersionC.csv,"Read Version C","Dissertation, read only version C",DOG,PAW,Study1,B,15,51,Study,User,-,,Study/JOL,"Study Phase",959,,,-1,-1,,,,1
5e81eabc6db6e88e6b519e67,4gdjiy53ma,Nick_Dissertation_EX1,1,53,2020-06-02T09:06:53-07:00,0.79068303108215,3,versionC_stim.csv,READVersionC.csv,"Read Version C","Dissertation, read only version C",FUTURE,PAST,Study1,S,61,22,Study,User,-,,Study/JOL,"Study Phase",523,,,-1,-1,,,,1
5e81eabc6db6e88e6b519e67,4gdjiy53ma,Nick_Dissertation_EX1,1,54,2020-06-02T09:06:53-07:00,0.8439359664917,3,versionC_stim.csv,READVersionC.csv,"Read Version C","Dissertation, read only version C",WORD,SENTENCE,Study1,F,31,31,Study,User,-,,Study/JOL,"Study Phase",574,,,-1,-1,,,,1
5e81eabc6db6e88e6b519e67,4gdjiy53ma,Nick_Dissertation_EX1,1,55,2020-06-02T09:06:54-07:00,0.68254709243774,3,versionC_stim.csv,READVersionC.csv,"Read Version C","Dissertation, read only version C",TALK,DISCUSSION,Study1,B,21,26,Study,User,-,,Study/JOL,"Study Phase",411,,,-1,-1,,,,1
5e81eabc6db6e88e6b519e67,4gdjiy53ma,Nick_Dissertation_EX1,1,56,2020-06-02T09:06:55-07:00,0.72623682022095,3,versionC_stim.csv,READVersionC.csv,"Read Version C","Dissertation, read only version C",DESIGN,ARCHITECTURE,Study1,S,51,83,Study,User,-,,Study/JOL,"Study Phase",457,,,-1,-1,,,,1
5e81eabc6db6e88e6b519e67,4gdjiy53ma,Nick_Dissertation_EX1,1,57,2020-06-02T09:06:55-07:00,0.58216619491577,3,versionC_stim.csv,READVersionC.csv,"Read Version C","Dissertation, read only version C",FLOWER,ORCHID,Study1,B,24,27,Study,User,-,,Study/JOL,"Study Phase",275,,,-1,-1,,,,1
5e81eabc6db6e88e6b519e67,4gdjiy53ma,Nick_Dissertation_EX1,1,58,2020-06-02T09:06:56-07:00,0.60358786582947,3,versionC_stim.csv,READVersionC.csv,"Read Version C","Dissertation, read only version C",SIGHT,DEBATE,Study1,U,73,64,Study,User,-,,Study/JOL,"Study Phase",339,,,-1,-1,,,,1
5e81eabc6db6e88e6b519e67,4gdjiy53ma,Nick_Dissertation_EX1,1,59,2020-06-02T09:06:57-07:00,0.55883312225342,3,versionC_stim.csv,READVersionC.csv,"Read Version C","Dissertation, read only version C",RACKET,BALL,Study1,F,38,36,Study,User,-,,Study/JOL,"Study Phase",294,,,-1,-1,,,,1
5e81eabc6db6e88e6b519e67,4gdjiy53ma,Nick_Dissertation_EX1,1,60,2020-06-02T09:06:57-07:00,0.44165182113647,3,versionC_stim.csv,READVersionC.csv,"Read Version C","Dissertation, read only version C",SEIZE,TAKE,Study1,F,29,49,Study,User,-,,Study/JOL,"Study Phase",168,,,-1,-1,,,,1
5e81eabc6db6e88e6b519e67,4gdjiy53ma,Nick_Dissertation_EX1,1,61,2020-06-02T09:06:57-07:00,0.38154220581055,3,versionC_stim.csv,READVersionC.csv,"Read Version C","Dissertation, read only version C",END,BEGIN,Study1,S,54,66,Study,User,-,,Study/JOL,"Study Phase",112,,,-1,-1,,,,1
5e81eabc6db6e88e6b519e67,4gdjiy53ma,Nick_Dissertation_EX1,1,62,2020-06-02T09:06:58-07:00,0.37654280662537,3,versionC_stim.csv,READVersionC.csv,"Read Version C","Dissertation, read only version C",CHORE,WORK,Study1,F,39,38,Study,User,-,,Study/JOL,"Study Phase",107,,,-1,-1,,,,1
5e81eabc6db6e88e6b519e67,4gdjiy53ma,Nick_Dissertation_EX1,1,63,2020-06-02T09:06:58-07:00,0.5529260635376,3,versionC_stim.csv,READVersionC.csv,"Read Version C","Dissertation, read only version C",FLOOR,DISCOVER,Study1,U,71,37,Study,User,-,,Study/JOL,"Study Phase",278,,,-1,-1,,,,1
5e81eabc6db6e88e6b519e67,4gdjiy53ma,Nick_Dissertation_EX1,1,64,2020-06-02T09:06:59-07:00,0.788743019104,3,versionC_stim.csv,READVersionC.csv,"Read Version C","Dissertation, read only version C",BELT,SOON,Study1,U,70,80,Study,User,-,,Study/JOL,"Study Phase",512,,,-1,-1,,,,1
5e81eabc6db6e88e6b519e67,4gdjiy53ma,Nick_Dissertation_EX1,1,65,2020-06-02T09:07:00-07:00,0.59152412414551,3,versionC_stim.csv,READVersionC.csv,"Read Version C","Dissertation, read only version C",SITE,LOCATION,Study1,S,48,59,Study,User,-,,Study/JOL,"Study Phase",324,,,-1,-1,,,,1
5e81eabc6db6e88e6b519e67,4gdjiy53ma,Nick_Dissertation_EX1,1,66,2020-06-02T09:07:00-07:00,0.54631781578064,3,versionC_stim.csv,READVersionC.csv,"Read Version C","Dissertation, read only version C",LIVER,KIDNEY,Study1,S,53,57,Study,User,-,,Study/JOL,"Study Phase",279,,,-1,-1,,,,1
5e81eabc6db6e88e6b519e67,4gdjiy53ma,Nick_Dissertation_EX1,1,67,2020-06-02T09:07:01-07:00,0.69633817672729,3,versionC_stim.csv,READVersionC.csv,"Read Version C","Dissertation, read only version C",ROCK,GEOLOGY,Study1,B,19,75,Study,User,-,,Study/JOL,"Study Phase",423,,,-1,-1,,,,1
5e81eabc6db6e88e6b519e67,4gdjiy53ma,Nick_Dissertation_EX1,1,68,2020-06-02T09:07:02-07:00,0.65926885604858,3,versionC_stim.csv,READVersionC.csv,"Read Version C","Dissertation, read only version C",BRONZE,ARTERY,Study1,U,74,84,Study,User,-,,Study/JOL,"Study Phase",389,,,-1,-1,,,,1
5e81eabc6db6e88e6b519e67,4gdjiy53ma,Nick_Dissertation_EX1,1,69,2020-06-02T09:07:02-07:00,0.69039702415466,3,versionC_stim.csv,READVersionC.csv,"Read Version C","Dissertation, read only version C",CHILD,BABY,Study1,S,64,69,Study,User,-,,Study/JOL,"Study Phase",412,,,-1,-1,,,,1
5e81eabc6db6e88e6b519e67,4gdjiy53ma,Nick_Dissertation_EX1,1,70,2020-06-02T09:07:03-07:00,0.53074908256531,3,versionC_stim.csv,READVersionC.csv,"Read Version C","Dissertation, read only version C",CHEESE,WINE,Study1,S,57,52,Study,User,-,,Study/JOL,"Study Phase",263,,,-1,-1,,,,1
5e81eabc6db6e88e6b519e67,4gdjiy53ma,Nick_Dissertation_EX1,1,71,2020-06-02T09:07:03-07:00,0.59743404388428,3,versionC_stim.csv,READVersionC.csv,"Read Version C","Dissertation, read only version C",SODA,POP,Study1,S,56,54,Study,User,-,,Study/JOL,"Study Phase",310,,,-1,-1,,,,1
5e81eabc6db6e88e6b519e67,4gdjiy53ma,Nick_Dissertation_EX1,1,72,2020-06-02T09:07:04-07:00,0.50044178962708,3,versionC_stim.csv,READVersionC.csv,"Read Version C","Dissertation, read only version C",BLAZE,FIRE,Study1,F,45,86,Study,User,-,,Study/JOL,"Study Phase",226,,,-1,-1,,,,1
5e81eabc6db6e88e6b519e67,4gdjiy53ma,Nick_Dissertation_EX1,1,73,2020-06-02T09:07:04-07:00,0.43532514572144,3,versionC_stim.csv,READVersionC.csv,"Read Version C","Dissertation, read only version C",DIVISION,MATH,Study1,F,33,29,Study,User,-,,Study/JOL,"Study Phase",167,,,-1,-1,,,,1
5e81eabc6db6e88e6b519e67,4gdjiy53ma,Nick_Dissertation_EX1,1,74,2020-06-02T09:07:05-07:00,0.51215100288391,3,versionC_stim.csv,READVersionC.csv,"Read Version C","Dissertation, read only version C",PILOT,PLANE,Study1,F,44,9,Study,User,-,,Study/JOL,"Study Phase",248,,,-1,-1,,,,1
5e81eabc6db6e88e6b519e67,4gdjiy53ma,Nick_Dissertation_EX1,1,75,2020-06-02T09:07:05-07:00,0.57488393783569,3,versionC_stim.csv,READVersionC.csv,"Read Version C","Dissertation, read only version C",BAR,GRILL,Study1,S,52,63,Study,User,-,,Study/JOL,"Study Phase",309,,,-1,-1,,,,1
5e81eabc6db6e88e6b519e67,4gdjiy53ma,Nick_Dissertation_EX1,1,76,2020-06-02T09:07:06-07:00,0.44063210487366,3,versionC_stim.csv,READVersionC.csv,"Read Version C","Dissertation, read only version C",DROWSY,SLEEP,Study1,F,41,81,Study,User,-,,Study/JOL,"Study Phase",173,,,-1,-1,,,,1
5e81eabc6db6e88e6b519e67,4gdjiy53ma,Nick_Dissertation_EX1,1,77,2020-06-02T09:07:06-07:00,0.50791883468628,3,versionC_stim.csv,READVersionC.csv,"Read Version C","Dissertation, read only version C",FOOT,SHOE,Study1,S,60,45,Study,User,-,,Study/JOL,"Study Phase",244,,,-1,-1,,,,1
5e81eabc6db6e88e6b519e67,4gdjiy53ma,Nick_Dissertation_EX1,1,78,2020-06-02T09:07:07-07:00,0.34958815574646,3,versionC_stim.csv,READVersionC.csv,"Read Version C","Dissertation, read only version C",TOILET,BATHROOM,Study1,S,58,42,Study,User,-,,Study/JOL,"Study Phase",87,,,-1,-1,,,,1
5e81eabc6db6e88e6b519e67,4gdjiy53ma,Nick_Dissertation_EX1,1,79,2020-06-02T09:07:07-07:00,0.37083387374878,3,versionC_stim.csv,READVersionC.csv,"Read Version C","Dissertation, read only version C",SICK,HIDE,Study1,U,84,67,Study,User,-,,Study/JOL,"Study Phase",109,,,-1,-1,,,,1
5e81eabc6db6e88e6b519e67,4gdjiy53ma,Nick_Dissertation_EX1,1,80,2020-06-02T09:07:08-07:00,0.52993297576904,3,versionC_stim.csv,READVersionC.csv,"Read Version C","Dissertation, read only version C",SALAD,LETTUCE,Study1,S,59,39,Study,User,-,,Study/JOL,"Study Phase",262,,,-1,-1,,,,1
5e81eabc6db6e88e6b519e67,4gdjiy53ma,Nick_Dissertation_EX1,1,81,2020-06-02T09:07:08-07:00,0.34772109985352,3,versionC_stim.csv,READVersionC.csv,"Read Version C","Dissertation, read only version C",CAVE,DARK,Study1,F,28,28,Study,User,-,,Study/JOL,"Study Phase",79,,,-1,-1,,,,1
5e81eabc6db6e88e6b519e67,4gdjiy53ma,Nick_Dissertation_EX1,1,82,2020-06-02T09:07:08-07:00,0.42096996307373,3,versionC_stim.csv,READVersionC.csv,"Read Version C","Dissertation, read only version C",WASP,BUG,Study1,F,32,14,Study,User,-,,Study/JOL,"Study Phase",154,,,-1,-1,,,,1
5e81eabc6db6e88e6b519e67,4gdjiy53ma,Nick_Dissertation_EX1,1,83,2020-06-02T09:07:09-07:00,0.36690402030945,3,versionC_stim.csv,READVersionC.csv,"Read Version C","Dissertation, read only version C",ENOUGH,FULL,Study1,F,26,50,Study,User,-,,Study/JOL,"Study Phase",101,,,-1,-1,,,,1
5e81eabc6db6e88e6b519e67,4gdjiy53ma,Nick_Dissertation_EX1,1,84,2020-06-02T09:07:09-07:00,0.41011095046997,3,versionC_stim.csv,READVersionC.csv,"Read Version C","Dissertation, read only version C",WATER,BRIDGE,Study1,B,18,43,Study,User,-,,Study/JOL,"Study Phase",142,,,-1,-1,,,,1
5e81eabc6db6e88e6b519e67,4gdjiy53ma,Nick_Dissertation_EX1,1,85,2020-06-02T09:07:10-07:00,0.68573904037476,3,versionC_stim.csv,READVersionC.csv,"Read Version C","Dissertation, read only version C",CLEAN,HYGIENE,Study1,B,17,15,Study,User,-,,Study/JOL,"Study Phase",414,,,-1,-1,,,,1
5e81eabc6db6e88e6b519e67,4gdjiy53ma,Nick_Dissertation_EX1,1,86,2020-06-02T09:07:11-07:00,0.90568494796753,3,versionC_stim.csv,READVersionC.csv,"Read Version C","Dissertation, read only version C",ASSIGNMENT,DUE,Study1,S,46,68,Study,User,-,,Study/JOL,"Study Phase",582,,,-1,-1,,,,1
5e81eabc6db6e88e6b519e67,4gdjiy53ma,Nick_Dissertation_EX1,1,87,2020-06-02T09:07:11-07:00,0.77252602577209,3,versionC_stim.csv,READVersionC.csv,"Read Version C","Dissertation, read only version C",STUFF,THING,BUFFER2,Buffer,90,90,Study,User,-,,Study/JOL,BUFFER2,504,,,-1,-1,,,,1
5e81eabc6db6e88e6b519e67,4gdjiy53ma,Nick_Dissertation_EX1,1,88,2020-06-02T09:07:12-07:00,0.58959412574768,3,versionC_stim.csv,READVersionC.csv,"Read Version C","Dissertation, read only version C",CHOCOLATE,MALT,BUFFER2,Buffer,88,88,Study,User,-,,Study/JOL,BUFFER2,319,,,-1,-1,,,,1
5e81eabc6db6e88e6b519e67,4gdjiy53ma,Nick_Dissertation_EX1,1,89,2020-06-02T09:07:13-07:00,0.55131387710571,3,versionC_stim.csv,READVersionC.csv,"Read Version C","Dissertation, read only version C",POLICE,SHERRIF,BUFFER2,Buffer,87,87,Study,User,-,,Study/JOL,BUFFER2,280,,,-1,-1,,,,1
5e81eabc6db6e88e6b519e67,4gdjiy53ma,Nick_Dissertation_EX1,1,90,2020-06-02T09:07:13-07:00,0.51470112800598,3,versionC_stim.csv,READVersionC.csv,"Read Version C","Dissertation, read only version C",SPACE,MOON,BUFFER2,Buffer,89,89,Study,User,-,,Study/JOL,BUFFER2,244,,,-1,-1,,,,1
5e81eabc6db6e88e6b519e67,4gdjiy53ma,Nick_Dissertation_EX1,1,91,2020-06-02T09:07:14-07:00,0.57287287712097,3,versionC_stim.csv,READVersionC.csv,"Read Version C","Dissertation, read only version C",GOOSE,GEESE,BUFFER2,Buffer,86,91,Study,User,-,,Study/JOL,BUFFER2,304,,,-1,-1,,,,1
5e81eabc6db6e88e6b519e67,4gdjiy53ma,Nick_Dissertation_EX1,1,92,2020-06-02T09:07:17-07:00,2.8716719150543,3,versionC_stim.csv,READVersionC.csv,"Read Version C","Dissertation, read only version C",,,,,,0,Instruct,User,-,"You have completed this section. Please press Enter.",Filler_Instruction,Instruct2,2600,,,-1,-1,,,,1
5e81eabc6db6e88e6b519e67,4gdjiy53ma,Nick_Dissertation_EX1,1,93,2020-06-02T09:09:17-07:00,120.38445019722,3,versionC_stim.csv,READVersionC.csv,"Read Version C","Dissertation, read only version C",,,,,,0,FreeRecall,120,120,"Please list the 50 US states in alphabetical order. The task will automatically advance to the next screen after two minutes.",,Filler1,120002,"Alabama Alaska Arizona Arkansas California Colorado Connecticut Delaware Florida Georgia Hawaii Idaho IllinoisIndiana Iowa Kansas Kentucky Louisiana Maine Maryland Massachusetts Michigan Minnesota Mississippi Missouri MontanaNebraska Nevada New Hampshire New Jersey New Mexico New York North Carolina North Dakota Ohio Oklahoma Oregon PennsylvaniaRhode Island South Carolina South Dakota Tennessee Texas Utah Vermont Virginia Washington West Virginia Wisconsin Wyoming ",0,24415,67119,0,0,,0.779
5e81eabc6db6e88e6b519e67,4gdjiy53ma,Nick_Dissertation_EX1,1,94,2020-06-02T09:09:28-07:00,11.242759943008,3,versionC_stim.csv,READVersionC.csv,"Read Version C","Dissertation, read only version C",,,,,,0,Instruct,-,10,"You will now be presented with the first word from each of the previously studied item pairs. Please type the missing word. If you do not know the word, you may guess or press Enter to skip forward to the next pair.",,Instruct3,10855,,,-1,-1,,,,1
5e81eabc6db6e88e6b519e67,4gdjiy53ma,Nick_Dissertation_EX1,1,95,2020-06-02T09:09:34-07:00,5.5622389316559,3,versionC_stim.csv,READVersionC.csv,"Read Version C","Dissertation, read only version C",DOG,PAW,Study1,B,15,51,Test,User,-,,Recall,Recall1,5289,pet,33.333333333333,4119,4496,0,0,,1
5e81eabc6db6e88e6b519e67,4gdjiy53ma,Nick_Dissertation_EX1,1,96,2020-06-02T09:09:38-07:00,4.1474781036377,3,versionC_stim.csv,READVersionC.csv,"Read Version C","Dissertation, read only version C",CARD,CREDIT,Study1,B,23,82,Test,User,-,,Recall,Recall1,3877,happy,0,2889,3628,0,0,,1
5e81eabc6db6e88e6b519e67,4gdjiy53ma,Nick_Dissertation_EX1,1,97,2020-06-02T09:09:42-07:00,4.3431029319763,3,versionC_stim.csv,READVersionC.csv,"Read Version C","Dissertation, read only version C",SITE,LOCATION,Study1,S,48,59,Test,User,-,,Recall,Recall1,4068,,0,-1,-1,0,0,,1
5e81eabc6db6e88e6b519e67,4gdjiy53ma,Nick_Dissertation_EX1,1,98,2020-06-02T09:09:49-07:00,7.0144588947296,3,versionC_stim.csv,READVersionC.csv,"Read Version C","Dissertation, read only version C",CLUTTER,PUSHER,Study1,U,66,55,Test,User,-,,Recall,Recall1,6738,rubbish,46.153846153846,4473,5719,0,0,,1
5e81eabc6db6e88e6b519e67,4gdjiy53ma,Nick_Dissertation_EX1,1,99,2020-06-02T09:09:52-07:00,2.4932541847229,3,versionC_stim.csv,READVersionC.csv,"Read Version C","Dissertation, read only version C",TUCK,ALLOW,Study1,U,78,77,Test,User,-,,Recall,Recall1,2216,,0,-1,-1,0,0,,1
5e81eabc6db6e88e6b519e67,4gdjiy53ma,Nick_Dissertation_EX1,1,100,2020-06-02T09:09:56-07:00,3.9961829185486,3,versionC_stim.csv,READVersionC.csv,"Read Version C","Dissertation, read only version C",LIVER,KIDNEY,Study1,S,53,57,Test,User,-,,Recall,Recall1,3730,health,16.666666666667,2075,2674,0,0,,1
5e81eabc6db6e88e6b519e67,4gdjiy53ma,Nick_Dissertation_EX1,1,101,2020-06-02T09:09:59-07:00,3.632719039917,3,versionC_stim.csv,READVersionC.csv,"Read Version C","Dissertation, read only version C",LION,ART,Study1,U,79,46,Test,User,-,,Recall,Recall1,3360,art,100,2025,2479,1,1,,1
5e81eabc6db6e88e6b519e67,4gdjiy53ma,Nick_Dissertation_EX1,1,102,2020-06-02T09:10:03-07:00,3.3224258422852,3,versionC_stim.csv,READVersionC.csv,"Read Version C","Dissertation, read only version C",FUTURE,PAST,Study1,S,61,22,Test,User,-,,Recall,Recall1,3047,past,100,1902,2667,1,1,,1
5e81eabc6db6e88e6b519e67,4gdjiy53ma,Nick_Dissertation_EX1,1,103,2020-06-02T09:10:05-07:00,2.1162722110748,3,versionC_stim.csv,READVersionC.csv,"Read Version C","Dissertation, read only version C",DEFINITION,MEANING,Study1,S,62,53,Test,User,-,,Recall,Recall1,1812,,0,-1,-1,0,0,,1
5e81eabc6db6e88e6b519e67,4gdjiy53ma,Nick_Dissertation_EX1,1,104,2020-06-02T09:10:07-07:00,1.8603029251099,3,versionC_stim.csv,READVersionC.csv,"Read Version C","Dissertation, read only version C",WORD,SENTENCE,Study1,F,31,31,Test,User,-,,Recall,Recall1,1585,,0,-1,-1,0,0,,1
5e81eabc6db6e88e6b519e67,4gdjiy53ma,Nick_Dissertation_EX1,1,105,2020-06-02T09:10:09-07:00,2.2492799758911,3,versionC_stim.csv,READVersionC.csv,"Read Version C","Dissertation, read only version C",CHILD,BABY,Study1,S,64,69,Test,User,-,,Recall,Recall1,1910,,0,-1,-1,0,0,,1
5e81eabc6db6e88e6b519e67,4gdjiy53ma,Nick_Dissertation_EX1,1,106,2020-06-02T09:10:12-07:00,2.6922988891602,3,versionC_stim.csv,READVersionC.csv,"Read Version C","Dissertation, read only version C",HAND,FIX,Study1,U,75,21,Test,User,-,,Recall,Recall1,2328,,0,-1,-1,0,0,,1
5e81eabc6db6e88e6b519e67,4gdjiy53ma,Nick_Dissertation_EX1,1,107,2020-06-02T09:10:16-07:00,3.8546640872955,3,versionC_stim.csv,READVersionC.csv,"Read Version C","Dissertation, read only version C",PILOT,PLANE,Study1,F,44,9,Test,User,-,,Recall,Recall1,3583,plane,100,2049,2670,1,1,,1
5e81eabc6db6e88e6b519e67,4gdjiy53ma,Nick_Dissertation_EX1,1,108,2020-06-02T09:10:20-07:00,4.3863399028778,3,versionC_stim.csv,READVersionC.csv,"Read Version C","Dissertation, read only version C",FANTASTIC,GREAT,Study1,F,35,25,Test,User,-,,Recall,Recall1,4109,,0,-1,-1,0,0,,1
5e81eabc6db6e88e6b519e67,4gdjiy53ma,Nick_Dissertation_EX1,1,109,2020-06-02T09:10:22-07:00,2.2940540313721,3,versionC_stim.csv,READVersionC.csv,"Read Version C","Dissertation, read only version C",WOULD,CASH,Study1,U,83,40,Test,User,-,,Recall,Recall1,2018,,0,-1,-1,0,0,,1
5e81eabc6db6e88e6b519e67,4gdjiy53ma,Nick_Dissertation_EX1,1,110,2020-06-02T09:10:27-07:00,4.6700971126556,3,versionC_stim.csv,READVersionC.csv,"Read Version C","Dissertation, read only version C",DROWSY,SLEEP,Study1,F,41,81,Test,User,-,,Recall,Recall1,4392,tired,20,2824,3874,0,0,,1
5e81eabc6db6e88e6b519e67,4gdjiy53ma,Nick_Dissertation_EX1,1,111,2020-06-02T09:10:29-07:00,2.554839849472,3,versionC_stim.csv,READVersionC.csv,"Read Version C","Dissertation, read only version C",ACCIDENT,STRONG,Study1,U,80,7,Test,User,-,,Recall,Recall1,2283,,0,-1,-1,0,0,,1
5e81eabc6db6e88e6b519e67,4gdjiy53ma,Nick_Dissertation_EX1,1,112,2020-06-02T09:10:31-07:00,1.8216071128845,3,versionC_stim.csv,READVersionC.csv,"Read Version C","Dissertation, read only version C",ROUND,CIRCLE,Study1,S,65,8,Test,User,-,,Recall,Recall1,1548,,0,-1,-1,0,0,,1
5e81eabc6db6e88e6b519e67,4gdjiy53ma,Nick_Dissertation_EX1,1,113,2020-06-02T09:10:33-07:00,1.7330279350281,3,versionC_stim.csv,READVersionC.csv,"Read Version C","Dissertation, read only version C",BELT,SOON,Study1,U,70,80,Test,User,-,,Recall,Recall1,1453,,0,-1,-1,0,0,,1
5e81eabc6db6e88e6b519e67,4gdjiy53ma,Nick_Dissertation_EX1,1,114,2020-06-02T09:10:37-07:00,3.8673861026764,3,versionC_stim.csv,READVersionC.csv,"Read Version C","Dissertation, read only version C",ATTIRE,CLOTHES,Study1,F,43,79,Test,User,-,,Recall,Recall1,3600,cloths,92.307692307692,1856,2795,0,1,,1
5e81eabc6db6e88e6b519e67,4gdjiy53ma,Nick_Dissertation_EX1,1,115,2020-06-02T09:10:39-07:00,1.9277708530426,3,versionC_stim.csv,READVersionC.csv,"Read Version C","Dissertation, read only version C",FLOOR,DISCOVER,Study1,U,71,37,Test,User,-,,Recall,Recall1,1661,,0,-1,-1,0,0,,1
5e81eabc6db6e88e6b519e67,4gdjiy53ma,Nick_Dissertation_EX1,1,116,2020-06-02T09:10:43-07:00,4.3920941352844,3,versionC_stim.csv,READVersionC.csv,"Read Version C","Dissertation, read only version C",PLANT,ROOT,Study1,B,13,17,Test,User,-,,Recall,Recall1,4119,earth,44.444444444444,2660,3385,0,0,,1
5e81eabc6db6e88e6b519e67,4gdjiy53ma,Nick_Dissertation_EX1,1,117,2020-06-02T09:10:48-07:00,4.3693730831146,3,versionC_stim.csv,READVersionC.csv,"Read Version C","Dissertation, read only version C",WIND,BLOW,Study1,S,55,19,Test,User,-,,Recall,Recall1,4101,,0,-1,-1,0,0,,1
5e81eabc6db6e88e6b519e67,4gdjiy53ma,Nick_Dissertation_EX1,1,118,2020-06-02T09:10:52-07:00,4.5717148780823,3,versionC_stim.csv,READVersionC.csv,"Read Version C","Dissertation, read only version C",RIDDLE,SUGAR,Study1,U,81,74,Test,User,-,,Recall,Recall1,4295,problem,16.666666666667,2546,3523,0,0,,1
5e81eabc6db6e88e6b519e67,4gdjiy53ma,Nick_Dissertation_EX1,1,119,2020-06-02T09:10:54-07:00,2.0406680107117,3,versionC_stim.csv,READVersionC.csv,"Read Version C","Dissertation, read only version C",CHORE,WORK,Study1,F,39,38,Test,User,-,,Recall,Recall1,1761,,0,-1,-1,0,0,,1
5e81eabc6db6e88e6b519e67,4gdjiy53ma,Nick_Dissertation_EX1,1,120,2020-06-02T09:10:59-07:00,4.7802119255066,3,versionC_stim.csv,READVersionC.csv,"Read Version C","Dissertation, read only version C",HAMMER,CHISEL,Study1,B,9,71,Test,User,-,,Recall,Recall1,4507,build,36.363636363636,2350,3343,0,0,,1
5e81eabc6db6e88e6b519e67,4gdjiy53ma,Nick_Dissertation_EX1,1,121,2020-06-02T09:11:04-07:00,5.3705861568451,3,versionC_stim.csv,READVersionC.csv,"Read Version C","Dissertation, read only version C",BUSINESS,DEATH,Study1,U,72,34,Test,User,-,,Recall,Recall1,5095,money,20,3194,3958,0,0,,1
5e81eabc6db6e88e6b519e67,4gdjiy53ma,Nick_Dissertation_EX1,1,122,2020-06-02T09:11:20-07:00,15.517558813095,3,versionC_stim.csv,READVersionC.csv,"Read Version C","Dissertation, read only version C",GROWTH,HEIGHT,Study1,F,30,13,Test,User,-,,Recall,Recall1,15154,hight,90.909090909091,3320,14442,0,1,,1
5e81eabc6db6e88e6b519e67,4gdjiy53ma,Nick_Dissertation_EX1,1,123,2020-06-02T09:11:22-07:00,2.5877010822296,3,versionC_stim.csv,READVersionC.csv,"Read Version C","Dissertation, read only version C",FLOWER,ORCHID,Study1,B,24,27,Test,User,-,,Recall,Recall1,2310,,0,-1,-1,0,0,,1
5e81eabc6db6e88e6b519e67,4gdjiy53ma,Nick_Dissertation_EX1,1,124,2020-06-02T09:11:26-07:00,3.3956570625305,3,versionC_stim.csv,READVersionC.csv,"Read Version C","Dissertation, read only version C",WATER,BRIDGE,Study1,B,18,43,Test,User,-,,Recall,Recall1,2122,,0,-1,-1,0,0,,1
5e81eabc6db6e88e6b519e67,4gdjiy53ma,Nick_Dissertation_EX1,1,125,2020-06-02T09:11:28-07:00,1.9362049102783,3,versionC_stim.csv,READVersionC.csv,"Read Version C","Dissertation, read only version C",BIRD,SWAN,Study1,B,14,10,Test,User,-,,Recall,Recall1,1643,,0,-1,-1,0,0,,1
5e81eabc6db6e88e6b519e67,4gdjiy53ma,Nick_Dissertation_EX1,1,126,2020-06-02T09:11:29-07:00,1.5779449939728,3,versionC_stim.csv,READVersionC.csv,"Read Version C","Dissertation, read only version C",ASSIGNMENT,DUE,Study1,S,46,68,Test,User,-,,Recall,Recall1,1243,,0,-1,-1,0,0,,1
5e81eabc6db6e88e6b519e67,4gdjiy53ma,Nick_Dissertation_EX1,1,127,2020-06-02T09:11:35-07:00,5.2352621555328,3,versionC_stim.csv,READVersionC.csv,"Read Version C","Dissertation, read only version C",AMOUNT,NUMBER,Study1,S,47,32,Test,User,-,,Recall,Recall1,3852,money,36.363636363636,2045,2722,0,0,,1
5e81eabc6db6e88e6b519e67,4gdjiy53ma,Nick_Dissertation_EX1,1,128,2020-06-02T09:11:39-07:00,4.6710608005524,3,versionC_stim.csv,READVersionC.csv,"Read Version C","Dissertation, read only version C",SEIZE,TAKE,Study1,F,29,49,Test,User,-,,Recall,Recall1,4387,hold,0,3240,3806,0,0,,1
5e81eabc6db6e88e6b519e67,4gdjiy53ma,Nick_Dissertation_EX1,1,129,2020-06-02T09:11:42-07:00,2.3376870155334,3,versionC_stim.csv,READVersionC.csv,"Read Version C","Dissertation, read only version C",CAVE,DARK,Study1,F,28,28,Test,User,-,,Recall,Recall1,2059,,0,-1,-1,0,0,,1
5e81eabc6db6e88e6b519e67,4gdjiy53ma,Nick_Dissertation_EX1,1,130,2020-06-02T09:11:47-07:00,5.7259440422058,3,versionC_stim.csv,READVersionC.csv,"Read Version C","Dissertation, read only version C",CHILI,HOT,Study1,F,37,58,Test,User,-,,Recall,Recall1,5442,bitter,22.222222222222,3048,4244,0,0,,1
5e81eabc6db6e88e6b519e67,4gdjiy53ma,Nick_Dissertation_EX1,1,131,2020-06-02T09:11:49-07:00,1.8694150447845,3,versionC_stim.csv,READVersionC.csv,"Read Version C","Dissertation, read only version C",DIVISION,MATH,Study1,F,33,29,Test,User,-,,Recall,Recall1,1589,,0,-1,-1,0,0,,1
5e81eabc6db6e88e6b519e67,4gdjiy53ma,Nick_Dissertation_EX1,1,132,2020-06-02T09:11:56-07:00,6.4815599918365,3,versionC_stim.csv,READVersionC.csv,"Read Version C","Dissertation, read only version C",HUNGRY,PARK,Study1,U,68,41,Test,User,-,,Recall,Recall1,6189,digestion,0,3026,4756,0,0,,1
5e81eabc6db6e88e6b519e67,4gdjiy53ma,Nick_Dissertation_EX1,1,133,2020-06-02T09:12:02-07:00,6.575315952301,3,versionC_stim.csv,READVersionC.csv,"Read Version C","Dissertation, read only version C",ADD,VALLEY,Study1,U,82,23,Test,User,-,,Recall,Recall1,6303,subtract,14.285714285714,3946,5545,0,0,,1
5e81eabc6db6e88e6b519e67,4gdjiy53ma,Nick_Dissertation_EX1,1,134,2020-06-02T09:12:05-07:00,3.1738600730896,3,versionC_stim.csv,READVersionC.csv,"Read Version C","Dissertation, read only version C",POSITION,MACHINE,Study1,U,76,65,Test,User,-,,Recall,Recall1,2897,,0,-1,-1,0,0,,1
5e81eabc6db6e88e6b519e67,4gdjiy53ma,Nick_Dissertation_EX1,1,135,2020-06-02T09:12:07-07:00,1.4111108779907,3,versionC_stim.csv,READVersionC.csv,"Read Version C","Dissertation, read only version C",NEWS,EDITOR,Study1,B,10,85,Test,User,-,,Recall,Recall1,1128,,0,-1,-1,0,0,,1
5e81eabc6db6e88e6b519e67,4gdjiy53ma,Nick_Dissertation_EX1,1,136,2020-06-02T09:12:08-07:00,1.5014131069183,3,versionC_stim.csv,READVersionC.csv,"Read Version C","Dissertation, read only version C",SACKING,DIETARY,Study1,U,67,70,Test,User,-,,Recall,Recall1,1221,,0,-1,-1,0,0,,1
5e81eabc6db6e88e6b519e67,4gdjiy53ma,Nick_Dissertation_EX1,1,137,2020-06-02T09:12:12-07:00,3.971538066864,3,versionC_stim.csv,READVersionC.csv,"Read Version C","Dissertation, read only version C",WASP,BUG,Study1,F,32,14,Test,User,-,,Recall,Recall1,3695,sting,25,1661,2697,0,0,,1
5e81eabc6db6e88e6b519e67,4gdjiy53ma,Nick_Dissertation_EX1,1,138,2020-06-02T09:12:16-07:00,3.9454870223999,3,versionC_stim.csv,READVersionC.csv,"Read Version C","Dissertation, read only version C",BEE,HONEY,Study1,S,63,78,Test,User,-,,Recall,Recall1,3659,sting,20,1892,2678,0,0,,1
5e81eabc6db6e88e6b519e67,4gdjiy53ma,Nick_Dissertation_EX1,1,139,2020-06-02T09:12:21-07:00,4.7617888450623,3,versionC_stim.csv,READVersionC.csv,"Read Version C","Dissertation, read only version C",BLAZE,FIRE,Study1,F,45,86,Test,User,-,,Recall,Recall1,4485,fire,100,3011,3602,1,1,,1
5e81eabc6db6e88e6b519e67,4gdjiy53ma,Nick_Dissertation_EX1,1,140,2020-06-02T09:12:25-07:00,3.873654127121,3,versionC_stim.csv,READVersionC.csv,"Read Version C","Dissertation, read only version C",FAMINE,HUNGER,Study1,F,40,24,Test,User,-,,Recall,Recall1,3560,hunger,100,2183,3137,1,1,,1
5e81eabc6db6e88e6b519e67,4gdjiy53ma,Nick_Dissertation_EX1,1,141,2020-06-02T09:12:28-07:00,3.6112790107727,3,versionC_stim.csv,READVersionC.csv,"Read Version C","Dissertation, read only version C",BAD,DELINQUENT,Study1,B,6,33,Test,User,-,,Recall,Recall1,3330,good,14.285714285714,1797,2265,0,0,,1
5e81eabc6db6e88e6b519e67,4gdjiy53ma,Nick_Dissertation_EX1,1,142,2020-06-02T09:12:32-07:00,3.8521559238434,3,versionC_stim.csv,READVersionC.csv,"Read Version C","Dissertation, read only version C",SICK,HIDE,Study1,U,84,67,Test,User,-,,Recall,Recall1,3570,illness,36.363636363636,1653,2985,0,0,,1
5e81eabc6db6e88e6b519e67,4gdjiy53ma,Nick_Dissertation_EX1,1,143,2020-06-02T09:12:35-07:00,2.368036031723,3,versionC_stim.csv,READVersionC.csv,"Read Version C","Dissertation, read only version C",CHEESE,WINE,Study1,S,57,52,Test,User,-,,Recall,Recall1,2076,,0,-1,-1,0,0,,1
5e81eabc6db6e88e6b519e67,4gdjiy53ma,Nick_Dissertation_EX1,1,144,2020-06-02T09:12:37-07:00,1.8645980358124,3,versionC_stim.csv,READVersionC.csv,"Read Version C","Dissertation, read only version C",DESIGN,ARCHITECTURE,Study1,S,51,83,Test,User,-,,Recall,Recall1,1591,,0,-1,-1,0,0,,1
5e81eabc6db6e88e6b519e67,4gdjiy53ma,Nick_Dissertation_EX1,1,145,2020-06-02T09:12:49-07:00,12.338985919952,3,versionC_stim.csv,READVersionC.csv,"Read Version C","Dissertation, read only version C",JURY,TRIAL,Study1,S,50,76,Test,User,-,,Recall,Recall1,11973,sentence,15.384615384615,8236,9568,0,0,,1
5e81eabc6db6e88e6b519e67,4gdjiy53ma,Nick_Dissertation_EX1,1,146,2020-06-02T09:12:55-07:00,6.22794008255,3,versionC_stim.csv,READVersionC.csv,"Read Version C","Dissertation, read only version C",MONEY,WAGE,Study1,B,8,18,Test,User,-,,Recall,Recall1,5949,amount,20,4846,5786,0,0,,1
5e81eabc6db6e88e6b519e67,4gdjiy53ma,Nick_Dissertation_EX1,1,147,2020-06-02T09:12:58-07:00,2.9728519916534,3,versionC_stim.csv,READVersionC.csv,"Read Version C","Dissertation, read only version C",STENCH,SMELL,Study1,F,42,11,Test,User,-,,Recall,Recall1,2692,smell,100,1723,2527,1,1,,1
5e81eabc6db6e88e6b519e67,4gdjiy53ma,Nick_Dissertation_EX1,1,148,2020-06-02T09:13:04-07:00,5.8924150466919,3,versionC_stim.csv,READVersionC.csv,"Read Version C","Dissertation, read only version C",WAR,REVOLUTION,Study1,B,20,61,Test,User,-,,Recall,Recall1,5616,redemption,60,3178,5291,0,0,,1
5e81eabc6db6e88e6b519e67,4gdjiy53ma,Nick_Dissertation_EX1,1,149,2020-06-02T09:13:08-07:00,3.9483699798584,3,versionC_stim.csv,READVersionC.csv,"Read Version C","Dissertation, read only version C",FOOT,SHOE,Study1,S,60,45,Test,User,-,,Recall,Recall1,3674,shoe,100,2557,3565,1,1,,1
5e81eabc6db6e88e6b519e67,4gdjiy53ma,Nick_Dissertation_EX1,1,150,2020-06-02T09:13:10-07:00,1.8671238422394,3,versionC_stim.csv,READVersionC.csv,"Read Version C","Dissertation, read only version C",WOMAN,LIFT,Study1,U,69,16,Test,User,-,,Recall,Recall1,1594,,0,-1,-1,0,0,,1
5e81eabc6db6e88e6b519e67,4gdjiy53ma,Nick_Dissertation_EX1,1,151,2020-06-02T09:13:13-07:00,3.2140080928802,3,versionC_stim.csv,READVersionC.csv,"Read Version C","Dissertation, read only version C",CLEAN,HYGIENE,Study1,B,17,15,Test,User,-,,Recall,Recall1,2943,,0,-1,-1,0,0,,1
5e81eabc6db6e88e6b519e67,4gdjiy53ma,Nick_Dissertation_EX1,1,152,2020-06-02T09:13:16-07:00,3.2317368984222,3,versionC_stim.csv,READVersionC.csv,"Read Version C","Dissertation, read only version C",COLD,BITTER,Study1,B,12,35,Test,User,-,,Recall,Recall1,2948,bitter,100,1887,2843,1,1,,1
5e81eabc6db6e88e6b519e67,4gdjiy53ma,Nick_Dissertation_EX1,1,153,2020-06-02T09:13:18-07:00,1.9398310184479,3,versionC_stim.csv,READVersionC.csv,"Read Version C","Dissertation, read only version C",VASE,KING,Study1,U,85,12,Test,User,-,,Recall,Recall1,1663,,0,-1,-1,0,0,,1
5e81eabc6db6e88e6b519e67,4gdjiy53ma,Nick_Dissertation_EX1,1,154,2020-06-02T09:13:19-07:00,1.1824901103973,3,versionC_stim.csv,READVersionC.csv,"Read Version C","Dissertation, read only version C",ATTORNEY,LAW,Study1,F,34,30,Test,User,-,,Recall,Recall1,904,,0,-1,-1,0,0,,1
5e81eabc6db6e88e6b519e67,4gdjiy53ma,Nick_Dissertation_EX1,1,155,2020-06-02T09:13:21-07:00,1.1755380630493,3,versionC_stim.csv,READVersionC.csv,"Read Version C","Dissertation, read only version C",BRONZE,ARTERY,Study1,U,74,84,Test,User,-,,Recall,Recall1,898,,0,-1,-1,0,0,,1
5e81eabc6db6e88e6b519e67,4gdjiy53ma,Nick_Dissertation_EX1,1,156,2020-06-02T09:13:23-07:00,2.738214969635,3,versionC_stim.csv,READVersionC.csv,"Read Version C","Dissertation, read only version C",SIP,DRINK,Study1,F,27,62,Test,User,-,,Recall,Recall1,2455,drink,100,1520,2291,1,1,,1
5e81eabc6db6e88e6b519e67,4gdjiy53ma,Nick_Dissertation_EX1,1,157,2020-06-02T09:13:31-07:00,7.6005129814148,3,versionC_stim.csv,READVersionC.csv,"Read Version C","Dissertation, read only version C",ENOUGH,FULL,Study1,F,26,50,Test,User,-,,Recall,Recall1,7321,substancial,26.666666666667,4371,7105,0,0,,1
5e81eabc6db6e88e6b519e67,4gdjiy53ma,Nick_Dissertation_EX1,1,158,2020-06-02T09:13:33-07:00,2.4071569442749,3,versionC_stim.csv,READVersionC.csv,"Read Version C","Dissertation, read only version C",RACKET,BALL,Study1,F,38,36,Test,User,-,,Recall,Recall1,2128,,0,-1,-1,0,0,,1
5e81eabc6db6e88e6b519e67,4gdjiy53ma,Nick_Dissertation_EX1,1,159,2020-06-02T09:13:35-07:00,1.8216989040375,3,versionC_stim.csv,READVersionC.csv,"Read Version C","Dissertation, read only version C",OUT,WAY,Study1,B,16,47,Test,User,-,,Recall,Recall1,1539,,0,-1,-1,0,0,,1
5e81eabc6db6e88e6b519e67,4gdjiy53ma,Nick_Dissertation_EX1,1,160,2020-06-02T09:13:37-07:00,1.6321020126343,3,versionC_stim.csv,READVersionC.csv,"Read Version C","Dissertation, read only version C",SODA,POP,Study1,S,56,54,Test,User,-,,Recall,Recall1,1362,,0,-1,-1,0,0,,1
5e81eabc6db6e88e6b519e67,4gdjiy53ma,Nick_Dissertation_EX1,1,161,2020-06-02T09:13:39-07:00,2.3388559818268,3,versionC_stim.csv,READVersionC.csv,"Read Version C","Dissertation, read only version C",END,BEGIN,Study1,S,54,66,Test,User,-,,Recall,Recall1,2054,start,0,1265,1974,0,0,,1
5e81eabc6db6e88e6b519e67,4gdjiy53ma,Nick_Dissertation_EX1,1,162,2020-06-02T09:13:41-07:00,2.3188171386719,3,versionC_stim.csv,READVersionC.csv,"Read Version C","Dissertation, read only version C",SALAD,LETTUCE,Study1,S,59,39,Test,User,-,,Recall,Recall1,2040,,0,-1,-1,0,0,,1
5e81eabc6db6e88e6b519e67,4gdjiy53ma,Nick_Dissertation_EX1,1,163,2020-06-02T09:13:44-07:00,2.9170670509338,3,versionC_stim.csv,READVersionC.csv,"Read Version C","Dissertation, read only version C",COW,HERD,Study1,B,22,20,Test,User,-,,Recall,Recall1,2646,milk,0,1753,2471,0,0,,1
5e81eabc6db6e88e6b519e67,4gdjiy53ma,Nick_Dissertation_EX1,1,164,2020-06-02T09:13:50-07:00,5.7439858913422,3,versionC_stim.csv,READVersionC.csv,"Read Version C","Dissertation, read only version C",STING,HORNET,Study1,B,11,56,Test,User,-,,Recall,Recall1,5439,wasp,0,4787,5269,0,0,,1
5e81eabc6db6e88e6b519e67,4gdjiy53ma,Nick_Dissertation_EX1,1,165,2020-06-02T09:13:51-07:00,1.2864120006561,3,versionC_stim.csv,READVersionC.csv,"Read Version C","Dissertation, read only version C",ROCK,GEOLOGY,Study1,B,19,75,Test,User,-,,Recall,Recall1,1009,,0,-1,-1,0,0,,1
5e81eabc6db6e88e6b519e67,4gdjiy53ma,Nick_Dissertation_EX1,1,166,2020-06-02T09:13:53-07:00,2.0137159824371,3,versionC_stim.csv,READVersionC.csv,"Read Version C","Dissertation, read only version C",TALK,DISCUSSION,Study1,B,21,26,Test,User,-,,Recall,Recall1,1734,,0,-1,-1,0,0,,1
5e81eabc6db6e88e6b519e67,4gdjiy53ma,Nick_Dissertation_EX1,1,167,2020-06-02T09:13:57-07:00,4.1101229190826,3,versionC_stim.csv,READVersionC.csv,"Read Version C","Dissertation, read only version C",CAR,HAPPY,Study1,U,77,44,Test,User,-,,Recall,Recall1,3834,,0,-1,-1,0,0,,1
5e81eabc6db6e88e6b519e67,4gdjiy53ma,Nick_Dissertation_EX1,1,168,2020-06-02T09:14:01-07:00,3.1792290210724,3,versionC_stim.csv,READVersionC.csv,"Read Version C","Dissertation, read only version C",SIGHT,DEBATE,Study1,U,73,64,Test,User,-,,Recall,Recall1,2886,vison,0,2076,2774,0,0,,1
5e81eabc6db6e88e6b519e67,4gdjiy53ma,Nick_Dissertation_EX1,1,169,2020-06-02T09:14:04-07:00,3.2485270500183,3,versionC_stim.csv,READVersionC.csv,"Read Version C","Dissertation, read only version C",STOMACH,DIGESTION,Study1,B,7,72,Test,User,-,,Recall,Recall1,2963,digestion,100,1378,2859,1,1,,1
5e81eabc6db6e88e6b519e67,4gdjiy53ma,Nick_Dissertation_EX1,1,170,2020-06-02T09:14:12-07:00,8.4012899398804,3,versionC_stim.csv,READVersionC.csv,"Read Version C","Dissertation, read only version C",WASTE,DUMP,Study1,S,49,60,Test,User,-,,Recall,Recall1,8124,,0,-1,-1,0,0,,1
5e81eabc6db6e88e6b519e67,4gdjiy53ma,Nick_Dissertation_EX1,1,171,2020-06-02T09:14:13-07:00,1.1417970657349,3,versionC_stim.csv,READVersionC.csv,"Read Version C","Dissertation, read only version C",TOILET,BATHROOM,Study1,S,58,42,Test,User,-,,Recall,Recall1,870,,0,-1,-1,0,0,,1
5e81eabc6db6e88e6b519e67,4gdjiy53ma,Nick_Dissertation_EX1,1,172,2020-06-02T09:14:16-07:00,2.3223280906677,3,versionC_stim.csv,READVersionC.csv,"Read Version C","Dissertation, read only version C",FISH,TUNA,Study1,B,25,73,Test,User,-,,Recall,Recall1,2051,,0,-1,-1,0,0,,1
5e81eabc6db6e88e6b519e67,4gdjiy53ma,Nick_Dissertation_EX1,1,173,2020-06-02T09:14:17-07:00,0.89518189430237,3,versionC_stim.csv,READVersionC.csv,"Read Version C","Dissertation, read only version C",LATCH,KEY,Study1,F,36,48,Test,User,-,,Recall,Recall1,623,,0,-1,-1,0,0,,1
5e81eabc6db6e88e6b519e67,4gdjiy53ma,Nick_Dissertation_EX1,1,174,2020-06-02T09:14:18-07:00,1.1749291419983,3,versionC_stim.csv,READVersionC.csv,"Read Version C","Dissertation, read only version C",BAR,GRILL,Study1,S,52,63,Test,User,-,,Recall,Recall1,894,,0,-1,-1,0,0,,1
5e81eabc6db6e88e6b519e67,4gdjiy53ma,Nick_Dissertation_EX1,1,175,2020-06-02T09:14:35-07:00,17.24079990387,3,versionC_stim.csv,READVersionC.csv,"Read Version C","Dissertation, read only version C",,,,,,0,Instruct,-,10,"You will now be presented with a new set of word pairs. Please study each pair. Remember that your memory will be tested! When finished, press Enter to move to the next pair.",Initial_Instruct,Instruct4,16877,,,-1,-1,,,,1
5e81eabc6db6e88e6b519e67,4gdjiy53ma,Nick_Dissertation_EX1,1,176,2020-06-02T09:14:37-07:00,1.5899031162262,3,versionC_stim.csv,READVersionC.csv,"Read Version C","Dissertation, read only version C",FISH,SHRIMP,BUFFER3,Buffer,93,93,Study,User,-,,Study/JOL,BUFFER3,1315,,,-1,-1,,,,1
5e81eabc6db6e88e6b519e67,4gdjiy53ma,Nick_Dissertation_EX1,1,177,2020-06-02T09:14:38-07:00,1.6150109767914,3,versionC_stim.csv,READVersionC.csv,"Read Version C","Dissertation, read only version C",FROZEN,ICE,BUFFER3,Buffer,94,96,Study,User,-,,Study/JOL,BUFFER3,1346,,,-1,-1,,,,1
5e81eabc6db6e88e6b519e67,4gdjiy53ma,Nick_Dissertation_EX1,1,178,2020-06-02T09:14:39-07:00,0.8243579864502,3,versionC_stim.csv,READVersionC.csv,"Read Version C","Dissertation, read only version C",ADVENTURE,CAMP,BUFFER3,Buffer,95,92,Study,User,-,,Study/JOL,BUFFER3,541,,,-1,-1,,,,1
5e81eabc6db6e88e6b519e67,4gdjiy53ma,Nick_Dissertation_EX1,1,179,2020-06-02T09:14:39-07:00,0.41361284255981,3,versionC_stim.csv,READVersionC.csv,"Read Version C","Dissertation, read only version C",STRING,NOODLE,BUFFER3,Buffer,92,94,Study,User,-,,Study/JOL,BUFFER3,140,,,-1,-1,,,,1
5e81eabc6db6e88e6b519e67,4gdjiy53ma,Nick_Dissertation_EX1,1,180,2020-06-02T09:14:41-07:00,1.4177441596985,3,versionC_stim.csv,READVersionC.csv,"Read Version C","Dissertation, read only version C",POTATO,CARROT,BUFFER3,Buffer,91,95,Study,User,-,,Study/JOL,BUFFER3,144,,,-1,-1,,,,1
5e81eabc6db6e88e6b519e67,4gdjiy53ma,Nick_Dissertation_EX1,1,181,2020-06-02T09:14:41-07:00,0.33644700050354,3,versionC_stim.csv,READVersionC.csv,"Read Version C","Dissertation, read only version C",LIE,TRUTH,Study2,S,148,109,Study,User,-,,Study/JOL,"Study Phase2",66,,,-1,-1,,,,1
5e81eabc6db6e88e6b519e67,4gdjiy53ma,Nick_Dissertation_EX1,1,182,2020-06-02T09:14:42-07:00,0.74359488487244,3,versionC_stim.csv,READVersionC.csv,"Read Version C","Dissertation, read only version C",ELECTION,MAZE,Study2,U,159,110,Study,User,-,,Study/JOL,"Study Phase2",472,,,-1,-1,,,,1
5e81eabc6db6e88e6b519e67,4gdjiy53ma,Nick_Dissertation_EX1,1,183,2020-06-02T09:14:43-07:00,0.52104210853577,3,versionC_stim.csv,READVersionC.csv,"Read Version C","Dissertation, read only version C",JAR,MASON,Study2,S,138,156,Study,User,-,,Study/JOL,"Study Phase2",249,,,-1,-1,,,,1
5e81eabc6db6e88e6b519e67,4gdjiy53ma,Nick_Dissertation_EX1,1,184,2020-06-02T09:14:43-07:00,0.57574582099915,3,versionC_stim.csv,READVersionC.csv,"Read Version C","Dissertation, read only version C",FAVORITE,BEST,Study2,F,125,112,Study,User,-,,Study/JOL,"Study Phase2",300,,,-1,-1,,,,1
5e81eabc6db6e88e6b519e67,4gdjiy53ma,Nick_Dissertation_EX1,1,185,2020-06-02T09:14:44-07:00,0.5287492275238,3,versionC_stim.csv,READVersionC.csv,"Read Version C","Dissertation, read only version C",PLANT,CACTUS,Study2,B,98,159,Study,User,-,,Study/JOL,"Study Phase2",250,,,-1,-1,,,,1
5e81eabc6db6e88e6b519e67,4gdjiy53ma,Nick_Dissertation_EX1,1,186,2020-06-02T09:14:44-07:00,0.5872437953949,3,versionC_stim.csv,READVersionC.csv,"Read Version C","Dissertation, read only version C",THIMBLE,THREAD,Study2,F,121,176,Study,User,-,,Study/JOL,"Study Phase2",317,,,-1,-1,,,,1
5e81eabc6db6e88e6b519e67,4gdjiy53ma,Nick_Dissertation_EX1,1,187,2020-06-02T09:14:45-07:00,0.50132417678833,3,versionC_stim.csv,READVersionC.csv,"Read Version C","Dissertation, read only version C",SIGN,LOAN,Study2,U,171,152,Study,User,-,,Study/JOL,"Study Phase2",231,,,-1,-1,,,,1
5e81eabc6db6e88e6b519e67,4gdjiy53ma,Nick_Dissertation_EX1,1,188,2020-06-02T09:14:45-07:00,0.54065585136414,3,versionC_stim.csv,READVersionC.csv,"Read Version C","Dissertation, read only version C",FIGHT,FEUD,Study2,B,113,100,Study,User,-,,Study/JOL,"Study Phase2",271,,,-1,-1,,,,1
5e81eabc6db6e88e6b519e67,4gdjiy53ma,Nick_Dissertation_EX1,1,189,2020-06-02T09:14:46-07:00,0.49860000610352,3,versionC_stim.csv,READVersionC.csv,"Read Version C","Dissertation, read only version C",JOKE,KEYS,Study2,U,165,155,Study,User,-,,Study/JOL,"Study Phase2",216,,,-1,-1,,,,1
5e81eabc6db6e88e6b519e67,4gdjiy53ma,Nick_Dissertation_EX1,1,190,2020-06-02T09:14:46-07:00,0.46541595458984,3,versionC_stim.csv,READVersionC.csv,"Read Version C","Dissertation, read only version C",COLD,CHILL,Study2,B,114,175,Study,User,-,,Study/JOL,"Study Phase2",189,,,-1,-1,,,,1
5e81eabc6db6e88e6b519e67,4gdjiy53ma,Nick_Dissertation_EX1,1,191,2020-06-02T09:14:47-07:00,0.49456405639648,3,versionC_stim.csv,READVersionC.csv,"Read Version C","Dissertation, read only version C",HEAD,SCALP,Study2,B,105,165,Study,User,-,,Study/JOL,"Study Phase2",221,,,-1,-1,,,,1
5e81eabc6db6e88e6b519e67,4gdjiy53ma,Nick_Dissertation_EX1,1,192,2020-06-02T09:14:47-07:00,0.52466011047363,3,versionC_stim.csv,READVersionC.csv,"Read Version C","Dissertation, read only version C",TICK,FLEA,Study2,S,151,166,Study,User,-,,Study/JOL,"Study Phase2",252,,,-1,-1,,,,1
5e81eabc6db6e88e6b519e67,4gdjiy53ma,Nick_Dissertation_EX1,1,193,2020-06-02T09:14:48-07:00,0.82978487014771,3,versionC_stim.csv,READVersionC.csv,"Read Version C","Dissertation, read only version C",GROUND,EARTH,Study2,S,144,118,Study,User,-,,Study/JOL,"Study Phase2",559,,,-1,-1,,,,1
5e81eabc6db6e88e6b519e67,4gdjiy53ma,Nick_Dissertation_EX1,1,194,2020-06-02T09:14:48-07:00,0.42209601402283,3,versionC_stim.csv,READVersionC.csv,"Read Version C","Dissertation, read only version C",EQUAL,RIGHTS,Study2,S,137,111,Study,User,-,,Study/JOL,"Study Phase2",153,,,-1,-1,,,,1
5e81eabc6db6e88e6b519e67,4gdjiy53ma,Nick_Dissertation_EX1,1,195,2020-06-02T09:14:49-07:00,0.40403199195862,3,versionC_stim.csv,READVersionC.csv,"Read Version C","Dissertation, read only version C",BRAWL,FIGHT,Study2,F,135,97,Study,User,-,,Study/JOL,"Study Phase2",127,,,-1,-1,,,,1
5e81eabc6db6e88e6b519e67,4gdjiy53ma,Nick_Dissertation_EX1,1,196,2020-06-02T09:14:50-07:00,1.1633050441742,3,versionC_stim.csv,READVersionC.csv,"Read Version C","Dissertation, read only version C",DONKEY,MULE,Study2,B,108,113,Study,User,-,,Study/JOL,"Study Phase2",880,,,-1,-1,,,,1
5e81eabc6db6e88e6b519e67,4gdjiy53ma,Nick_Dissertation_EX1,1,197,2020-06-02T09:14:51-07:00,1.1057479381561,3,versionC_stim.csv,READVersionC.csv,"Read Version C","Dissertation, read only version C",EAT,DINE,Study2,B,111,130,Study,User,-,,Study/JOL,"Study Phase2",776,,,-1,-1,,,,1
5e81eabc6db6e88e6b519e67,4gdjiy53ma,Nick_Dissertation_EX1,1,198,2020-06-02T09:14:52-07:00,1.0491330623627,3,versionC_stim.csv,READVersionC.csv,"Read Version C","Dissertation, read only version C",STRAWBERRY,FRUIT,Study2,F,124,117,Study,User,-,,Study/JOL,"Study Phase2",760,,,-1,-1,,,,1
5e81eabc6db6e88e6b519e67,4gdjiy53ma,Nick_Dissertation_EX1,1,199,2020-06-02T09:14:54-07:00,1.4082989692688,3,versionC_stim.csv,READVersionC.csv,"Read Version C","Dissertation, read only version C",NOISE,LOUD,Study2,S,152,174,Study,User,-,,Study/JOL,"Study Phase2",1102,,,-1,-1,,,,1
5e81eabc6db6e88e6b519e67,4gdjiy53ma,Nick_Dissertation_EX1,1,200,2020-06-02T09:14:55-07:00,1.6385021209717,3,versionC_stim.csv,READVersionC.csv,"Read Version C","Dissertation, read only version C",SCAR,MAIN,Study2,U,175,147,Study,User,-,,Study/JOL,"Study Phase2",1361,,,-1,-1,,,,1
5e81eabc6db6e88e6b519e67,4gdjiy53ma,Nick_Dissertation_EX1,1,201,2020-06-02T09:14:57-07:00,1.4717149734497,3,versionC_stim.csv,READVersionC.csv,"Read Version C","Dissertation, read only version C",TRASH,LITTER,Study2,B,103,136,Study,User,-,,Study/JOL,"Study Phase2",1203,,,-1,-1,,,,1
5e81eabc6db6e88e6b519e67,4gdjiy53ma,Nick_Dissertation_EX1,1,202,2020-06-02T09:14:58-07:00,1.2290639877319,3,versionC_stim.csv,READVersionC.csv,"Read Version C","Dissertation, read only version C",RED,CHERRY,Study2,B,104,124,Study,User,-,,Study/JOL,"Study Phase2",953,,,-1,-1,,,,1
5e81eabc6db6e88e6b519e67,4gdjiy53ma,Nick_Dissertation_EX1,1,203,2020-06-02T09:15:00-07:00,1.6592118740082,3,versionC_stim.csv,READVersionC.csv,"Read Version C","Dissertation, read only version C",CLEAR,MOAT,Study2,U,169,103,Study,User,-,,Study/JOL,"Study Phase2",1390,,,-1,-1,,,,1
5e81eabc6db6e88e6b519e67,4gdjiy53ma,Nick_Dissertation_EX1,1,204,2020-06-02T09:15:01-07:00,1.1285140514374,3,versionC_stim.csv,READVersionC.csv,"Read Version C","Dissertation, read only version C",SHAVE,RAZOR,Study2,S,136,105,Study,User,-,,Study/JOL,"Study Phase2",860,,,-1,-1,,,,1
5e81eabc6db6e88e6b519e67,4gdjiy53ma,Nick_Dissertation_EX1,1,205,2020-06-02T09:15:02-07:00,1.1132550239563,3,versionC_stim.csv,READVersionC.csv,"Read Version C","Dissertation, read only version C",ABLE,CRACKLE,Study2,U,162,146,Study,User,-,,Study/JOL,"Study Phase2",836,,,-1,-1,,,,1
5e81eabc6db6e88e6b519e67,4gdjiy53ma,Nick_Dissertation_EX1,1,206,2020-06-02T09:15:03-07:00,1.0002770423889,3,versionC_stim.csv,READVersionC.csv,"Read Version C","Dissertation, read only version C",WAX,CANDLE,Study2,S,139,149,Study,User,-,,Study/JOL,"Study Phase2",683,,,-1,-1,,,,1
5e81eabc6db6e88e6b519e67,4gdjiy53ma,Nick_Dissertation_EX1,1,207,2020-06-02T09:15:04-07:00,1.1411519050598,3,versionC_stim.csv,READVersionC.csv,"Read Version C","Dissertation, read only version C",CAR,DRIVER,Study2,B,106,170,Study,User,-,,Study/JOL,"Study Phase2",838,,,-1,-1,,,,1
5e81eabc6db6e88e6b519e67,4gdjiy53ma,Nick_Dissertation_EX1,1,208,2020-06-02T09:15:06-07:00,1.7311570644379,3,versionC_stim.csv,READVersionC.csv,"Read Version C","Dissertation, read only version C",BANKER,MONEY,Study2,F,132,160,Study,User,-,,Study/JOL,"Study Phase2",1450,,,-1,-1,,,,1
5e81eabc6db6e88e6b519e67,4gdjiy53ma,Nick_Dissertation_EX1,1,209,2020-06-02T09:15:08-07:00,1.8084230422974,3,versionC_stim.csv,READVersionC.csv,"Read Version C","Dissertation, read only version C",CUT,CHOP,Study2,B,107,142,Study,User,-,,Study/JOL,"Study Phase2",1523,,,-1,-1,,,,1
5e81eabc6db6e88e6b519e67,4gdjiy53ma,Nick_Dissertation_EX1,1,210,2020-06-02T09:15:09-07:00,1.4270298480988,3,versionC_stim.csv,READVersionC.csv,"Read Version C","Dissertation, read only version C",TIE,SHOELACE,Study2,B,99,145,Study,User,-,,Study/JOL,"Study Phase2",1139,,,-1,-1,,,,1
5e81eabc6db6e88e6b519e67,4gdjiy53ma,Nick_Dissertation_EX1,1,211,2020-06-02T09:15:10-07:00,1.2117161750793,3,versionC_stim.csv,READVersionC.csv,"Read Version C","Dissertation, read only version C",LONELY,ALONE,Study2,S,145,168,Study,User,-,,Study/JOL,"Study Phase2",934,,,-1,-1,,,,1
5e81eabc6db6e88e6b519e67,4gdjiy53ma,Nick_Dissertation_EX1,1,212,2020-06-02T09:15:12-07:00,1.4993228912354,3,versionC_stim.csv,READVersionC.csv,"Read Version C","Dissertation, read only version C",SEATBELT,SAFETY,Study2,S,147,129,Study,User,-,,Study/JOL,"Study Phase2",1217,,,-1,-1,,,,1
5e81eabc6db6e88e6b519e67,4gdjiy53ma,Nick_Dissertation_EX1,1,213,2020-06-02T09:15:13-07:00,1.1985080242157,3,versionC_stim.csv,READVersionC.csv,"Read Version C","Dissertation, read only version C",BANG,FUZZY,Study2,U,168,120,Study,User,-,,Study/JOL,"Study Phase2",924,,,-1,-1,,,,1
5e81eabc6db6e88e6b519e67,4gdjiy53ma,Nick_Dissertation_EX1,1,214,2020-06-02T09:15:14-07:00,1.4847650527954,3,versionC_stim.csv,READVersionC.csv,"Read Version C","Dissertation, read only version C",TRUTHFUL,HONEST,Study2,F,133,154,Study,User,-,,Study/JOL,"Study Phase2",1203,,,-1,-1,,,,1
5e81eabc6db6e88e6b519e67,4gdjiy53ma,Nick_Dissertation_EX1,1,215,2020-06-02T09:15:15-07:00,0.81874585151672,3,versionC_stim.csv,READVersionC.csv,"Read Version C","Dissertation, read only version C",VILLAIN,BAD,Study2,F,118,102,Study,User,-,,Study/JOL,"Study Phase2",537,,,-1,-1,,,,1
5e81eabc6db6e88e6b519e67,4gdjiy53ma,Nick_Dissertation_EX1,1,216,2020-06-02T09:15:16-07:00,0.6931300163269,3,versionC_stim.csv,READVersionC.csv,"Read Version C","Dissertation, read only version C",TEMPER,TANTRUM,Study2,S,154,169,Study,User,-,,Study/JOL,"Study Phase2",420,,,-1,-1,,,,1
5e81eabc6db6e88e6b519e67,4gdjiy53ma,Nick_Dissertation_EX1,1,217,2020-06-02T09:15:16-07:00,0.54350614547729,3,versionC_stim.csv,READVersionC.csv,"Read Version C","Dissertation, read only version C",SHAKE,Shell,Study2,U,163,164,Study,User,-,,Study/JOL,"Study Phase2",259,,,-1,-1,,,,1
5e81eabc6db6e88e6b519e67,4gdjiy53ma,Nick_Dissertation_EX1,1,218,2020-06-02T09:15:17-07:00,0.69217896461487,3,versionC_stim.csv,READVersionC.csv,"Read Version C","Dissertation, read only version C",BRACELET,WRIST,Study2,S,140,115,Study,User,-,,Study/JOL,"Study Phase2",414,,,-1,-1,,,,1
5e81eabc6db6e88e6b519e67,4gdjiy53ma,Nick_Dissertation_EX1,1,219,2020-06-02T09:15:18-07:00,0.59942507743835,3,versionC_stim.csv,READVersionC.csv,"Read Version C","Dissertation, read only version C",PAPER,DOCUMENT,Study2,B,109,135,Study,User,-,,Study/JOL,"Study Phase2",312,,,-1,-1,,,,1
5e81eabc6db6e88e6b519e67,4gdjiy53ma,Nick_Dissertation_EX1,1,220,2020-06-02T09:15:19-07:00,1.4823219776154,3,versionC_stim.csv,READVersionC.csv,"Read Version C","Dissertation, read only version C",SCISSORS,SHEARS,Study2,B,112,139,Study,User,-,,Study/JOL,"Study Phase2",204,,,-1,-1,,,,1
5e81eabc6db6e88e6b519e67,4gdjiy53ma,Nick_Dissertation_EX1,1,221,2020-06-02T09:15:20-07:00,0.67135882377625,3,versionC_stim.csv,READVersionC.csv,"Read Version C","Dissertation, read only version C",COMMUNICATION,PHONE,Study2,S,149,171,Study,User,-,,Study/JOL,"Study Phase2",391,,,-1,-1,,,,1
5e81eabc6db6e88e6b519e67,4gdjiy53ma,Nick_Dissertation_EX1,1,222,2020-06-02T09:15:21-07:00,1.0385141372681,3,versionC_stim.csv,READVersionC.csv,"Read Version C","Dissertation, read only version C",CLOTH,STRETCH,Study2,U,157,114,Study,User,-,,Study/JOL,"Study Phase2",754,,,-1,-1,,,,1
5e81eabc6db6e88e6b519e67,4gdjiy53ma,Nick_Dissertation_EX1,1,223,2020-06-02T09:15:22-07:00,0.7914719581604,3,versionC_stim.csv,READVersionC.csv,"Read Version C","Dissertation, read only version C",LONG,EXTENSION,Study2,B,96,107,Study,User,-,,Study/JOL,"Study Phase2",511,,,-1,-1,,,,1
5e81eabc6db6e88e6b519e67,4gdjiy53ma,Nick_Dissertation_EX1,1,224,2020-06-02T09:15:22-07:00,0.70554304122925,3,versionC_stim.csv,READVersionC.csv,"Read Version C","Dissertation, read only version C",SARDINE,FISH,Study2,F,130,144,Study,User,-,,Study/JOL,"Study Phase2",420,,,-1,-1,,,,1
5e81eabc6db6e88e6b519e67,4gdjiy53ma,Nick_Dissertation_EX1,1,225,2020-06-02T09:15:23-07:00,0.70079708099365,3,versionC_stim.csv,READVersionC.csv,"Read Version C","Dissertation, read only version C",PENGUIN,BIRD,Study2,F,119,138,Study,User,-,,Study/JOL,"Study Phase2",406,,,-1,-1,,,,1
5e81eabc6db6e88e6b519e67,4gdjiy53ma,Nick_Dissertation_EX1,1,226,2020-06-02T09:15:24-07:00,0.83221888542175,3,versionC_stim.csv,READVersionC.csv,"Read Version C","Dissertation, read only version C",LOVE,AFFECTION,Study2,B,115,116,Study,User,-,,Study/JOL,"Study Phase2",538,,,-1,-1,,,,1
5e81eabc6db6e88e6b519e67,4gdjiy53ma,Nick_Dissertation_EX1,1,227,2020-06-02T09:15:25-07:00,0.98220705986023,3,versionC_stim.csv,READVersionC.csv,"Read Version C","Dissertation, read only version C",PANTHER,CAT,Study2,F,126,132,Study,User,-,,Study/JOL,"Study Phase2",702,,,-1,-1,,,,1
5e81eabc6db6e88e6b519e67,4gdjiy53ma,Nick_Dissertation_EX1,1,228,2020-06-02T09:15:26-07:00,0.77076482772827,3,versionC_stim.csv,READVersionC.csv,"Read Version C","Dissertation, read only version C",TAN,SUN,Study2,S,155,125,Study,User,-,,Study/JOL,"Study Phase2",496,,,-1,-1,,,,1
5e81eabc6db6e88e6b519e67,4gdjiy53ma,Nick_Dissertation_EX1,1,229,2020-06-02T09:15:26-07:00,0.70025300979614,3,versionC_stim.csv,READVersionC.csv,"Read Version C","Dissertation, read only version C",WET,DRY,Study2,S,146,101,Study,User,-,,Study/JOL,"Study Phase2",418,,,-1,-1,,,,1
5e81eabc6db6e88e6b519e67,4gdjiy53ma,Nick_Dissertation_EX1,1,230,2020-06-02T09:15:27-07:00,0.70530104637146,3,versionC_stim.csv,READVersionC.csv,"Read Version C","Dissertation, read only version C",NAP,SLEEP,Study2,F,134,151,Study,User,-,,Study/JOL,"Study Phase2",426,,,-1,-1,,,,1
5e81eabc6db6e88e6b519e67,4gdjiy53ma,Nick_Dissertation_EX1,1,231,2020-06-02T09:15:28-07:00,0.71481013298035,3,versionC_stim.csv,READVersionC.csv,"Read Version C","Dissertation, read only version C",OUNCE,BOTH,Study2,U,172,106,Study,User,-,,Study/JOL,"Study Phase2",444,,,-1,-1,,,,1
5e81eabc6db6e88e6b519e67,4gdjiy53ma,Nick_Dissertation_EX1,1,232,2020-06-02T09:15:28-07:00,0.67867183685303,3,versionC_stim.csv,READVersionC.csv,"Read Version C","Dissertation, read only version C",STEAK,GIVE,Study2,U,158,104,Study,User,-,,Study/JOL,"Study Phase2",396,,,-1,-1,,,,1
5e81eabc6db6e88e6b519e67,4gdjiy53ma,Nick_Dissertation_EX1,1,233,2020-06-02T09:15:29-07:00,0.62629699707031,3,versionC_stim.csv,READVersionC.csv,"Read Version C","Dissertation, read only version C",REEL,ROD,Study2,S,150,148,Study,User,-,,Study/JOL,"Study Phase2",315,,,-1,-1,,,,1
5e81eabc6db6e88e6b519e67,4gdjiy53ma,Nick_Dissertation_EX1,1,234,2020-06-02T09:15:30-07:00,0.62896919250488,3,versionC_stim.csv,READVersionC.csv,"Read Version C","Dissertation, read only version C",Morning,TEMPERATURE,Study2,U,173,167,Study,User,-,,Study/JOL,"Study Phase2",350,,,-1,-1,,,,1
5e81eabc6db6e88e6b519e67,4gdjiy53ma,Nick_Dissertation_EX1,1,235,2020-06-02T09:15:30-07:00,0.66187381744385,3,versionC_stim.csv,READVersionC.csv,"Read Version C","Dissertation, read only version C",HAVE,OWN,Study2,S,153,119,Study,User,-,,Study/JOL,"Study Phase2",385,,,-1,-1,,,,1
5e81eabc6db6e88e6b519e67,4gdjiy53ma,Nick_Dissertation_EX1,1,236,2020-06-02T09:15:31-07:00,0.54471707344055,3,versionC_stim.csv,READVersionC.csv,"Read Version C","Dissertation, read only version C",END,ADJOURN,Study2,B,101,108,Study,User,-,,Study/JOL,"Study Phase2",264,,,-1,-1,,,,1
5e81eabc6db6e88e6b519e67,4gdjiy53ma,Nick_Dissertation_EX1,1,237,2020-06-02T09:15:31-07:00,0.41616892814636,3,versionC_stim.csv,READVersionC.csv,"Read Version C","Dissertation, read only version C",BALLOON,POP,Study2,F,123,131,Study,User,-,,Study/JOL,"Study Phase2",130,,,-1,-1,,,,1
5e81eabc6db6e88e6b519e67,4gdjiy53ma,Nick_Dissertation_EX1,1,238,2020-06-02T09:15:32-07:00,0.52448010444641,3,versionC_stim.csv,READVersionC.csv,"Read Version C","Dissertation, read only version C",MAROON,JUSTICE,Study2,U,156,143,Study,User,-,,Study/JOL,"Study Phase2",250,,,-1,-1,,,,1
5e81eabc6db6e88e6b519e67,4gdjiy53ma,Nick_Dissertation_EX1,1,239,2020-06-02T09:15:33-07:00,0.63843607902527,3,versionC_stim.csv,READVersionC.csv,"Read Version C","Dissertation, read only version C",HATE,NAME,Study2,U,167,141,Study,User,-,,Study/JOL,"Study Phase2",359,,,-1,-1,,,,1
5e81eabc6db6e88e6b519e67,4gdjiy53ma,Nick_Dissertation_EX1,1,240,2020-06-02T09:15:33-07:00,0.57095694541931,3,versionC_stim.csv,READVersionC.csv,"Read Version C","Dissertation, read only version C",OBTAIN,MEAT,Study2,U,161,158,Study,User,-,,Study/JOL,"Study Phase2",297,,,-1,-1,,,,1
5e81eabc6db6e88e6b519e67,4gdjiy53ma,Nick_Dissertation_EX1,1,241,2020-06-02T09:15:34-07:00,0.58405900001526,3,versionC_stim.csv,READVersionC.csv,"Read Version C","Dissertation, read only version C",FICTION,LISTEN,Study2,U,164,123,Study,User,-,,Study/JOL,"Study Phase2",290,,,-1,-1,,,,1
5e81eabc6db6e88e6b519e67,4gdjiy53ma,Nick_Dissertation_EX1,1,242,2020-06-02T09:15:34-07:00,0.45252203941345,3,versionC_stim.csv,READVersionC.csv,"Read Version C","Dissertation, read only version C",AWAY,GONE,Study2,S,142,153,Study,User,-,,Study/JOL,"Study Phase2",177,,,-1,-1,,,,1
5e81eabc6db6e88e6b519e67,4gdjiy53ma,Nick_Dissertation_EX1,1,243,2020-06-02T09:15:35-07:00,0.563551902771,3,versionC_stim.csv,READVersionC.csv,"Read Version C","Dissertation, read only version C",LEAGUE,BASEBALL,Study2,F,131,134,Study,User,-,,Study/JOL,"Study Phase2",286,,,-1,-1,,,,1
5e81eabc6db6e88e6b519e67,4gdjiy53ma,Nick_Dissertation_EX1,1,244,2020-06-02T09:15:35-07:00,0.54094696044922,3,versionC_stim.csv,READVersionC.csv,"Read Version C","Dissertation, read only version C",CLOTHES,CAKE,Study2,U,166,162,Study,User,-,,Study/JOL,"Study Phase2",261,,,-1,-1,,,,1
5e81eabc6db6e88e6b519e67,4gdjiy53ma,Nick_Dissertation_EX1,1,245,2020-06-02T09:15:36-07:00,0.66761016845703,3,versionC_stim.csv,READVersionC.csv,"Read Version C","Dissertation, read only version C",CHILDREN,MIRROR,Study2,U,174,161,Study,User,-,,Study/JOL,"Study Phase2",382,,,-1,-1,,,,1
5e81eabc6db6e88e6b519e67,4gdjiy53ma,Nick_Dissertation_EX1,1,246,2020-06-02T09:15:36-07:00,0.51252698898315,3,versionC_stim.csv,READVersionC.csv,"Read Version C","Dissertation, read only version C",MYSTERY,DETECTIVE,Study2,B,100,140,Study,User,-,,Study/JOL,"Study Phase2",231,,,-1,-1,,,,1
5e81eabc6db6e88e6b519e67,4gdjiy53ma,Nick_Dissertation_EX1,1,247,2020-06-02T09:15:37-07:00,0.51126790046692,3,versionC_stim.csv,READVersionC.csv,"Read Version C","Dissertation, read only version C",ACTRESS,STAR,Study2,F,120,99,Study,User,-,,Study/JOL,"Study Phase2",219,,,-1,-1,,,,1
5e81eabc6db6e88e6b519e67,4gdjiy53ma,Nick_Dissertation_EX1,1,248,2020-06-02T09:15:37-07:00,0.48614192008972,3,versionC_stim.csv,READVersionC.csv,"Read Version C","Dissertation, read only version C",DOG,FURRY,Study2,B,102,150,Study,User,-,,Study/JOL,"Study Phase2",200,,,-1,-1,,,,1
5e81eabc6db6e88e6b519e67,4gdjiy53ma,Nick_Dissertation_EX1,1,249,2020-06-02T09:15:38-07:00,0.55148911476135,3,versionC_stim.csv,READVersionC.csv,"Read Version C","Dissertation, read only version C",CARBON,ELEMENT,Study2,S,141,127,Study,User,-,,Study/JOL,"Study Phase2",275,,,-1,-1,,,,1
5e81eabc6db6e88e6b519e67,4gdjiy53ma,Nick_Dissertation_EX1,1,250,2020-06-02T09:15:38-07:00,0.51650190353394,3,versionC_stim.csv,READVersionC.csv,"Read Version C","Dissertation, read only version C",COFFIN,DEAD,Study2,F,128,137,Study,User,-,,Study/JOL,"Study Phase2",212,,,-1,-1,,,,1
5e81eabc6db6e88e6b519e67,4gdjiy53ma,Nick_Dissertation_EX1,1,251,2020-06-02T09:15:39-07:00,0.55639696121216,3,versionC_stim.csv,READVersionC.csv,"Read Version C","Dissertation, read only version C",FLIP,TURN,Study2,F,116,98,Study,User,-,,Study/JOL,"Study Phase2",274,,,-1,-1,,,,1
5e81eabc6db6e88e6b519e67,4gdjiy53ma,Nick_Dissertation_EX1,1,252,2020-06-02T09:15:40-07:00,0.55376601219177,3,versionC_stim.csv,READVersionC.csv,"Read Version C","Dissertation, read only version C",WINDSHIELD,CAR,Study2,F,117,126,Study,User,-,,Study/JOL,"Study Phase2",274,,,-1,-1,,,,1
5e81eabc6db6e88e6b519e67,4gdjiy53ma,Nick_Dissertation_EX1,1,253,2020-06-02T09:15:40-07:00,0.58042216300964,3,versionC_stim.csv,READVersionC.csv,"Read Version C","Dissertation, read only version C",TOIL,LEASE,Study2,U,170,133,Study,User,-,,Study/JOL,"Study Phase2",296,,,-1,-1,,,,1
5e81eabc6db6e88e6b519e67,4gdjiy53ma,Nick_Dissertation_EX1,1,254,2020-06-02T09:15:41-07:00,0.70537996292114,3,versionC_stim.csv,READVersionC.csv,"Read Version C","Dissertation, read only version C",CHARM,VEHICLE,Study2,U,160,157,Study,User,-,,Study/JOL,"Study Phase2",423,,,-1,-1,,,,1
5e81eabc6db6e88e6b519e67,4gdjiy53ma,Nick_Dissertation_EX1,1,255,2020-06-02T09:15:41-07:00,0.59993505477905,3,versionC_stim.csv,READVersionC.csv,"Read Version C","Dissertation, read only version C",AIRCRAFT,PLANE,Study2,F,129,163,Study,User,-,,Study/JOL,"Study Phase2",326,,,-1,-1,,,,1
5e81eabc6db6e88e6b519e67,4gdjiy53ma,Nick_Dissertation_EX1,1,256,2020-06-02T09:15:42-07:00,0.52422285079956,3,versionC_stim.csv,READVersionC.csv,"Read Version C","Dissertation, read only version C",SMELL,INCENSE,Study2,B,110,173,Study,User,-,,Study/JOL,"Study Phase2",254,,,-1,-1,,,,1
5e81eabc6db6e88e6b519e67,4gdjiy53ma,Nick_Dissertation_EX1,1,257,2020-06-02T09:15:43-07:00,0.5660400390625,3,versionC_stim.csv,READVersionC.csv,"Read Version C","Dissertation, read only version C",BREAKABLE,GLASS,Study2,F,127,122,Study,User,-,,Study/JOL,"Study Phase2",286,,,-1,-1,,,,1
5e81eabc6db6e88e6b519e67,4gdjiy53ma,Nick_Dissertation_EX1,1,258,2020-06-02T09:15:43-07:00,0.53235793113708,3,versionC_stim.csv,READVersionC.csv,"Read Version C","Dissertation, read only version C",DRINK,WATER,Study2,S,143,121,Study,User,-,,Study/JOL,"Study Phase2",242,,,-1,-1,,,,1
5e81eabc6db6e88e6b519e67,4gdjiy53ma,Nick_Dissertation_EX1,1,259,2020-06-02T09:15:44-07:00,0.64504313468933,3,versionC_stim.csv,READVersionC.csv,"Read Version C","Dissertation, read only version C",REVENGE,EVEN,Study2,F,122,128,Study,User,-,,Study/JOL,"Study Phase2",364,,,-1,-1,,,,1
5e81eabc6db6e88e6b519e67,4gdjiy53ma,Nick_Dissertation_EX1,1,260,2020-06-02T09:15:44-07:00,0.76104688644409,3,versionC_stim.csv,READVersionC.csv,"Read Version C","Dissertation, read only version C",GAME,CLUE,Study2,B,97,172,Study,User,-,,Study/JOL,"Study Phase2",478,,,-1,-1,,,,1
5e81eabc6db6e88e6b519e67,4gdjiy53ma,Nick_Dissertation_EX1,1,261,2020-06-02T09:15:45-07:00,0.47301197052002,3,versionC_stim.csv,READVersionC.csv,"Read Version C","Dissertation, read only version C",SPOOKY,OCTOBER,BUFFER4,Buffer,180,177,Study,User,-,,Study/JOL,BUFFER4,146,,,-1,-1,,,,1
5e81eabc6db6e88e6b519e67,4gdjiy53ma,Nick_Dissertation_EX1,1,262,2020-06-02T09:15:45-07:00,0.51047301292419,3,versionC_stim.csv,READVersionC.csv,"Read Version C","Dissertation, read only version C",SHED,TOOL,BUFFER4,Buffer,178,180,Study,User,-,,Study/JOL,BUFFER4,230,,,-1,-1,,,,1
5e81eabc6db6e88e6b519e67,4gdjiy53ma,Nick_Dissertation_EX1,1,263,2020-06-02T09:15:47-07:00,1.7742919921875,3,versionC_stim.csv,READVersionC.csv,"Read Version C","Dissertation, read only version C",MARCH,SPRING,BUFFER4,Buffer,179,181,Study,User,-,,Study/JOL,BUFFER4,448,,,-1,-1,,,,1
5e81eabc6db6e88e6b519e67,4gdjiy53ma,Nick_Dissertation_EX1,1,264,2020-06-02T09:15:48-07:00,0.7085440158844,3,versionC_stim.csv,READVersionC.csv,"Read Version C","Dissertation, read only version C",YEAR,MONTH,BUFFER4,Buffer,177,179,Study,User,-,,Study/JOL,BUFFER4,430,,,-1,-1,,,,1
5e81eabc6db6e88e6b519e67,4gdjiy53ma,Nick_Dissertation_EX1,1,265,2020-06-02T09:15:50-07:00,1.6228940486908,3,versionC_stim.csv,READVersionC.csv,"Read Version C","Dissertation, read only version C",WEAKS,DAYS,BUFFER4,Buffer,176,178,Study,User,-,,Study/JOL,BUFFER4,343,,,-1,-1,,,,1
5e81eabc6db6e88e6b519e67,4gdjiy53ma,Nick_Dissertation_EX1,1,266,2020-06-02T09:15:52-07:00,2.2545070648193,3,versionC_stim.csv,READVersionC.csv,"Read Version C","Dissertation, read only version C",,,,,,0,Instruct,User,-,"You have completed this section. Please press Enter.",Filler_Instruction,Instruct5,1928,,,-1,-1,,,,1
5e81eabc6db6e88e6b519e67,4gdjiy53ma,Nick_Dissertation_EX1,1,267,2020-06-02T09:17:55-07:00,122.77155303955,3,versionC_stim.csv,READVersionC.csv,"Read Version C","Dissertation, read only version C",,,,,,0,FreeRecall,120,120,"Please list the 50 US states in reverse alphabetical order (z - a). The task will automatically advance to the next screen after two minutes.",,Filler2,120597,"Alabama Alaska Arizona Arkansas California Colorado Connecticut Delaware Florida Georgia Hawaii Idaho IllinoisIndiana Iowa Kansas Kentucky Louisiana Maine Maryland Massachusetts Michigan Minnesota Mississippi Missouri MontanaNebraska Nevada New Hampshire New Jersey New Mexico New York North Carolina North Dakota Ohio Oklahoma Oregon PennsylvaniaRhode Island South Carolina South Dakota Tennessee Texas Utah Vermont Virginia Washington West Virginia Wisconsin Wyoming Each page includes the following:",0,-1,-1,0,0,,0.96
5e81eabc6db6e88e6b519e67,4gdjiy53ma,Nick_Dissertation_EX1,1,268,2020-06-02T09:18:19-07:00,24.8218998909,3,versionC_stim.csv,READVersionC.csv,"Read Version C","Dissertation, read only version C",,,,,,0,Instruct,-,10,"You will now be presented with the first word from each of the previously studied item pairs. Please type the missing word. If you do not know the word, you may guess or press Enter to skip forward to the next pair.",,Instruct6,24442,,,-1,-1,,,,0.425
5e81eabc6db6e88e6b519e67,4gdjiy53ma,Nick_Dissertation_EX1,1,269,2020-06-02T09:18:23-07:00,3.2100880146027,3,versionC_stim.csv,READVersionC.csv,"Read Version C","Dissertation, read only version C",STEAK,GIVE,Study2,U,158,104,Test,User,-,,Recall,Recall2,2921,,0,-1,-1,0,0,,1
5e81eabc6db6e88e6b519e67,4gdjiy53ma,Nick_Dissertation_EX1,1,270,2020-06-02T09:18:26-07:00,3.2861309051514,3,versionC_stim.csv,READVersionC.csv,"Read Version C","Dissertation, read only version C",END,ADJOURN,Study2,B,101,108,Test,User,-,,Recall,Recall2,3001,start,33.333333333333,1497,2098,0,0,,1
5e81eabc6db6e88e6b519e67,4gdjiy53ma,Nick_Dissertation_EX1,1,271,2020-06-02T09:18:29-07:00,3.3064241409302,3,versionC_stim.csv,READVersionC.csv,"Read Version C","Dissertation, read only version C",THIMBLE,THREAD,Study2,F,121,176,Test,User,-,,Recall,Recall2,3015,,0,-1,-1,0,0,,1
5e81eabc6db6e88e6b519e67,4gdjiy53ma,Nick_Dissertation_EX1,1,272,2020-06-02T09:18:33-07:00,3.7839970588684,3,versionC_stim.csv,READVersionC.csv,"Read Version C","Dissertation, read only version C",RED,CHERRY,Study2,B,104,124,Test,User,-,,Recall,Recall2,3490,cherry,100,1965,2712,1,1,,1
5e81eabc6db6e88e6b519e67,4gdjiy53ma,Nick_Dissertation_EX1,1,273,2020-06-02T09:18:35-07:00,1.9184498786926,3,versionC_stim.csv,READVersionC.csv,"Read Version C","Dissertation, read only version C",EQUAL,RIGHTS,Study2,S,137,111,Test,User,-,,Recall,Recall2,1625,,0,-1,-1,0,0,,1
5e81eabc6db6e88e6b519e67,4gdjiy53ma,Nick_Dissertation_EX1,1,274,2020-06-02T09:18:38-07:00,3.3382129669189,3,versionC_stim.csv,READVersionC.csv,"Read Version C","Dissertation, read only version C",TRUTHFUL,HONEST,Study2,F,133,154,Test,User,-,,Recall,Recall2,3048,honest,100,1888,2631,1,1,,1
5e81eabc6db6e88e6b519e67,4gdjiy53ma,Nick_Dissertation_EX1,1,275,2020-06-02T09:18:40-07:00,1.650171995163,3,versionC_stim.csv,READVersionC.csv,"Read Version C","Dissertation, read only version C",LOVE,AFFECTION,Study2,B,115,116,Test,User,-,,Recall,Recall2,1362,,0,-1,-1,0,0,,1
5e81eabc6db6e88e6b519e67,4gdjiy53ma,Nick_Dissertation_EX1,1,276,2020-06-02T09:18:44-07:00,4.3684561252594,3,versionC_stim.csv,READVersionC.csv,"Read Version C","Dissertation, read only version C",EAT,DINE,Study2,B,111,130,Test,User,-,,Recall,Recall2,4083,dine,100,3459,3996,1,1,,1
5e81eabc6db6e88e6b519e67,4gdjiy53ma,Nick_Dissertation_EX1,1,277,2020-06-02T09:18:47-07:00,2.7246270179749,3,versionC_stim.csv,READVersionC.csv,"Read Version C","Dissertation, read only version C",HATE,NAME,Study2,U,167,141,Test,User,-,,Recall,Recall2,2440,love,25,1392,2315,0,0,,1
5e81eabc6db6e88e6b519e67,4gdjiy53ma,Nick_Dissertation_EX1,1,278,2020-06-02T09:18:50-07:00,2.7300448417664,3,versionC_stim.csv,READVersionC.csv,"Read Version C","Dissertation, read only version C",FICTION,LISTEN,Study2,U,164,123,Test,User,-,,Recall,Recall2,2443,fact,20,1884,2305,0,0,,1
5e81eabc6db6e88e6b519e67,4gdjiy53ma,Nick_Dissertation_EX1,1,279,2020-06-02T09:18:52-07:00,2.2828531265259,3,versionC_stim.csv,READVersionC.csv,"Read Version C","Dissertation, read only version C",LONG,EXTENSION,Study2,B,96,107,Test,User,-,,Recall,Recall2,1992,short,28.571428571429,1078,1930,0,0,,1
5e81eabc6db6e88e6b519e67,4gdjiy53ma,Nick_Dissertation_EX1,1,280,2020-06-02T09:19:01-07:00,9.4070608615875,3,versionC_stim.csv,READVersionC.csv,"Read Version C","Dissertation, read only version C",LONELY,ALONE,Study2,S,145,168,Test,User,-,,Recall,Recall2,9114,,0,-1,-1,0,0,,1
5e81eabc6db6e88e6b519e67,4gdjiy53ma,Nick_Dissertation_EX1,1,281,2020-06-02T09:19:03-07:00,1.3011860847473,3,versionC_stim.csv,READVersionC.csv,"Read Version C","Dissertation, read only version C",PENGUIN,BIRD,Study2,F,119,138,Test,User,-,,Recall,Recall2,1012,,0,-1,-1,0,0,,1
5e81eabc6db6e88e6b519e67,4gdjiy53ma,Nick_Dissertation_EX1,1,282,2020-06-02T09:19:04-07:00,1.5894620418549,3,versionC_stim.csv,READVersionC.csv,"Read Version C","Dissertation, read only version C",TOIL,LEASE,Study2,U,170,133,Test,User,-,,Recall,Recall2,1296,,0,-1,-1,0,0,,1
5e81eabc6db6e88e6b519e67,4gdjiy53ma,Nick_Dissertation_EX1,1,283,2020-06-02T09:19:07-07:00,2.7263460159302,3,versionC_stim.csv,READVersionC.csv,"Read Version C","Dissertation, read only version C",SCISSORS,SHEARS,Study2,B,112,139,Test,User,-,,Recall,Recall2,2444,cut,0,1438,2095,0,0,,1
5e81eabc6db6e88e6b519e67,4gdjiy53ma,Nick_Dissertation_EX1,1,284,2020-06-02T09:19:11-07:00,3.4434039592743,3,versionC_stim.csv,READVersionC.csv,"Read Version C","Dissertation, read only version C",GAME,CLUE,Study2,B,97,172,Test,User,-,,Recall,Recall2,3166,over,25,2609,3087,0,0,,1
5e81eabc6db6e88e6b519e67,4gdjiy53ma,Nick_Dissertation_EX1,1,285,2020-06-02T09:19:13-07:00,2.2768709659576,3,versionC_stim.csv,READVersionC.csv,"Read Version C","Dissertation, read only version C",TAN,SUN,Study2,S,155,125,Test,User,-,,Recall,Recall2,999,,0,-1,-1,0,0,,1
5e81eabc6db6e88e6b519e67,4gdjiy53ma,Nick_Dissertation_EX1,1,286,2020-06-02T09:19:15-07:00,2.4070539474487,3,versionC_stim.csv,READVersionC.csv,"Read Version C","Dissertation, read only version C",CLEAR,MOAT,Study2,U,169,103,Test,User,-,,Recall,Recall2,2126,,0,-1,-1,0,0,,1
5e81eabc6db6e88e6b519e67,4gdjiy53ma,Nick_Dissertation_EX1,1,287,2020-06-02T09:19:17-07:00,2.1207239627838,3,versionC_stim.csv,READVersionC.csv,"Read Version C","Dissertation, read only version C",Morning,TEMPERATURE,Study2,U,173,167,Test,User,-,,Recall,Recall2,1833,night,12.5,1261,1741,0,0,,1
5e81eabc6db6e88e6b519e67,4gdjiy53ma,Nick_Dissertation_EX1,1,288,2020-06-02T09:19:20-07:00,2.6595461368561,3,versionC_stim.csv,READVersionC.csv,"Read Version C","Dissertation, read only version C",PLANT,CACTUS,Study2,B,98,159,Test,User,-,,Recall,Recall2,2375,,0,-1,-1,0,0,,1
5e81eabc6db6e88e6b519e67,4gdjiy53ma,Nick_Dissertation_EX1,1,289,2020-06-02T09:19:21-07:00,1.0498340129852,3,versionC_stim.csv,READVersionC.csv,"Read Version C","Dissertation, read only version C",ABLE,CRACKLE,Study2,U,162,146,Test,User,-,,Recall,Recall2,768,,0,-1,-1,0,0,,1
5e81eabc6db6e88e6b519e67,4gdjiy53ma,Nick_Dissertation_EX1,1,290,2020-06-02T09:19:24-07:00,2.7734310626984,3,versionC_stim.csv,READVersionC.csv,"Read Version C","Dissertation, read only version C",CHILDREN,MIRROR,Study2,U,174,161,Test,User,-,,Recall,Recall2,1491,,0,-1,-1,0,0,,1
5e81eabc6db6e88e6b519e67,4gdjiy53ma,Nick_Dissertation_EX1,1,291,2020-06-02T09:19:27-07:00,2.800390958786,3,versionC_stim.csv,READVersionC.csv,"Read Version C","Dissertation, read only version C",JAR,MASON,Study2,S,138,156,Test,User,-,,Recall,Recall2,1513,,0,-1,-1,0,0,,1
5e81eabc6db6e88e6b519e67,4gdjiy53ma,Nick_Dissertation_EX1,1,292,2020-06-02T09:19:29-07:00,2.6998119354248,3,versionC_stim.csv,READVersionC.csv,"Read Version C","Dissertation, read only version C",CHARM,VEHICLE,Study2,U,160,157,Test,User,-,,Recall,Recall2,2404,,0,-1,-1,0,0,,1
5e81eabc6db6e88e6b519e67,4gdjiy53ma,Nick_Dissertation_EX1,1,293,2020-06-02T09:19:33-07:00,3.2836499214172,3,versionC_stim.csv,READVersionC.csv,"Read Version C","Dissertation, read only version C",FAVORITE,BEST,Study2,F,125,112,Test,User,-,,Recall,Recall2,1987,,0,-1,-1,0,0,,1
5e81eabc6db6e88e6b519e67,4gdjiy53ma,Nick_Dissertation_EX1,1,294,2020-06-02T09:19:34-07:00,1.3588240146637,3,versionC_stim.csv,READVersionC.csv,"Read Version C","Dissertation, read only version C",SARDINE,FISH,Study2,F,130,144,Test,User,-,,Recall,Recall2,1063,,0,-1,-1,0,0,,1
5e81eabc6db6e88e6b519e67,4gdjiy53ma,Nick_Dissertation_EX1,1,295,2020-06-02T09:19:37-07:00,3.5264799594879,3,versionC_stim.csv,READVersionC.csv,"Read Version C","Dissertation, read only version C",VILLAIN,BAD,Study2,F,118,102,Test,User,-,,Recall,Recall2,2245,bad,100,1897,2168,1,1,,1
5e81eabc6db6e88e6b519e67,4gdjiy53ma,Nick_Dissertation_EX1,1,296,2020-06-02T09:19:39-07:00,1.8393700122833,3,versionC_stim.csv,READVersionC.csv,"Read Version C","Dissertation, read only version C",DRINK,WATER,Study2,S,143,121,Test,User,-,,Recall,Recall2,1525,,0,-1,-1,0,0,,1
5e81eabc6db6e88e6b519e67,4gdjiy53ma,Nick_Dissertation_EX1,1,297,2020-06-02T09:19:40-07:00,1.0971901416779,3,versionC_stim.csv,READVersionC.csv,"Read Version C","Dissertation, read only version C",OBTAIN,MEAT,Study2,U,161,158,Test,User,-,,Recall,Recall2,803,,0,-1,-1,0,0,,1
5e81eabc6db6e88e6b519e67,4gdjiy53ma,Nick_Dissertation_EX1,1,298,2020-06-02T09:19:43-07:00,2.3801498413086,3,versionC_stim.csv,READVersionC.csv,"Read Version C","Dissertation, read only version C",WET,DRY,Study2,S,146,101,Test,User,-,,Recall,Recall2,2090,dry,100,1391,1960,1,1,,1
5e81eabc6db6e88e6b519e67,4gdjiy53ma,Nick_Dissertation_EX1,1,299,2020-06-02T09:19:47-07:00,3.7655110359192,3,versionC_stim.csv,READVersionC.csv,"Read Version C","Dissertation, read only version C",DONKEY,MULE,Study2,B,108,113,Test,User,-,,Recall,Recall2,3466,mule,100,1848,3314,1,1,,1
5e81eabc6db6e88e6b519e67,4gdjiy53ma,Nick_Dissertation_EX1,1,300,2020-06-02T09:19:49-07:00,2.0943441390991,3,versionC_stim.csv,READVersionC.csv,"Read Version C","Dissertation, read only version C",MAROON,JUSTICE,Study2,U,156,143,Test,User,-,,Recall,Recall2,1801,red,20,1410,1738,0,0,,1
5e81eabc6db6e88e6b519e67,4gdjiy53ma,Nick_Dissertation_EX1,1,301,2020-06-02T09:19:51-07:00,1.9210259914398,3,versionC_stim.csv,READVersionC.csv,"Read Version C","Dissertation, read only version C",LEAGUE,BASEBALL,Study2,F,131,134,Test,User,-,,Recall,Recall2,1635,,0,-1,-1,0,0,,1
5e81eabc6db6e88e6b519e67,4gdjiy53ma,Nick_Dissertation_EX1,1,302,2020-06-02T09:19:58-07:00,7.3273198604584,3,versionC_stim.csv,READVersionC.csv,"Read Version C","Dissertation, read only version C",TIE,SHOELACE,Study2,B,99,145,Test,User,-,,Recall,Recall2,6956,"shoe lacer",88.888888888889,2221,6876,0,1,,1
5e81eabc6db6e88e6b519e67,4gdjiy53ma,Nick_Dissertation_EX1,1,303,2020-06-02T09:20:03-07:00,5.1567850112915,3,versionC_stim.csv,READVersionC.csv,"Read Version C","Dissertation, read only version C",TRASH,LITTER,Study2,B,103,136,Test,User,-,,Recall,Recall2,4867,,0,-1,-1,0,0,,1
5e81eabc6db6e88e6b519e67,4gdjiy53ma,Nick_Dissertation_EX1,1,304,2020-06-02T09:20:05-07:00,1.9975321292877,3,versionC_stim.csv,READVersionC.csv,"Read Version C","Dissertation, read only version C",AWAY,GONE,Study2,S,142,153,Test,User,-,,Recall,Recall2,1693,,0,-1,-1,0,0,,1
5e81eabc6db6e88e6b519e67,4gdjiy53ma,Nick_Dissertation_EX1,1,305,2020-06-02T09:20:08-07:00,3.3220238685608,3,versionC_stim.csv,READVersionC.csv,"Read Version C","Dissertation, read only version C",LIE,TRUTH,Study2,S,148,109,Test,User,-,,Recall,Recall2,3034,trith,80,2212,2830,0,1,,1
5e81eabc6db6e88e6b519e67,4gdjiy53ma,Nick_Dissertation_EX1,1,306,2020-06-02T09:20:12-07:00,3.4358811378479,3,versionC_stim.csv,READVersionC.csv,"Read Version C","Dissertation, read only version C",COFFIN,DEAD,Study2,F,128,137,Test,User,-,,Recall,Recall2,3138,,0,-1,-1,0,0,,1
5e81eabc6db6e88e6b519e67,4gdjiy53ma,Nick_Dissertation_EX1,1,307,2020-06-02T09:20:13-07:00,1.5883839130402,3,versionC_stim.csv,READVersionC.csv,"Read Version C","Dissertation, read only version C",REVENGE,EVEN,Study2,F,122,128,Test,User,-,,Recall,Recall2,1298,,0,-1,-1,0,0,,1
5e81eabc6db6e88e6b519e67,4gdjiy53ma,Nick_Dissertation_EX1,1,308,2020-06-02T09:20:15-07:00,1.2924630641937,3,versionC_stim.csv,READVersionC.csv,"Read Version C","Dissertation, read only version C",COMMUNICATION,PHONE,Study2,S,149,171,Test,User,-,,Recall,Recall2,1006,,0,-1,-1,0,0,,1
5e81eabc6db6e88e6b519e67,4gdjiy53ma,Nick_Dissertation_EX1,1,309,2020-06-02T09:20:19-07:00,4.5897798538208,3,versionC_stim.csv,READVersionC.csv,"Read Version C","Dissertation, read only version C",STRAWBERRY,FRUIT,Study2,F,124,117,Test,User,-,,Recall,Recall2,4300,fruit,100,2975,4168,1,1,,1
5e81eabc6db6e88e6b519e67,4gdjiy53ma,Nick_Dissertation_EX1,1,310,2020-06-02T09:20:22-07:00,2.4188721179962,3,versionC_stim.csv,READVersionC.csv,"Read Version C","Dissertation, read only version C",BANKER,MONEY,Study2,F,132,160,Test,User,-,,Recall,Recall2,2127,money,100,1250,1936,1,1,,1
5e81eabc6db6e88e6b519e67,4gdjiy53ma,Nick_Dissertation_EX1,1,311,2020-06-02T09:20:24-07:00,2.4090509414673,3,versionC_stim.csv,READVersionC.csv,"Read Version C","Dissertation, read only version C",HAVE,OWN,Study2,S,153,119,Test,User,-,,Recall,Recall2,2118,give,0,1288,1990,0,0,,1
5e81eabc6db6e88e6b519e67,4gdjiy53ma,Nick_Dissertation_EX1,1,312,2020-06-02T09:20:26-07:00,2.1261610984802,3,versionC_stim.csv,READVersionC.csv,"Read Version C","Dissertation, read only version C",SCAR,MAIN,Study2,U,175,147,Test,User,-,,Recall,Recall2,1845,,0,-1,-1,0,0,,1
5e81eabc6db6e88e6b519e67,4gdjiy53ma,Nick_Dissertation_EX1,1,313,2020-06-02T09:20:30-07:00,3.2807960510254,3,versionC_stim.csv,READVersionC.csv,"Read Version C","Dissertation, read only version C",PAPER,DOCUMENT,Study2,B,109,135,Test,User,-,,Recall,Recall2,2991,cute,50,2277,2711,0,0,,1
5e81eabc6db6e88e6b519e67,4gdjiy53ma,Nick_Dissertation_EX1,1,314,2020-06-02T09:20:35-07:00,5.0247948169708,3,versionC_stim.csv,READVersionC.csv,"Read Version C","Dissertation, read only version C",COLD,CHILL,Study2,B,114,175,Test,User,-,,Recall,Recall2,4711,warm,0,3088,4557,0,0,,1
5e81eabc6db6e88e6b519e67,4gdjiy53ma,Nick_Dissertation_EX1,1,315,2020-06-02T09:20:36-07:00,1.5406789779663,3,versionC_stim.csv,READVersionC.csv,"Read Version C","Dissertation, read only version C",ACTRESS,STAR,Study2,F,120,99,Test,User,-,,Recall,Recall2,1253,,0,-1,-1,0,0,,1
5e81eabc6db6e88e6b519e67,4gdjiy53ma,Nick_Dissertation_EX1,1,316,2020-06-02T09:20:41-07:00,5.1937000751495,3,versionC_stim.csv,READVersionC.csv,"Read Version C","Dissertation, read only version C",SMELL,INCENSE,Study2,B,110,173,Test,User,-,,Recall,Recall2,4906,stench,30.769230769231,2247,4361,0,0,,1
5e81eabc6db6e88e6b519e67,4gdjiy53ma,Nick_Dissertation_EX1,1,317,2020-06-02T09:20:43-07:00,1.3339469432831,3,versionC_stim.csv,READVersionC.csv,"Read Version C","Dissertation, read only version C",JOKE,KEYS,Study2,U,165,155,Test,User,-,,Recall,Recall2,1045,,0,-1,-1,0,0,,1
5e81eabc6db6e88e6b519e67,4gdjiy53ma,Nick_Dissertation_EX1,1,318,2020-06-02T09:20:44-07:00,1.1991591453552,3,versionC_stim.csv,READVersionC.csv,"Read Version C","Dissertation, read only version C",SIGN,LOAN,Study2,U,171,152,Test,User,-,,Recall,Recall2,905,,0,-1,-1,0,0,,1
5e81eabc6db6e88e6b519e67,4gdjiy53ma,Nick_Dissertation_EX1,1,319,2020-06-02T09:20:50-07:00,6.306156873703,3,versionC_stim.csv,READVersionC.csv,"Read Version C","Dissertation, read only version C",CUT,CHOP,Study2,B,107,142,Test,User,-,,Recall,Recall2,6016,scissors,33.333333333333,2134,4365,0,0,,1
5e81eabc6db6e88e6b519e67,4gdjiy53ma,Nick_Dissertation_EX1,1,320,2020-06-02T09:20:55-07:00,4.7851781845093,3,versionC_stim.csv,READVersionC.csv,"Read Version C","Dissertation, read only version C",SHAVE,RAZOR,Study2,S,136,105,Test,User,-,,Recall,Recall2,4493,razer,80,1940,4021,0,1,,1
5e81eabc6db6e88e6b519e67,4gdjiy53ma,Nick_Dissertation_EX1,1,321,2020-06-02T09:20:56-07:00,1.5216689109802,3,versionC_stim.csv,READVersionC.csv,"Read Version C","Dissertation, read only version C",AIRCRAFT,PLANE,Study2,F,129,163,Test,User,-,,Recall,Recall2,1234,,0,-1,-1,0,0,,1
5e81eabc6db6e88e6b519e67,4gdjiy53ma,Nick_Dissertation_EX1,1,322,2020-06-02T09:20:58-07:00,1.5941948890686,3,versionC_stim.csv,READVersionC.csv,"Read Version C","Dissertation, read only version C",WINDSHIELD,CAR,Study2,F,117,126,Test,User,-,,Recall,Recall2,1302,,0,-1,-1,0,0,,1
5e81eabc6db6e88e6b519e67,4gdjiy53ma,Nick_Dissertation_EX1,1,323,2020-06-02T09:21:01-07:00,2.6123621463776,3,versionC_stim.csv,READVersionC.csv,"Read Version C","Dissertation, read only version C",BALLOON,POP,Study2,F,123,131,Test,User,-,,Recall,Recall2,2322,fly,0,1557,2183,0,0,,1
5e81eabc6db6e88e6b519e67,4gdjiy53ma,Nick_Dissertation_EX1,1,324,2020-06-02T09:21:02-07:00,1.2615480422974,3,versionC_stim.csv,READVersionC.csv,"Read Version C","Dissertation, read only version C",MYSTERY,DETECTIVE,Study2,B,100,140,Test,User,-,,Recall,Recall2,954,,0,-1,-1,0,0,,1
5e81eabc6db6e88e6b519e67,4gdjiy53ma,Nick_Dissertation_EX1,1,325,2020-06-02T09:21:04-07:00,1.715518951416,3,versionC_stim.csv,READVersionC.csv,"Read Version C","Dissertation, read only version C",GROUND,EARTH,Study2,S,144,118,Test,User,-,,Recall,Recall2,1427,,0,-1,-1,0,0,,1
5e81eabc6db6e88e6b519e67,4gdjiy53ma,Nick_Dissertation_EX1,1,326,2020-06-02T09:21:05-07:00,1.5162479877472,3,versionC_stim.csv,READVersionC.csv,"Read Version C","Dissertation, read only version C",CLOTHES,CAKE,Study2,U,166,162,Test,User,-,,Recall,Recall2,1229,,0,-1,-1,0,0,,1
5e81eabc6db6e88e6b519e67,4gdjiy53ma,Nick_Dissertation_EX1,1,327,2020-06-02T09:21:06-07:00,1.24582695961,3,versionC_stim.csv,READVersionC.csv,"Read Version C","Dissertation, read only version C",BRACELET,WRIST,Study2,S,140,115,Test,User,-,,Recall,Recall2,962,,0,-1,-1,0,0,,1
5e81eabc6db6e88e6b519e67,4gdjiy53ma,Nick_Dissertation_EX1,1,328,2020-06-02T09:21:09-07:00,2.3099200725555,3,versionC_stim.csv,READVersionC.csv,"Read Version C","Dissertation, read only version C",NAP,SLEEP,Study2,F,134,151,Test,User,-,,Recall,Recall2,2025,sleep,100,1285,1850,1,1,,1
5e81eabc6db6e88e6b519e67,4gdjiy53ma,Nick_Dissertation_EX1,1,329,2020-06-02T09:21:19-07:00,9.8465719223022,3,versionC_stim.csv,READVersionC.csv,"Read Version C","Dissertation, read only version C",SEATBELT,SAFETY,Study2,S,147,129,Test,User,-,,Recall,Recall2,9558,safety,100,1384,6538,1,1,,1
5e81eabc6db6e88e6b519e67,4gdjiy53ma,Nick_Dissertation_EX1,1,330,2020-06-02T09:21:20-07:00,1.2111608982086,3,versionC_stim.csv,READVersionC.csv,"Read Version C","Dissertation, read only version C",BRAWL,FIGHT,Study2,F,135,97,Test,User,-,,Recall,Recall2,915,,0,-1,-1,0,0,,1
5e81eabc6db6e88e6b519e67,4gdjiy53ma,Nick_Dissertation_EX1,1,331,2020-06-02T09:21:21-07:00,1.3263010978699,3,versionC_stim.csv,READVersionC.csv,"Read Version C","Dissertation, read only version C",SHAKE,Shell,Study2,U,163,164,Test,User,-,,Recall,Recall2,1037,,0,-1,-1,0,0,,1
5e81eabc6db6e88e6b519e67,4gdjiy53ma,Nick_Dissertation_EX1,1,332,2020-06-02T09:21:23-07:00,1.5057699680328,3,versionC_stim.csv,READVersionC.csv,"Read Version C","Dissertation, read only version C",CAR,DRIVER,Study2,B,106,170,Test,User,-,,Recall,Recall2,1215,,0,-1,-1,0,0,,1
5e81eabc6db6e88e6b519e67,4gdjiy53ma,Nick_Dissertation_EX1,1,333,2020-06-02T09:21:24-07:00,1.5801191329956,3,versionC_stim.csv,READVersionC.csv,"Read Version C","Dissertation, read only version C",TEMPER,TANTRUM,Study2,S,154,169,Test,User,-,,Recall,Recall2,1288,,0,-1,-1,0,0,,1
5e81eabc6db6e88e6b519e67,4gdjiy53ma,Nick_Dissertation_EX1,1,334,2020-06-02T09:21:25-07:00,1.1261398792267,3,versionC_stim.csv,READVersionC.csv,"Read Version C","Dissertation, read only version C",HEAD,SCALP,Study2,B,105,165,Test,User,-,,Recall,Recall2,832,,0,-1,-1,0,0,,1
5e81eabc6db6e88e6b519e67,4gdjiy53ma,Nick_Dissertation_EX1,1,335,2020-06-02T09:21:27-07:00,1.7209601402283,3,versionC_stim.csv,READVersionC.csv,"Read Version C","Dissertation, read only version C",WAX,CANDLE,Study2,S,139,149,Test,User,-,,Recall,Recall2,1389,,0,-1,-1,0,0,,1
5e81eabc6db6e88e6b519e67,4gdjiy53ma,Nick_Dissertation_EX1,1,336,2020-06-02T09:21:28-07:00,1.0405359268188,3,versionC_stim.csv,READVersionC.csv,"Read Version C","Dissertation, read only version C",CARBON,ELEMENT,Study2,S,141,127,Test,User,-,,Recall,Recall2,736,,0,-1,-1,0,0,,1
5e81eabc6db6e88e6b519e67,4gdjiy53ma,Nick_Dissertation_EX1,1,337,2020-06-02T09:21:30-07:00,2.2482478618622,3,versionC_stim.csv,READVersionC.csv,"Read Version C","Dissertation, read only version C",FIGHT,FEUD,Study2,B,113,100,Test,User,-,,Recall,Recall2,941,,0,-1,-1,0,0,,1
5e81eabc6db6e88e6b519e67,4gdjiy53ma,Nick_Dissertation_EX1,1,338,2020-06-02T09:21:32-07:00,1.7338111400604,3,versionC_stim.csv,READVersionC.csv,"Read Version C","Dissertation, read only version C",DOG,FURRY,Study2,B,102,150,Test,User,-,,Recall,Recall2,1441,,0,-1,-1,0,0,,1
5e81eabc6db6e88e6b519e67,4gdjiy53ma,Nick_Dissertation_EX1,1,339,2020-06-02T09:21:33-07:00,1.1801650524139,3,versionC_stim.csv,READVersionC.csv,"Read Version C","Dissertation, read only version C",BREAKABLE,GLASS,Study2,F,127,122,Test,User,-,,Recall,Recall2,883,,0,-1,-1,0,0,,1
5e81eabc6db6e88e6b519e67,4gdjiy53ma,Nick_Dissertation_EX1,1,340,2020-06-02T09:21:34-07:00,0.9482889175415,3,versionC_stim.csv,READVersionC.csv,"Read Version C","Dissertation, read only version C",TICK,FLEA,Study2,S,151,166,Test,User,-,,Recall,Recall2,660,,0,-1,-1,0,0,,1
5e81eabc6db6e88e6b519e67,4gdjiy53ma,Nick_Dissertation_EX1,1,341,2020-06-02T09:21:35-07:00,1.163330078125,3,versionC_stim.csv,READVersionC.csv,"Read Version C","Dissertation, read only version C",NOISE,LOUD,Study2,S,152,174,Test,User,-,,Recall,Recall2,864,,0,-1,-1,0,0,,1
5e81eabc6db6e88e6b519e67,4gdjiy53ma,Nick_Dissertation_EX1,1,342,2020-06-02T09:21:36-07:00,0.92984485626221,3,versionC_stim.csv,READVersionC.csv,"Read Version C","Dissertation, read only version C",FLIP,TURN,Study2,F,116,98,Test,User,-,,Recall,Recall2,635,,0,-1,-1,0,0,,1
5e81eabc6db6e88e6b519e67,4gdjiy53ma,Nick_Dissertation_EX1,1,343,2020-06-02T09:21:37-07:00,1.0490009784698,3,versionC_stim.csv,READVersionC.csv,"Read Version C","Dissertation, read only version C",PANTHER,CAT,Study2,F,126,132,Test,User,-,,Recall,Recall2,758,,0,-1,-1,0,0,,1
5e81eabc6db6e88e6b519e67,4gdjiy53ma,Nick_Dissertation_EX1,1,344,2020-06-02T09:21:41-07:00,3.9068431854248,3,versionC_stim.csv,READVersionC.csv,"Read Version C","Dissertation, read only version C",REEL,ROD,Study2,S,150,148,Test,User,-,,Recall,Recall2,3528,fishing,0,1972,3378,0,0,,1
5e81eabc6db6e88e6b519e67,4gdjiy53ma,Nick_Dissertation_EX1,1,345,2020-06-02T09:21:44-07:00,3.1976327896118,3,versionC_stim.csv,READVersionC.csv,"Read Version C","Dissertation, read only version C",OUNCE,BOTH,Study2,U,172,106,Test,User,-,,Recall,Recall2,2906,weight,20,1806,2551,0,0,,1
5e81eabc6db6e88e6b519e67,4gdjiy53ma,Nick_Dissertation_EX1,1,346,2020-06-02T09:21:46-07:00,1.2590889930725,3,versionC_stim.csv,READVersionC.csv,"Read Version C","Dissertation, read only version C",ELECTION,MAZE,Study2,U,159,110,Test,User,-,,Recall,Recall2,960,,0,-1,-1,0,0,,1
5e81eabc6db6e88e6b519e67,4gdjiy53ma,Nick_Dissertation_EX1,1,347,2020-06-02T09:21:48-07:00,2.4406452178955,3,versionC_stim.csv,READVersionC.csv,"Read Version C","Dissertation, read only version C",BANG,FUZZY,Study2,U,168,120,Test,User,-,,Recall,Recall2,2142,loud,22.222222222222,1417,1984,0,0,,1
5e81eabc6db6e88e6b519e67,4gdjiy53ma,Nick_Dissertation_EX1,1,348,2020-06-02T09:21:49-07:00,1.2971298694611,3,versionC_stim.csv,READVersionC.csv,"Read Version C","Dissertation, read only version C",CLOTH,STRETCH,Study2,U,157,114,Test,User,-,,Recall,Recall2,1013,,0,-1,-1,0,0,,1
