Username,ID,ExperimentName,Session,Trial,Date,TimeDif,"Condition Number","Stimuli File","Order File","Condition Description","Condition Notes",Stimuli*Cue,Stimuli*Answer,Stimuli*Shuffle,"Stimuli*Stimuli Notes",Stimuli*Value,Procedure*Item,"Procedure*Trial Type","Procedure*Max Time","Procedure*Min Time",Procedure*Text,"Procedure*Procedure Notes",Procedure*Shuffle,Response*RT,Response*Response,Response*Accuracy,Response*RTfirst,Response*RTlast,Response*strictAcc,Response*lenientAcc,Response*focus,Response*Focus
5d12803df8388b00193c69cb,tsahnjxiyx,Nick_Dissertation_EX1,1,1,2020-06-02T09:55:04-07:00,11.192497014999,2,versionA_stim.csv,READVersionB.csv,"Read Version B","Dissertation, read only version B",,,,,,0,Instruct,-,10,"Please study each of the following word pairs. Remember that your memory will be tested! When finished, press Enter to move to the next pair.",Initial_Instruct,Instruct1,10812,,,-1,-1,,,,1
5d12803df8388b00193c69cb,tsahnjxiyx,Nick_Dissertation_EX1,1,2,2020-06-02T09:55:08-07:00,3.5734992027283,2,versionA_stim.csv,READVersionB.csv,"Read Version B","Dissertation, read only version B",CARROT,POTATO,BUFFER3,Buffer,91,96,Study,User,-,,Study/JOL,BUFFER,3014,,,-1,-1,,,,1
5d12803df8388b00193c69cb,tsahnjxiyx,Nick_Dissertation_EX1,1,3,2020-06-02T09:55:11-07:00,2.6947729587555,2,versionA_stim.csv,READVersionB.csv,"Read Version B","Dissertation, read only version B",CAMP,ADVENTURE,BUFFER3,Buffer,95,95,Study,User,-,,Study/JOL,BUFFER,2187,,,-1,-1,,,,1
5d12803df8388b00193c69cb,tsahnjxiyx,Nick_Dissertation_EX1,1,4,2020-06-02T09:55:15-07:00,4.4301788806915,2,versionA_stim.csv,READVersionB.csv,"Read Version B","Dissertation, read only version B",SHRIMP,FISH,BUFFER3,Buffer,93,92,Study,User,-,,Study/JOL,BUFFER,3925,,,-1,-1,,,,1
5d12803df8388b00193c69cb,tsahnjxiyx,Nick_Dissertation_EX1,1,5,2020-06-02T09:55:17-07:00,1.7677040100098,2,versionA_stim.csv,READVersionB.csv,"Read Version B","Dissertation, read only version B",NOODLE,STRING,BUFFER3,Buffer,92,94,Study,User,-,,Study/JOL,BUFFER,1359,,,-1,-1,,,,1
5d12803df8388b00193c69cb,tsahnjxiyx,Nick_Dissertation_EX1,1,6,2020-06-02T09:55:19-07:00,1.6010251045227,2,versionA_stim.csv,READVersionB.csv,"Read Version B","Dissertation, read only version B",ICE,FROZEN,BUFFER3,Buffer,94,93,Study,User,-,,Study/JOL,BUFFER,1185,,,-1,-1,,,,1
5d12803df8388b00193c69cb,tsahnjxiyx,Nick_Dissertation_EX1,1,7,2020-06-02T09:55:20-07:00,1.1876728534698,2,versionA_stim.csv,READVersionB.csv,"Read Version B","Dissertation, read only version B",DRY,WET,Study2,S,146,131,Study,User,-,,Study/JOL,"Study Phase",778,,,-1,-1,,,,1
5d12803df8388b00193c69cb,tsahnjxiyx,Nick_Dissertation_EX1,1,8,2020-06-02T09:55:21-07:00,1.467071056366,2,versionA_stim.csv,READVersionB.csv,"Read Version B","Dissertation, read only version B",CHILL,COLD,Study2,F,114,129,Study,User,-,,Study/JOL,"Study Phase",1054,,,-1,-1,,,,1
5d12803df8388b00193c69cb,tsahnjxiyx,Nick_Dissertation_EX1,1,9,2020-06-02T09:55:24-07:00,3.0802140235901,2,versionA_stim.csv,READVersionB.csv,"Read Version B","Dissertation, read only version B",TANTRUM,TEMPER,Study2,S,154,106,Study,User,-,,Study/JOL,"Study Phase",2571,,,-1,-1,,,,1
5d12803df8388b00193c69cb,tsahnjxiyx,Nick_Dissertation_EX1,1,10,2020-06-02T09:55:26-07:00,1.5584909915924,2,versionA_stim.csv,READVersionB.csv,"Read Version B","Dissertation, read only version B",CLUE,GAME,Study2,F,97,111,Study,User,-,,Study/JOL,"Study Phase",1167,,,-1,-1,,,,1
5d12803df8388b00193c69cb,tsahnjxiyx,Nick_Dissertation_EX1,1,11,2020-06-02T09:55:27-07:00,1.4997780323029,2,versionA_stim.csv,READVersionB.csv,"Read Version B","Dissertation, read only version B",CAT,PANTHER,Study2,B,126,140,Study,User,-,,Study/JOL,"Study Phase",1075,,,-1,-1,,,,1
5d12803df8388b00193c69cb,tsahnjxiyx,Nick_Dissertation_EX1,1,12,2020-06-02T09:55:29-07:00,1.6385869979858,2,versionA_stim.csv,READVersionB.csv,"Read Version B","Dissertation, read only version B",STRETCH,CLOTH,Study2,U,157,135,Study,User,-,,Study/JOL,"Study Phase",1225,,,-1,-1,,,,1
5d12803df8388b00193c69cb,tsahnjxiyx,Nick_Dissertation_EX1,1,13,2020-06-02T09:55:31-07:00,1.7051899433136,2,versionA_stim.csv,READVersionB.csv,"Read Version B","Dissertation, read only version B",DOCUMENT,PAPER,Study2,F,109,157,Study,User,-,,Study/JOL,"Study Phase",1305,,,-1,-1,,,,1
5d12803df8388b00193c69cb,tsahnjxiyx,Nick_Dissertation_EX1,1,14,2020-06-02T09:55:33-07:00,1.8751640319824,2,versionA_stim.csv,READVersionB.csv,"Read Version B","Dissertation, read only version B",PLANE,AIRCRAFT,Study2,B,129,152,Study,User,-,,Study/JOL,"Study Phase",1476,,,-1,-1,,,,1
5d12803df8388b00193c69cb,tsahnjxiyx,Nick_Dissertation_EX1,1,15,2020-06-02T09:55:34-07:00,1.3518900871277,2,versionA_stim.csv,READVersionB.csv,"Read Version B","Dissertation, read only version B",POP,BALLOON,Study2,B,123,101,Study,User,-,,Study/JOL,"Study Phase",951,,,-1,-1,,,,1
5d12803df8388b00193c69cb,tsahnjxiyx,Nick_Dissertation_EX1,1,16,2020-06-02T09:55:35-07:00,1.2125968933105,2,versionA_stim.csv,READVersionB.csv,"Read Version B","Dissertation, read only version B",OWN,HAVE,Study2,S,153,149,Study,User,-,,Study/JOL,"Study Phase",807,,,-1,-1,,,,1
5d12803df8388b00193c69cb,tsahnjxiyx,Nick_Dissertation_EX1,1,17,2020-06-02T09:55:36-07:00,1.265762090683,2,versionA_stim.csv,READVersionB.csv,"Read Version B","Dissertation, read only version B",GLASS,BREAKABLE,Study2,B,127,98,Study,User,-,,Study/JOL,"Study Phase",864,,,-1,-1,,,,1
5d12803df8388b00193c69cb,tsahnjxiyx,Nick_Dissertation_EX1,1,18,2020-06-02T09:55:38-07:00,1.6477129459381,2,versionA_stim.csv,READVersionB.csv,"Read Version B","Dissertation, read only version B",BOTH,OUNCE,Study2,U,172,99,Study,User,-,,Study/JOL,"Study Phase",1256,,,-1,-1,,,,1
5d12803df8388b00193c69cb,tsahnjxiyx,Nick_Dissertation_EX1,1,19,2020-06-02T09:55:39-07:00,0.97088289260864,2,versionA_stim.csv,READVersionB.csv,"Read Version B","Dissertation, read only version B",CRACKLE,ABLE,Study2,U,162,163,Study,User,-,,Study/JOL,"Study Phase",569,,,-1,-1,,,,1
5d12803df8388b00193c69cb,tsahnjxiyx,Nick_Dissertation_EX1,1,20,2020-06-02T09:55:41-07:00,1.7397990226746,2,versionA_stim.csv,READVersionB.csv,"Read Version B","Dissertation, read only version B",EVEN,REVENGE,Study2,B,122,173,Study,User,-,,Study/JOL,"Study Phase",1337,,,-1,-1,,,,1
5d12803df8388b00193c69cb,tsahnjxiyx,Nick_Dissertation_EX1,1,21,2020-06-02T09:55:42-07:00,1.13028216362,2,versionA_stim.csv,READVersionB.csv,"Read Version B","Dissertation, read only version B",FIGHT,BRAWL,Study2,B,135,122,Study,User,-,,Study/JOL,"Study Phase",735,,,-1,-1,,,,1
5d12803df8388b00193c69cb,tsahnjxiyx,Nick_Dissertation_EX1,1,22,2020-06-02T09:55:43-07:00,1.1262228488922,2,versionA_stim.csv,READVersionB.csv,"Read Version B","Dissertation, read only version B",RAZOR,SHAVE,Study2,S,136,164,Study,User,-,,Study/JOL,"Study Phase",711,,,-1,-1,,,,1
5d12803df8388b00193c69cb,tsahnjxiyx,Nick_Dissertation_EX1,1,23,2020-06-02T09:55:44-07:00,1.1040170192719,2,versionA_stim.csv,READVersionB.csv,"Read Version B","Dissertation, read only version B",LEASE,TOIL,Study2,U,170,167,Study,User,-,,Study/JOL,"Study Phase",693,,,-1,-1,,,,1
5d12803df8388b00193c69cb,tsahnjxiyx,Nick_Dissertation_EX1,1,24,2020-06-02T09:55:45-07:00,1.2111539840698,2,versionA_stim.csv,READVersionB.csv,"Read Version B","Dissertation, read only version B",DINE,EAT,Study2,F,111,174,Study,User,-,,Study/JOL,"Study Phase",800,,,-1,-1,,,,1
5d12803df8388b00193c69cb,tsahnjxiyx,Nick_Dissertation_EX1,1,25,2020-06-02T09:55:47-07:00,1.3308351039886,2,versionA_stim.csv,READVersionB.csv,"Read Version B","Dissertation, read only version B",GIVE,STEAK,Study2,U,158,175,Study,User,-,,Study/JOL,"Study Phase",934,,,-1,-1,,,,1
5d12803df8388b00193c69cb,tsahnjxiyx,Nick_Dissertation_EX1,1,26,2020-06-02T09:55:48-07:00,1.5721869468689,2,versionA_stim.csv,READVersionB.csv,"Read Version B","Dissertation, read only version B",THREAD,THIMBLE,Study2,B,121,137,Study,User,-,,Study/JOL,"Study Phase",1158,,,-1,-1,,,,1
5d12803df8388b00193c69cb,tsahnjxiyx,Nick_Dissertation_EX1,1,27,2020-06-02T09:55:50-07:00,1.4770679473877,2,versionA_stim.csv,READVersionB.csv,"Read Version B","Dissertation, read only version B",JUSTICE,MAROON,Study2,U,156,136,Study,User,-,,Study/JOL,"Study Phase",1078,,,-1,-1,,,,1
5d12803df8388b00193c69cb,tsahnjxiyx,Nick_Dissertation_EX1,1,28,2020-06-02T09:55:51-07:00,1.3254909515381,2,versionA_stim.csv,READVersionB.csv,"Read Version B","Dissertation, read only version B",EXTENSION,LONG,Study2,F,96,145,Study,User,-,,Study/JOL,"Study Phase",898,,,-1,-1,,,,1
5d12803df8388b00193c69cb,tsahnjxiyx,Nick_Dissertation_EX1,1,29,2020-06-02T09:55:52-07:00,1.17214012146,2,versionA_stim.csv,READVersionB.csv,"Read Version B","Dissertation, read only version B",CHOP,CUT,Study2,F,107,153,Study,User,-,,Study/JOL,"Study Phase",759,,,-1,-1,,,,1
5d12803df8388b00193c69cb,tsahnjxiyx,Nick_Dissertation_EX1,1,30,2020-06-02T09:55:53-07:00,1.1564149856567,2,versionA_stim.csv,READVersionB.csv,"Read Version B","Dissertation, read only version B",TEMPERATURE,Morning,Study2,U,173,103,Study,User,-,,Study/JOL,"Study Phase",754,,,-1,-1,,,,1
5d12803df8388b00193c69cb,tsahnjxiyx,Nick_Dissertation_EX1,1,31,2020-06-02T09:55:55-07:00,1.2411971092224,2,versionA_stim.csv,READVersionB.csv,"Read Version B","Dissertation, read only version B",HONEST,TRUTHFUL,Study2,B,133,105,Study,User,-,,Study/JOL,"Study Phase",837,,,-1,-1,,,,1
5d12803df8388b00193c69cb,tsahnjxiyx,Nick_Dissertation_EX1,1,32,2020-06-02T09:55:56-07:00,1.3483879566193,2,versionA_stim.csv,READVersionB.csv,"Read Version B","Dissertation, read only version B",RIGHTS,EQUAL,Study2,S,137,124,Study,User,-,,Study/JOL,"Study Phase",881,,,-1,-1,,,,1
5d12803df8388b00193c69cb,tsahnjxiyx,Nick_Dissertation_EX1,1,33,2020-06-02T09:55:57-07:00,1.1628768444061,2,versionA_stim.csv,READVersionB.csv,"Read Version B","Dissertation, read only version B",DEAD,COFFIN,Study2,B,128,165,Study,User,-,,Study/JOL,"Study Phase",750,,,-1,-1,,,,1
5d12803df8388b00193c69cb,tsahnjxiyx,Nick_Dissertation_EX1,1,34,2020-06-02T09:55:58-07:00,1.0899651050568,2,versionA_stim.csv,READVersionB.csv,"Read Version B","Dissertation, read only version B",SLEEP,NAP,Study2,B,134,115,Study,User,-,,Study/JOL,"Study Phase",691,,,-1,-1,,,,1
5d12803df8388b00193c69cb,tsahnjxiyx,Nick_Dissertation_EX1,1,35,2020-06-02T09:55:59-07:00,0.99708199501038,2,versionA_stim.csv,READVersionB.csv,"Read Version B","Dissertation, read only version B",FLEA,TICK,Study2,S,151,159,Study,User,-,,Study/JOL,"Study Phase",604,,,-1,-1,,,,1
5d12803df8388b00193c69cb,tsahnjxiyx,Nick_Dissertation_EX1,1,36,2020-06-02T09:56:00-07:00,1.0798609256744,2,versionA_stim.csv,READVersionB.csv,"Read Version B","Dissertation, read only version B",MAZE,ELECTION,Study2,U,159,161,Study,User,-,,Study/JOL,"Study Phase",679,,,-1,-1,,,,1
5d12803df8388b00193c69cb,tsahnjxiyx,Nick_Dissertation_EX1,1,37,2020-06-02T09:56:01-07:00,1.0836200714111,2,versionA_stim.csv,READVersionB.csv,"Read Version B","Dissertation, read only version B",AFFECTION,LOVE,Study2,F,115,118,Study,User,-,,Study/JOL,"Study Phase",664,,,-1,-1,,,,1
5d12803df8388b00193c69cb,tsahnjxiyx,Nick_Dissertation_EX1,1,38,2020-06-02T09:56:02-07:00,1.0597829818726,2,versionA_stim.csv,READVersionB.csv,"Read Version B","Dissertation, read only version B",SAFETY,SEATBELT,Study2,S,147,133,Study,User,-,,Study/JOL,"Study Phase",663,,,-1,-1,,,,1
5d12803df8388b00193c69cb,tsahnjxiyx,Nick_Dissertation_EX1,1,39,2020-06-02T09:56:03-07:00,0.99914598464966,2,versionA_stim.csv,READVersionB.csv,"Read Version B","Dissertation, read only version B",DRIVER,CAR,Study2,F,106,107,Study,User,-,,Study/JOL,"Study Phase",603,,,-1,-1,,,,1
5d12803df8388b00193c69cb,tsahnjxiyx,Nick_Dissertation_EX1,1,40,2020-06-02T09:56:04-07:00,0.93147706985474,2,versionA_stim.csv,READVersionB.csv,"Read Version B","Dissertation, read only version B",BAD,VILLAIN,Study2,B,118,128,Study,User,-,,Study/JOL,"Study Phase",533,,,-1,-1,,,,1
5d12803df8388b00193c69cb,tsahnjxiyx,Nick_Dissertation_EX1,1,41,2020-06-02T09:56:05-07:00,0.87871384620667,2,versionA_stim.csv,READVersionB.csv,"Read Version B","Dissertation, read only version B",BIRD,PENGUIN,Study2,B,119,169,Study,User,-,,Study/JOL,"Study Phase",464,,,-1,-1,,,,1
5d12803df8388b00193c69cb,tsahnjxiyx,Nick_Dissertation_EX1,1,42,2020-06-02T09:56:06-07:00,0.95843100547791,2,versionA_stim.csv,READVersionB.csv,"Read Version B","Dissertation, read only version B",MEAT,OBTAIN,Study2,U,161,120,Study,User,-,,Study/JOL,"Study Phase",551,,,-1,-1,,,,1
5d12803df8388b00193c69cb,tsahnjxiyx,Nick_Dissertation_EX1,1,43,2020-06-02T09:56:07-07:00,0.99183320999146,2,versionA_stim.csv,READVersionB.csv,"Read Version B","Dissertation, read only version B",CHERRY,RED,Study2,F,104,113,Study,User,-,,Study/JOL,"Study Phase",572,,,-1,-1,,,,1
5d12803df8388b00193c69cb,tsahnjxiyx,Nick_Dissertation_EX1,1,44,2020-06-02T09:56:09-07:00,1.3214328289032,2,versionA_stim.csv,READVersionB.csv,"Read Version B","Dissertation, read only version B",Shell,SHAKE,Study2,U,163,168,Study,User,-,,Study/JOL,"Study Phase",908,,,-1,-1,,,,1
5d12803df8388b00193c69cb,tsahnjxiyx,Nick_Dissertation_EX1,1,45,2020-06-02T09:56:10-07:00,1.1715929508209,2,versionA_stim.csv,READVersionB.csv,"Read Version B","Dissertation, read only version B",LOAN,SIGN,Study2,U,171,141,Study,User,-,,Study/JOL,"Study Phase",777,,,-1,-1,,,,1
5d12803df8388b00193c69cb,tsahnjxiyx,Nick_Dissertation_EX1,1,46,2020-06-02T09:56:11-07:00,1.470810174942,2,versionA_stim.csv,READVersionB.csv,"Read Version B","Dissertation, read only version B",LITTER,TRASH,Study2,F,103,110,Study,User,-,,Study/JOL,"Study Phase",1078,,,-1,-1,,,,1
5d12803df8388b00193c69cb,tsahnjxiyx,Nick_Dissertation_EX1,1,47,2020-06-02T09:56:12-07:00,0.89900684356689,2,versionA_stim.csv,READVersionB.csv,"Read Version B","Dissertation, read only version B",FUZZY,BANG,Study2,U,168,126,Study,User,-,,Study/JOL,"Study Phase",488,,,-1,-1,,,,1
5d12803df8388b00193c69cb,tsahnjxiyx,Nick_Dissertation_EX1,1,48,2020-06-02T09:56:13-07:00,0.97473907470703,2,versionA_stim.csv,READVersionB.csv,"Read Version B","Dissertation, read only version B",CANDLE,WAX,Study2,S,139,170,Study,User,-,,Study/JOL,"Study Phase",553,,,-1,-1,,,,1
5d12803df8388b00193c69cb,tsahnjxiyx,Nick_Dissertation_EX1,1,49,2020-06-02T09:56:14-07:00,0.93592405319214,2,versionA_stim.csv,READVersionB.csv,"Read Version B","Dissertation, read only version B",TRUTH,LIE,Study2,S,148,108,Study,User,-,,Study/JOL,"Study Phase",527,,,-1,-1,,,,1
5d12803df8388b00193c69cb,tsahnjxiyx,Nick_Dissertation_EX1,1,50,2020-06-02T09:56:15-07:00,0.99913597106934,2,versionA_stim.csv,READVersionB.csv,"Read Version B","Dissertation, read only version B",CAR,WINDSHIELD,Study2,B,117,100,Study,User,-,,Study/JOL,"Study Phase",606,,,-1,-1,,,,1
5d12803df8388b00193c69cb,tsahnjxiyx,Nick_Dissertation_EX1,1,51,2020-06-02T09:56:16-07:00,0.8826060295105,2,versionA_stim.csv,READVersionB.csv,"Read Version B","Dissertation, read only version B",VEHICLE,CHARM,Study2,U,160,130,Study,User,-,,Study/JOL,"Study Phase",482,,,-1,-1,,,,1
5d12803df8388b00193c69cb,tsahnjxiyx,Nick_Dissertation_EX1,1,52,2020-06-02T09:56:17-07:00,0.93357586860657,2,versionA_stim.csv,READVersionB.csv,"Read Version B","Dissertation, read only version B",WATER,DRINK,Study2,S,143,109,Study,User,-,,Study/JOL,"Study Phase",543,,,-1,-1,,,,1
5d12803df8388b00193c69cb,tsahnjxiyx,Nick_Dissertation_EX1,1,53,2020-06-02T09:56:18-07:00,0.95110607147217,2,versionA_stim.csv,READVersionB.csv,"Read Version B","Dissertation, read only version B",LISTEN,FICTION,Study2,U,164,132,Study,User,-,,Study/JOL,"Study Phase",515,,,-1,-1,,,,1
5d12803df8388b00193c69cb,tsahnjxiyx,Nick_Dissertation_EX1,1,54,2020-06-02T09:56:19-07:00,0.92931914329529,2,versionA_stim.csv,READVersionB.csv,"Read Version B","Dissertation, read only version B",MIRROR,CHILDREN,Study2,U,174,151,Study,User,-,,Study/JOL,"Study Phase",509,,,-1,-1,,,,1
5d12803df8388b00193c69cb,tsahnjxiyx,Nick_Dissertation_EX1,1,55,2020-06-02T09:56:20-07:00,1.1301589012146,2,versionA_stim.csv,READVersionB.csv,"Read Version B","Dissertation, read only version B",BASEBALL,LEAGUE,Study2,B,131,158,Study,User,-,,Study/JOL,"Study Phase",740,,,-1,-1,,,,1
5d12803df8388b00193c69cb,tsahnjxiyx,Nick_Dissertation_EX1,1,56,2020-06-02T09:56:21-07:00,1.0914449691772,2,versionA_stim.csv,READVersionB.csv,"Read Version B","Dissertation, read only version B",FISH,SARDINE,Study2,B,130,148,Study,User,-,,Study/JOL,"Study Phase",695,,,-1,-1,,,,1
5d12803df8388b00193c69cb,tsahnjxiyx,Nick_Dissertation_EX1,1,57,2020-06-02T09:56:22-07:00,0.99807691574097,2,versionA_stim.csv,READVersionB.csv,"Read Version B","Dissertation, read only version B",MULE,DONKEY,Study2,F,108,114,Study,User,-,,Study/JOL,"Study Phase",599,,,-1,-1,,,,1
5d12803df8388b00193c69cb,tsahnjxiyx,Nick_Dissertation_EX1,1,58,2020-06-02T09:56:23-07:00,1.0175080299377,2,versionA_stim.csv,READVersionB.csv,"Read Version B","Dissertation, read only version B",ROD,REEL,Study2,S,150,117,Study,User,-,,Study/JOL,"Study Phase",549,,,-1,-1,,,,1
5d12803df8388b00193c69cb,tsahnjxiyx,Nick_Dissertation_EX1,1,59,2020-06-02T09:56:24-07:00,0.99654412269592,2,versionA_stim.csv,READVersionB.csv,"Read Version B","Dissertation, read only version B",BEST,FAVORITE,Study2,B,125,147,Study,User,-,,Study/JOL,"Study Phase",604,,,-1,-1,,,,1
5d12803df8388b00193c69cb,tsahnjxiyx,Nick_Dissertation_EX1,1,60,2020-06-02T09:56:25-07:00,1.0944080352783,2,versionA_stim.csv,READVersionB.csv,"Read Version B","Dissertation, read only version B",EARTH,GROUND,Study2,S,144,162,Study,User,-,,Study/JOL,"Study Phase",556,,,-1,-1,,,,1
5d12803df8388b00193c69cb,tsahnjxiyx,Nick_Dissertation_EX1,1,61,2020-06-02T09:56:26-07:00,1.0934569835663,2,versionA_stim.csv,READVersionB.csv,"Read Version B","Dissertation, read only version B",FRUIT,STRAWBERRY,Study2,B,124,176,Study,User,-,,Study/JOL,"Study Phase",696,,,-1,-1,,,,1
5d12803df8388b00193c69cb,tsahnjxiyx,Nick_Dissertation_EX1,1,62,2020-06-02T09:56:27-07:00,0.95587682723999,2,versionA_stim.csv,READVersionB.csv,"Read Version B","Dissertation, read only version B",WRIST,BRACELET,Study2,S,140,134,Study,User,-,,Study/JOL,"Study Phase",522,,,-1,-1,,,,1
5d12803df8388b00193c69cb,tsahnjxiyx,Nick_Dissertation_EX1,1,63,2020-06-02T09:56:28-07:00,0.9675350189209,2,versionA_stim.csv,READVersionB.csv,"Read Version B","Dissertation, read only version B",PHONE,COMMUNICATION,Study2,S,149,172,Study,User,-,,Study/JOL,"Study Phase",567,,,-1,-1,,,,1
5d12803df8388b00193c69cb,tsahnjxiyx,Nick_Dissertation_EX1,1,64,2020-06-02T09:56:29-07:00,1.0519871711731,2,versionA_stim.csv,READVersionB.csv,"Read Version B","Dissertation, read only version B",MOAT,CLEAR,Study2,U,169,160,Study,User,-,,Study/JOL,"Study Phase",657,,,-1,-1,,,,1
5d12803df8388b00193c69cb,tsahnjxiyx,Nick_Dissertation_EX1,1,65,2020-06-02T09:56:30-07:00,1.4474678039551,2,versionA_stim.csv,READVersionB.csv,"Read Version B","Dissertation, read only version B",SUN,TAN,Study2,S,155,154,Study,User,-,,Study/JOL,"Study Phase",1050,,,-1,-1,,,,1
5d12803df8388b00193c69cb,tsahnjxiyx,Nick_Dissertation_EX1,1,66,2020-06-02T09:56:31-07:00,0.91024422645569,2,versionA_stim.csv,READVersionB.csv,"Read Version B","Dissertation, read only version B",SCALP,HEAD,Study2,F,105,125,Study,User,-,,Study/JOL,"Study Phase",497,,,-1,-1,,,,1
5d12803df8388b00193c69cb,tsahnjxiyx,Nick_Dissertation_EX1,1,67,2020-06-02T09:56:33-07:00,1.1149129867554,2,versionA_stim.csv,READVersionB.csv,"Read Version B","Dissertation, read only version B",MAIN,SCAR,Study2,U,175,171,Study,User,-,,Study/JOL,"Study Phase",715,,,-1,-1,,,,1
5d12803df8388b00193c69cb,tsahnjxiyx,Nick_Dissertation_EX1,1,68,2020-06-02T09:56:34-07:00,1.5071249008179,2,versionA_stim.csv,READVersionB.csv,"Read Version B","Dissertation, read only version B",FEUD,FIGHT,Study2,F,113,144,Study,User,-,,Study/JOL,"Study Phase",1100,,,-1,-1,,,,1
5d12803df8388b00193c69cb,tsahnjxiyx,Nick_Dissertation_EX1,1,69,2020-06-02T09:56:35-07:00,1.0884470939636,2,versionA_stim.csv,READVersionB.csv,"Read Version B","Dissertation, read only version B",MONEY,BANKER,Study2,B,132,166,Study,User,-,,Study/JOL,"Study Phase",686,,,-1,-1,,,,1
5d12803df8388b00193c69cb,tsahnjxiyx,Nick_Dissertation_EX1,1,70,2020-06-02T09:56:36-07:00,1.171835899353,2,versionA_stim.csv,READVersionB.csv,"Read Version B","Dissertation, read only version B",ELEMENT,CARBON,Study2,S,141,138,Study,User,-,,Study/JOL,"Study Phase",707,,,-1,-1,,,,1
5d12803df8388b00193c69cb,tsahnjxiyx,Nick_Dissertation_EX1,1,71,2020-06-02T09:56:37-07:00,1.0129840373993,2,versionA_stim.csv,READVersionB.csv,"Read Version B","Dissertation, read only version B",GONE,AWAY,Study2,S,142,127,Study,User,-,,Study/JOL,"Study Phase",617,,,-1,-1,,,,1
5d12803df8388b00193c69cb,tsahnjxiyx,Nick_Dissertation_EX1,1,72,2020-06-02T09:56:38-07:00,1.1865890026093,2,versionA_stim.csv,READVersionB.csv,"Read Version B","Dissertation, read only version B",STAR,ACTRESS,Study2,B,120,112,Study,User,-,,Study/JOL,"Study Phase",788,,,-1,-1,,,,1
5d12803df8388b00193c69cb,tsahnjxiyx,Nick_Dissertation_EX1,1,73,2020-06-02T09:56:40-07:00,1.2322180271149,2,versionA_stim.csv,READVersionB.csv,"Read Version B","Dissertation, read only version B",SHOELACE,TIE,Study2,F,99,150,Study,User,-,,Study/JOL,"Study Phase",825,,,-1,-1,,,,1
5d12803df8388b00193c69cb,tsahnjxiyx,Nick_Dissertation_EX1,1,74,2020-06-02T09:56:41-07:00,1.1159219741821,2,versionA_stim.csv,READVersionB.csv,"Read Version B","Dissertation, read only version B",CAKE,CLOTHES,Study2,U,166,104,Study,User,-,,Study/JOL,"Study Phase",691,,,-1,-1,,,,1
5d12803df8388b00193c69cb,tsahnjxiyx,Nick_Dissertation_EX1,1,75,2020-06-02T09:56:43-07:00,2.1581990718842,2,versionA_stim.csv,READVersionB.csv,"Read Version B","Dissertation, read only version B",NAME,HATE,Study2,U,167,139,Study,User,-,,Study/JOL,"Study Phase",1761,,,-1,-1,,,,1
5d12803df8388b00193c69cb,tsahnjxiyx,Nick_Dissertation_EX1,1,76,2020-06-02T09:56:44-07:00,1.1160769462585,2,versionA_stim.csv,READVersionB.csv,"Read Version B","Dissertation, read only version B",KEYS,JOKE,Study2,U,165,156,Study,User,-,,Study/JOL,"Study Phase",710,,,-1,-1,,,,1
5d12803df8388b00193c69cb,tsahnjxiyx,Nick_Dissertation_EX1,1,77,2020-06-02T09:56:45-07:00,1.1283478736877,2,versionA_stim.csv,READVersionB.csv,"Read Version B","Dissertation, read only version B",TURN,FLIP,Study2,B,116,102,Study,User,-,,Study/JOL,"Study Phase",721,,,-1,-1,,,,1
5d12803df8388b00193c69cb,tsahnjxiyx,Nick_Dissertation_EX1,1,78,2020-06-02T09:56:46-07:00,1.137787103653,2,versionA_stim.csv,READVersionB.csv,"Read Version B","Dissertation, read only version B",SHEARS,SCISSORS,Study2,F,112,142,Study,User,-,,Study/JOL,"Study Phase",743,,,-1,-1,,,,1
5d12803df8388b00193c69cb,tsahnjxiyx,Nick_Dissertation_EX1,1,79,2020-06-02T09:56:47-07:00,1.0073530673981,2,versionA_stim.csv,READVersionB.csv,"Read Version B","Dissertation, read only version B",CACTUS,PLANT,Study2,F,98,116,Study,User,-,,Study/JOL,"Study Phase",607,,,-1,-1,,,,1
5d12803df8388b00193c69cb,tsahnjxiyx,Nick_Dissertation_EX1,1,80,2020-06-02T09:56:48-07:00,0.98586201667786,2,versionA_stim.csv,READVersionB.csv,"Read Version B","Dissertation, read only version B",ALONE,LONELY,Study2,S,145,97,Study,User,-,,Study/JOL,"Study Phase",574,,,-1,-1,,,,1
5d12803df8388b00193c69cb,tsahnjxiyx,Nick_Dissertation_EX1,1,81,2020-06-02T09:56:50-07:00,1.162211894989,2,versionA_stim.csv,READVersionB.csv,"Read Version B","Dissertation, read only version B",DETECTIVE,MYSTERY,Study2,F,100,121,Study,User,-,,Study/JOL,"Study Phase",762,,,-1,-1,,,,1
5d12803df8388b00193c69cb,tsahnjxiyx,Nick_Dissertation_EX1,1,82,2020-06-02T09:56:51-07:00,0.97545003890991,2,versionA_stim.csv,READVersionB.csv,"Read Version B","Dissertation, read only version B",FURRY,DOG,Study2,F,102,155,Study,User,-,,Study/JOL,"Study Phase",562,,,-1,-1,,,,1
5d12803df8388b00193c69cb,tsahnjxiyx,Nick_Dissertation_EX1,1,83,2020-06-02T09:56:52-07:00,1.0290479660034,2,versionA_stim.csv,READVersionB.csv,"Read Version B","Dissertation, read only version B",MASON,JAR,Study2,S,138,119,Study,User,-,,Study/JOL,"Study Phase",624,,,-1,-1,,,,1
5d12803df8388b00193c69cb,tsahnjxiyx,Nick_Dissertation_EX1,1,84,2020-06-02T09:56:53-07:00,1.0252358913422,2,versionA_stim.csv,READVersionB.csv,"Read Version B","Dissertation, read only version B",LOUD,NOISE,Study2,S,152,123,Study,User,-,,Study/JOL,"Study Phase",607,,,-1,-1,,,,1
5d12803df8388b00193c69cb,tsahnjxiyx,Nick_Dissertation_EX1,1,85,2020-06-02T09:56:54-07:00,1.0488331317902,2,versionA_stim.csv,READVersionB.csv,"Read Version B","Dissertation, read only version B",ADJOURN,END,Study2,F,101,146,Study,User,-,,Study/JOL,"Study Phase",640,,,-1,-1,,,,1
5d12803df8388b00193c69cb,tsahnjxiyx,Nick_Dissertation_EX1,1,86,2020-06-02T09:56:55-07:00,1.4720740318298,2,versionA_stim.csv,READVersionB.csv,"Read Version B","Dissertation, read only version B",INCENSE,SMELL,Study2,F,110,143,Study,User,-,,Study/JOL,"Study Phase",1016,,,-1,-1,,,,1
5d12803df8388b00193c69cb,tsahnjxiyx,Nick_Dissertation_EX1,1,87,2020-06-02T09:56:57-07:00,1.4203999042511,2,versionA_stim.csv,READVersionB.csv,"Read Version B","Dissertation, read only version B",SPRING,MARCH,BUFFER4,Buffer,179,177,Study,User,-,,Study/JOL,BUFFER2,941,,,-1,-1,,,,1
5d12803df8388b00193c69cb,tsahnjxiyx,Nick_Dissertation_EX1,1,88,2020-06-02T09:56:58-07:00,1.3658800125122,2,versionA_stim.csv,READVersionB.csv,"Read Version B","Dissertation, read only version B",MONTH,YEAR,BUFFER4,Buffer,177,181,Study,User,-,,Study/JOL,BUFFER2,949,,,-1,-1,,,,1
5d12803df8388b00193c69cb,tsahnjxiyx,Nick_Dissertation_EX1,1,89,2020-06-02T09:56:59-07:00,1.4285640716553,2,versionA_stim.csv,READVersionB.csv,"Read Version B","Dissertation, read only version B",OCTOBER,SPOOKY,BUFFER4,Buffer,180,178,Study,User,-,,Study/JOL,BUFFER2,1006,,,-1,-1,,,,1
5d12803df8388b00193c69cb,tsahnjxiyx,Nick_Dissertation_EX1,1,90,2020-06-02T09:57:00-07:00,1.1175508499146,2,versionA_stim.csv,READVersionB.csv,"Read Version B","Dissertation, read only version B",DAYS,WEAKS,BUFFER4,Buffer,176,179,Study,User,-,,Study/JOL,BUFFER2,711,,,-1,-1,,,,1
5d12803df8388b00193c69cb,tsahnjxiyx,Nick_Dissertation_EX1,1,91,2020-06-02T09:57:03-07:00,2.8971920013428,2,versionA_stim.csv,READVersionB.csv,"Read Version B","Dissertation, read only version B",TOOL,SHED,BUFFER4,Buffer,178,180,Study,User,-,,Study/JOL,BUFFER2,2360,,,-1,-1,,,,1
5d12803df8388b00193c69cb,tsahnjxiyx,Nick_Dissertation_EX1,1,92,2020-06-02T09:57:05-07:00,2.1614561080933,2,versionA_stim.csv,READVersionB.csv,"Read Version B","Dissertation, read only version B",,,,,,0,Instruct,User,-,"You have completed this section. Please press Enter.",Filler_Instruction,Instruct2,1711,,,-1,-1,,,,1
5d12803df8388b00193c69cb,tsahnjxiyx,Nick_Dissertation_EX1,1,93,2020-06-02T09:59:06-07:00,120.53952288628,2,versionA_stim.csv,READVersionB.csv,"Read Version B","Dissertation, read only version B",,,,,,0,FreeRecall,120,120,"Please list the 50 US states in alphabetical order. The task will automatically advance to the next screen after two minutes.",,Filler1,120003,"Alabama Alaska Arizona Arkansas California Colorado Connecticut Delaware Florida Georgia Hawaii Idaho Illinois Indiana Iowa Kansas Kentucky Louisiana Maine Maryland Massachusetts Michigan Minnesota Mississippi Missouri Montana Nebraska Nevada New Hampshire New Jersey New Mexico New York North Carolina North Dakota Ohio Oklahoma Oregon Pennsylvania Rhode Island South Carolina South Dakota Tennessee Texas Utah Vermont Virginia Washington West Virginia Wisconsin Wyoming",0,28431,28431,0,0,,0.7
5d12803df8388b00193c69cb,tsahnjxiyx,Nick_Dissertation_EX1,1,94,2020-06-02T09:59:24-07:00,17.982629060745,2,versionA_stim.csv,READVersionB.csv,"Read Version B","Dissertation, read only version B",,,,,,0,Instruct,-,10,"You will now be presented with the first word from each of the previously studied item pairs. Please type the missing word. If you do not know the word, you may guess or press Enter to skip forward to the next pair.",,Instruct3,16448,,,-1,-1,,,,0.349
5d12803df8388b00193c69cb,tsahnjxiyx,Nick_Dissertation_EX1,1,95,2020-06-02T09:59:27-07:00,3.0389630794525,2,versionA_stim.csv,READVersionB.csv,"Read Version B","Dissertation, read only version B",LOAN,SIGN,Study2,U,171,141,Test,User,-,,Recall,Recall1,2511,,0,-1,-1,0,0,,1
5d12803df8388b00193c69cb,tsahnjxiyx,Nick_Dissertation_EX1,1,96,2020-06-02T09:59:32-07:00,5.4105868339539,2,versionA_stim.csv,READVersionB.csv,"Read Version B","Dissertation, read only version B",ELEMENT,CARBON,Study2,S,141,138,Test,User,-,,Recall,Recall1,4887,CARBON,100,2946,3746,1,1,,1
5d12803df8388b00193c69cb,tsahnjxiyx,Nick_Dissertation_EX1,1,97,2020-06-02T09:59:34-07:00,1.8314571380615,2,versionA_stim.csv,READVersionB.csv,"Read Version B","Dissertation, read only version B",DRY,WET,Study2,S,146,131,Test,User,-,,Recall,Recall1,1416,,0,-1,-1,0,0,,1
5d12803df8388b00193c69cb,tsahnjxiyx,Nick_Dissertation_EX1,1,98,2020-06-02T09:59:38-07:00,4.0515480041504,2,versionA_stim.csv,READVersionB.csv,"Read Version B","Dissertation, read only version B",ADJOURN,END,Study2,F,101,146,Test,User,-,,Recall,Recall1,3493,END,100,2270,2482,1,1,,1
5d12803df8388b00193c69cb,tsahnjxiyx,Nick_Dissertation_EX1,1,99,2020-06-02T09:59:40-07:00,1.5718650817871,2,versionA_stim.csv,READVersionB.csv,"Read Version B","Dissertation, read only version B",SUN,TAN,Study2,S,155,154,Test,User,-,,Recall,Recall1,1157,,0,-1,-1,0,0,,1
5d12803df8388b00193c69cb,tsahnjxiyx,Nick_Dissertation_EX1,1,100,2020-06-02T09:59:42-07:00,1.8508169651031,2,versionA_stim.csv,READVersionB.csv,"Read Version B","Dissertation, read only version B",TANTRUM,TEMPER,Study2,S,154,106,Test,User,-,,Recall,Recall1,1435,,0,-1,-1,0,0,,1
5d12803df8388b00193c69cb,tsahnjxiyx,Nick_Dissertation_EX1,1,101,2020-06-02T09:59:53-07:00,11.192701816559,2,versionA_stim.csv,READVersionB.csv,"Read Version B","Dissertation, read only version B",MEAT,OBTAIN,Study2,U,161,120,Test,User,-,,Recall,Recall1,10679,STEAK,36.363636363636,2862,8589,0,0,,1
5d12803df8388b00193c69cb,tsahnjxiyx,Nick_Dissertation_EX1,1,102,2020-06-02T09:59:55-07:00,2.4412560462952,2,versionA_stim.csv,READVersionB.csv,"Read Version B","Dissertation, read only version B",TURN,FLIP,Study2,B,116,102,Test,User,-,,Recall,Recall1,1908,,0,-1,-1,0,0,,1
5d12803df8388b00193c69cb,tsahnjxiyx,Nick_Dissertation_EX1,1,103,2020-06-02T10:00:00-07:00,4.4930281639099,2,versionA_stim.csv,READVersionB.csv,"Read Version B","Dissertation, read only version B",FLEA,TICK,Study2,S,151,159,Test,User,-,,Recall,Recall1,3970,MARKET,20,2508,2982,0,0,,1
5d12803df8388b00193c69cb,tsahnjxiyx,Nick_Dissertation_EX1,1,104,2020-06-02T10:00:09-07:00,8.674418926239,2,versionA_stim.csv,READVersionB.csv,"Read Version B","Dissertation, read only version B",CHERRY,RED,Study2,F,104,113,Test,User,-,,Recall,Recall1,8142,TOMATO,0,6127,6719,0,0,,1
5d12803df8388b00193c69cb,tsahnjxiyx,Nick_Dissertation_EX1,1,105,2020-06-02T10:00:10-07:00,1.5105068683624,2,versionA_stim.csv,READVersionB.csv,"Read Version B","Dissertation, read only version B",BIRD,PENGUIN,Study2,B,119,169,Test,User,-,,Recall,Recall1,1075,,0,-1,-1,0,0,,1
5d12803df8388b00193c69cb,tsahnjxiyx,Nick_Dissertation_EX1,1,106,2020-06-02T10:00:12-07:00,1.6446340084076,2,versionA_stim.csv,READVersionB.csv,"Read Version B","Dissertation, read only version B",WATER,DRINK,Study2,S,143,109,Test,User,-,,Recall,Recall1,1220,,0,-1,-1,0,0,,1
5d12803df8388b00193c69cb,tsahnjxiyx,Nick_Dissertation_EX1,1,107,2020-06-02T10:00:14-07:00,1.860228061676,2,versionA_stim.csv,READVersionB.csv,"Read Version B","Dissertation, read only version B",OWN,HAVE,Study2,S,153,149,Test,User,-,,Recall,Recall1,1453,,0,-1,-1,0,0,,1
5d12803df8388b00193c69cb,tsahnjxiyx,Nick_Dissertation_EX1,1,108,2020-06-02T10:00:20-07:00,6.9122760295868,2,versionA_stim.csv,READVersionB.csv,"Read Version B","Dissertation, read only version B",SCALP,HEAD,Study2,F,105,125,Test,User,-,,Recall,Recall1,6331,CLEAR,44.444444444444,2639,3221,0,0,,1
5d12803df8388b00193c69cb,tsahnjxiyx,Nick_Dissertation_EX1,1,109,2020-06-02T10:00:23-07:00,2.541109085083,2,versionA_stim.csv,READVersionB.csv,"Read Version B","Dissertation, read only version B",TRUTH,LIE,Study2,S,148,108,Test,User,-,,Recall,Recall1,2000,,0,-1,-1,0,0,,1
5d12803df8388b00193c69cb,tsahnjxiyx,Nick_Dissertation_EX1,1,110,2020-06-02T10:00:25-07:00,1.7489869594574,2,versionA_stim.csv,READVersionB.csv,"Read Version B","Dissertation, read only version B",MIRROR,CHILDREN,Study2,U,174,151,Test,User,-,,Recall,Recall1,1342,,0,-1,-1,0,0,,1
5d12803df8388b00193c69cb,tsahnjxiyx,Nick_Dissertation_EX1,1,111,2020-06-02T10:00:26-07:00,1.3076069355011,2,versionA_stim.csv,READVersionB.csv,"Read Version B","Dissertation, read only version B",VEHICLE,CHARM,Study2,U,160,130,Test,User,-,,Recall,Recall1,880,,0,-1,-1,0,0,,1
5d12803df8388b00193c69cb,tsahnjxiyx,Nick_Dissertation_EX1,1,112,2020-06-02T10:00:27-07:00,1.3192009925842,2,versionA_stim.csv,READVersionB.csv,"Read Version B","Dissertation, read only version B",CANDLE,WAX,Study2,S,139,170,Test,User,-,,Recall,Recall1,882,,0,-1,-1,0,0,,1
5d12803df8388b00193c69cb,tsahnjxiyx,Nick_Dissertation_EX1,1,113,2020-06-02T10:00:29-07:00,1.3642201423645,2,versionA_stim.csv,READVersionB.csv,"Read Version B","Dissertation, read only version B",BAD,VILLAIN,Study2,B,118,128,Test,User,-,,Recall,Recall1,947,,0,-1,-1,0,0,,1
5d12803df8388b00193c69cb,tsahnjxiyx,Nick_Dissertation_EX1,1,114,2020-06-02T10:00:33-07:00,4.092386007309,2,versionA_stim.csv,READVersionB.csv,"Read Version B","Dissertation, read only version B",LEASE,TOIL,Study2,U,170,167,Test,User,-,,Recall,Recall1,3573,,0,-1,-1,0,0,,1
5d12803df8388b00193c69cb,tsahnjxiyx,Nick_Dissertation_EX1,1,115,2020-06-02T10:00:34-07:00,1.2686507701874,2,versionA_stim.csv,READVersionB.csv,"Read Version B","Dissertation, read only version B",CHILL,COLD,Study2,F,114,129,Test,User,-,,Recall,Recall1,858,,0,-1,-1,0,0,,1
5d12803df8388b00193c69cb,tsahnjxiyx,Nick_Dissertation_EX1,1,116,2020-06-02T10:00:35-07:00,1.2762360572815,2,versionA_stim.csv,READVersionB.csv,"Read Version B","Dissertation, read only version B",GLASS,BREAKABLE,Study2,B,127,98,Test,User,-,,Recall,Recall1,873,,0,-1,-1,0,0,,1
5d12803df8388b00193c69cb,tsahnjxiyx,Nick_Dissertation_EX1,1,117,2020-06-02T10:00:41-07:00,5.3607680797577,2,versionA_stim.csv,READVersionB.csv,"Read Version B","Dissertation, read only version B",DOCUMENT,PAPER,Study2,F,109,157,Test,User,-,,Recall,Recall1,4837,PAPER,100,2611,3059,1,1,,1
5d12803df8388b00193c69cb,tsahnjxiyx,Nick_Dissertation_EX1,1,118,2020-06-02T10:00:42-07:00,1.3253910541534,2,versionA_stim.csv,READVersionB.csv,"Read Version B","Dissertation, read only version B",KEYS,JOKE,Study2,U,165,156,Test,User,-,,Recall,Recall1,929,,0,-1,-1,0,0,,1
5d12803df8388b00193c69cb,tsahnjxiyx,Nick_Dissertation_EX1,1,119,2020-06-02T10:00:44-07:00,2.1069350242615,2,versionA_stim.csv,READVersionB.csv,"Read Version B","Dissertation, read only version B",MONEY,BANKER,Study2,B,132,166,Test,User,-,,Recall,Recall1,1693,,0,-1,-1,0,0,,1
5d12803df8388b00193c69cb,tsahnjxiyx,Nick_Dissertation_EX1,1,120,2020-06-02T10:00:46-07:00,1.5476348400116,2,versionA_stim.csv,READVersionB.csv,"Read Version B","Dissertation, read only version B",DETECTIVE,MYSTERY,Study2,F,100,121,Test,User,-,,Recall,Recall1,1129,,0,-1,-1,0,0,,1
5d12803df8388b00193c69cb,tsahnjxiyx,Nick_Dissertation_EX1,1,121,2020-06-02T10:00:48-07:00,2.5921890735626,2,versionA_stim.csv,READVersionB.csv,"Read Version B","Dissertation, read only version B",EARTH,GROUND,Study2,S,144,162,Test,User,-,,Recall,Recall1,2037,,0,-1,-1,0,0,,1
5d12803df8388b00193c69cb,tsahnjxiyx,Nick_Dissertation_EX1,1,122,2020-06-02T10:00:50-07:00,1.2367939949036,2,versionA_stim.csv,READVersionB.csv,"Read Version B","Dissertation, read only version B",MAIN,SCAR,Study2,U,175,171,Test,User,-,,Recall,Recall1,784,,0,-1,-1,0,0,,1
5d12803df8388b00193c69cb,tsahnjxiyx,Nick_Dissertation_EX1,1,123,2020-06-02T10:00:53-07:00,3.6261398792267,2,versionA_stim.csv,READVersionB.csv,"Read Version B","Dissertation, read only version B",BASEBALL,LEAGUE,Study2,B,131,158,Test,User,-,,Recall,Recall1,3115,,0,-1,-1,0,0,,1
5d12803df8388b00193c69cb,tsahnjxiyx,Nick_Dissertation_EX1,1,124,2020-06-02T10:00:54-07:00,1.1598091125488,2,versionA_stim.csv,READVersionB.csv,"Read Version B","Dissertation, read only version B",CAT,PANTHER,Study2,B,126,140,Test,User,-,,Recall,Recall1,755,,0,-1,-1,0,0,,1
5d12803df8388b00193c69cb,tsahnjxiyx,Nick_Dissertation_EX1,1,125,2020-06-02T10:00:56-07:00,1.2859311103821,2,versionA_stim.csv,READVersionB.csv,"Read Version B","Dissertation, read only version B",BEST,FAVORITE,Study2,B,125,147,Test,User,-,,Recall,Recall1,871,,0,-1,-1,0,0,,1
5d12803df8388b00193c69cb,tsahnjxiyx,Nick_Dissertation_EX1,1,126,2020-06-02T10:01:01-07:00,5.3506278991699,2,versionA_stim.csv,READVersionB.csv,"Read Version B","Dissertation, read only version B",DINE,EAT,Study2,F,111,174,Test,User,-,,Recall,Recall1,4838,STEAK,50,2195,3581,0,0,,1
5d12803df8388b00193c69cb,tsahnjxiyx,Nick_Dissertation_EX1,1,127,2020-06-02T10:01:03-07:00,2.1120789051056,2,versionA_stim.csv,READVersionB.csv,"Read Version B","Dissertation, read only version B",CHOP,CUT,Study2,F,107,153,Test,User,-,,Recall,Recall1,1693,,0,-1,-1,0,0,,1
5d12803df8388b00193c69cb,tsahnjxiyx,Nick_Dissertation_EX1,1,128,2020-06-02T10:01:05-07:00,1.5516481399536,2,versionA_stim.csv,READVersionB.csv,"Read Version B","Dissertation, read only version B",LOUD,NOISE,Study2,S,152,123,Test,User,-,,Recall,Recall1,1147,,0,-1,-1,0,0,,1
5d12803df8388b00193c69cb,tsahnjxiyx,Nick_Dissertation_EX1,1,129,2020-06-02T10:01:07-07:00,2.157881975174,2,versionA_stim.csv,READVersionB.csv,"Read Version B","Dissertation, read only version B",FIGHT,BRAWL,Study2,B,135,122,Test,User,-,,Recall,Recall1,1744,,0,-1,-1,0,0,,1
5d12803df8388b00193c69cb,tsahnjxiyx,Nick_Dissertation_EX1,1,130,2020-06-02T10:01:08-07:00,1.5887560844421,2,versionA_stim.csv,READVersionB.csv,"Read Version B","Dissertation, read only version B",RAZOR,SHAVE,Study2,S,136,164,Test,User,-,,Recall,Recall1,1174,,0,-1,-1,0,0,,1
5d12803df8388b00193c69cb,tsahnjxiyx,Nick_Dissertation_EX1,1,131,2020-06-02T10:01:12-07:00,3.1572048664093,2,versionA_stim.csv,READVersionB.csv,"Read Version B","Dissertation, read only version B",GIVE,STEAK,Study2,U,158,175,Test,User,-,,Recall,Recall1,2650,,0,-1,-1,0,0,,1
5d12803df8388b00193c69cb,tsahnjxiyx,Nick_Dissertation_EX1,1,132,2020-06-02T10:01:13-07:00,1.1603510379791,2,versionA_stim.csv,READVersionB.csv,"Read Version B","Dissertation, read only version B",THREAD,THIMBLE,Study2,B,121,137,Test,User,-,,Recall,Recall1,753,,0,-1,-1,0,0,,1
5d12803df8388b00193c69cb,tsahnjxiyx,Nick_Dissertation_EX1,1,133,2020-06-02T10:01:14-07:00,1.4789009094238,2,versionA_stim.csv,READVersionB.csv,"Read Version B","Dissertation, read only version B",ROD,REEL,Study2,S,150,117,Test,User,-,,Recall,Recall1,1061,,0,-1,-1,0,0,,1
5d12803df8388b00193c69cb,tsahnjxiyx,Nick_Dissertation_EX1,1,134,2020-06-02T10:01:15-07:00,1.0851790904999,2,versionA_stim.csv,READVersionB.csv,"Read Version B","Dissertation, read only version B",DEAD,COFFIN,Study2,B,128,165,Test,User,-,,Recall,Recall1,687,,0,-1,-1,0,0,,1
5d12803df8388b00193c69cb,tsahnjxiyx,Nick_Dissertation_EX1,1,135,2020-06-02T10:01:17-07:00,1.9281570911407,2,versionA_stim.csv,READVersionB.csv,"Read Version B","Dissertation, read only version B",MOAT,CLEAR,Study2,U,169,160,Test,User,-,,Recall,Recall1,1513,,0,-1,-1,0,0,,1
5d12803df8388b00193c69cb,tsahnjxiyx,Nick_Dissertation_EX1,1,136,2020-06-02T10:01:19-07:00,1.6171588897705,2,versionA_stim.csv,READVersionB.csv,"Read Version B","Dissertation, read only version B",PLANE,AIRCRAFT,Study2,B,129,152,Test,User,-,,Recall,Recall1,1190,,0,-1,-1,0,0,,1
5d12803df8388b00193c69cb,tsahnjxiyx,Nick_Dissertation_EX1,1,137,2020-06-02T10:01:25-07:00,6.6463398933411,2,versionA_stim.csv,READVersionB.csv,"Read Version B","Dissertation, read only version B",FRUIT,STRAWBERRY,Study2,B,124,176,Test,User,-,,Recall,Recall1,6131,,0,-1,-1,0,0,,1
5d12803df8388b00193c69cb,tsahnjxiyx,Nick_Dissertation_EX1,1,138,2020-06-02T10:01:27-07:00,1.5375649929047,2,versionA_stim.csv,READVersionB.csv,"Read Version B","Dissertation, read only version B",LISTEN,FICTION,Study2,U,164,132,Test,User,-,,Recall,Recall1,1115,,0,-1,-1,0,0,,1
5d12803df8388b00193c69cb,tsahnjxiyx,Nick_Dissertation_EX1,1,139,2020-06-02T10:01:28-07:00,1.4521231651306,2,versionA_stim.csv,READVersionB.csv,"Read Version B","Dissertation, read only version B",FISH,SARDINE,Study2,B,130,148,Test,User,-,,Recall,Recall1,1029,,0,-1,-1,0,0,,1
5d12803df8388b00193c69cb,tsahnjxiyx,Nick_Dissertation_EX1,1,140,2020-06-02T10:01:30-07:00,1.4508309364319,2,versionA_stim.csv,READVersionB.csv,"Read Version B","Dissertation, read only version B",FURRY,DOG,Study2,F,102,155,Test,User,-,,Recall,Recall1,1034,,0,-1,-1,0,0,,1
5d12803df8388b00193c69cb,tsahnjxiyx,Nick_Dissertation_EX1,1,141,2020-06-02T10:01:31-07:00,1.4077179431915,2,versionA_stim.csv,READVersionB.csv,"Read Version B","Dissertation, read only version B",SLEEP,NAP,Study2,B,134,115,Test,User,-,,Recall,Recall1,1006,,0,-1,-1,0,0,,1
5d12803df8388b00193c69cb,tsahnjxiyx,Nick_Dissertation_EX1,1,142,2020-06-02T10:01:37-07:00,6.0729591846466,2,versionA_stim.csv,READVersionB.csv,"Read Version B","Dissertation, read only version B",MASON,JAR,Study2,S,138,119,Test,User,-,,Recall,Recall1,5532,JAR,100,3777,3920,1,1,,1
5d12803df8388b00193c69cb,tsahnjxiyx,Nick_Dissertation_EX1,1,143,2020-06-02T10:01:39-07:00,1.7709698677063,2,versionA_stim.csv,READVersionB.csv,"Read Version B","Dissertation, read only version B",EXTENSION,LONG,Study2,F,96,145,Test,User,-,,Recall,Recall1,1370,,0,-1,-1,0,0,,1
5d12803df8388b00193c69cb,tsahnjxiyx,Nick_Dissertation_EX1,1,144,2020-06-02T10:01:41-07:00,1.3729739189148,2,versionA_stim.csv,READVersionB.csv,"Read Version B","Dissertation, read only version B",ALONE,LONELY,Study2,S,145,97,Test,User,-,,Recall,Recall1,962,,0,-1,-1,0,0,,1
5d12803df8388b00193c69cb,tsahnjxiyx,Nick_Dissertation_EX1,1,145,2020-06-02T10:01:42-07:00,1.279755115509,2,versionA_stim.csv,READVersionB.csv,"Read Version B","Dissertation, read only version B",CACTUS,PLANT,Study2,F,98,116,Test,User,-,,Recall,Recall1,866,,0,-1,-1,0,0,,1
5d12803df8388b00193c69cb,tsahnjxiyx,Nick_Dissertation_EX1,1,146,2020-06-02T10:01:43-07:00,1.3586978912354,2,versionA_stim.csv,READVersionB.csv,"Read Version B","Dissertation, read only version B",WRIST,BRACELET,Study2,S,140,134,Test,User,-,,Recall,Recall1,944,,0,-1,-1,0,0,,1
5d12803df8388b00193c69cb,tsahnjxiyx,Nick_Dissertation_EX1,1,147,2020-06-02T10:01:45-07:00,1.3830280303955,2,versionA_stim.csv,READVersionB.csv,"Read Version B","Dissertation, read only version B",MULE,DONKEY,Study2,F,108,114,Test,User,-,,Recall,Recall1,979,,0,-1,-1,0,0,,1
5d12803df8388b00193c69cb,tsahnjxiyx,Nick_Dissertation_EX1,1,148,2020-06-02T10:01:46-07:00,1.2794549465179,2,versionA_stim.csv,READVersionB.csv,"Read Version B","Dissertation, read only version B",MAZE,ELECTION,Study2,U,159,161,Test,User,-,,Recall,Recall1,876,,0,-1,-1,0,0,,1
5d12803df8388b00193c69cb,tsahnjxiyx,Nick_Dissertation_EX1,1,149,2020-06-02T10:01:47-07:00,1.3344421386719,2,versionA_stim.csv,READVersionB.csv,"Read Version B","Dissertation, read only version B",CAKE,CLOTHES,Study2,U,166,104,Test,User,-,,Recall,Recall1,919,,0,-1,-1,0,0,,1
5d12803df8388b00193c69cb,tsahnjxiyx,Nick_Dissertation_EX1,1,150,2020-06-02T10:01:48-07:00,1.2086079120636,2,versionA_stim.csv,READVersionB.csv,"Read Version B","Dissertation, read only version B",SAFETY,SEATBELT,Study2,S,147,133,Test,User,-,,Recall,Recall1,778,,0,-1,-1,0,0,,1
5d12803df8388b00193c69cb,tsahnjxiyx,Nick_Dissertation_EX1,1,151,2020-06-02T10:01:50-07:00,1.2490530014038,2,versionA_stim.csv,READVersionB.csv,"Read Version B","Dissertation, read only version B",SHEARS,SCISSORS,Study2,F,112,142,Test,User,-,,Recall,Recall1,838,,0,-1,-1,0,0,,1
5d12803df8388b00193c69cb,tsahnjxiyx,Nick_Dissertation_EX1,1,152,2020-06-02T10:01:51-07:00,1.0908451080322,2,versionA_stim.csv,READVersionB.csv,"Read Version B","Dissertation, read only version B",LITTER,TRASH,Study2,F,103,110,Test,User,-,,Recall,Recall1,677,,0,-1,-1,0,0,,1
5d12803df8388b00193c69cb,tsahnjxiyx,Nick_Dissertation_EX1,1,153,2020-06-02T10:01:52-07:00,1.1597390174866,2,versionA_stim.csv,READVersionB.csv,"Read Version B","Dissertation, read only version B",PHONE,COMMUNICATION,Study2,S,149,172,Test,User,-,,Recall,Recall1,735,,0,-1,-1,0,0,,1
5d12803df8388b00193c69cb,tsahnjxiyx,Nick_Dissertation_EX1,1,154,2020-06-02T10:01:53-07:00,1.1868088245392,2,versionA_stim.csv,READVersionB.csv,"Read Version B","Dissertation, read only version B",DRIVER,CAR,Study2,F,106,107,Test,User,-,,Recall,Recall1,772,,0,-1,-1,0,0,,1
5d12803df8388b00193c69cb,tsahnjxiyx,Nick_Dissertation_EX1,1,155,2020-06-02T10:01:58-07:00,5.3117101192474,2,versionA_stim.csv,READVersionB.csv,"Read Version B","Dissertation, read only version B",STAR,ACTRESS,Study2,B,120,112,Test,User,-,,Recall,Recall1,4777,ACTRESS,100,2946,4024,1,1,,1
5d12803df8388b00193c69cb,tsahnjxiyx,Nick_Dissertation_EX1,1,156,2020-06-02T10:02:01-07:00,2.4391388893127,2,versionA_stim.csv,READVersionB.csv,"Read Version B","Dissertation, read only version B",Shell,SHAKE,Study2,U,163,168,Test,User,-,,Recall,Recall1,1907,,0,-1,-1,0,0,,1
5d12803df8388b00193c69cb,tsahnjxiyx,Nick_Dissertation_EX1,1,157,2020-06-02T10:02:02-07:00,1.6365141868591,2,versionA_stim.csv,READVersionB.csv,"Read Version B","Dissertation, read only version B",CLUE,GAME,Study2,F,97,111,Test,User,-,,Recall,Recall1,1223,,0,-1,-1,0,0,,1
5d12803df8388b00193c69cb,tsahnjxiyx,Nick_Dissertation_EX1,1,158,2020-06-02T10:02:04-07:00,1.3510129451752,2,versionA_stim.csv,READVersionB.csv,"Read Version B","Dissertation, read only version B",EVEN,REVENGE,Study2,B,122,173,Test,User,-,,Recall,Recall1,937,,0,-1,-1,0,0,,1
5d12803df8388b00193c69cb,tsahnjxiyx,Nick_Dissertation_EX1,1,159,2020-06-02T10:02:06-07:00,1.8381888866425,2,versionA_stim.csv,READVersionB.csv,"Read Version B","Dissertation, read only version B",JUSTICE,MAROON,Study2,U,156,136,Test,User,-,,Recall,Recall1,1413,,0,-1,-1,0,0,,1
5d12803df8388b00193c69cb,tsahnjxiyx,Nick_Dissertation_EX1,1,160,2020-06-02T10:02:07-07:00,1.5688841342926,2,versionA_stim.csv,READVersionB.csv,"Read Version B","Dissertation, read only version B",HONEST,TRUTHFUL,Study2,B,133,105,Test,User,-,,Recall,Recall1,1143,,0,-1,-1,0,0,,1
5d12803df8388b00193c69cb,tsahnjxiyx,Nick_Dissertation_EX1,1,161,2020-06-02T10:02:09-07:00,1.4575140476227,2,versionA_stim.csv,READVersionB.csv,"Read Version B","Dissertation, read only version B",STRETCH,CLOTH,Study2,U,157,135,Test,User,-,,Recall,Recall1,1053,,0,-1,-1,0,0,,1
5d12803df8388b00193c69cb,tsahnjxiyx,Nick_Dissertation_EX1,1,162,2020-06-02T10:02:10-07:00,1.3942489624023,2,versionA_stim.csv,READVersionB.csv,"Read Version B","Dissertation, read only version B",CAR,WINDSHIELD,Study2,B,117,100,Test,User,-,,Recall,Recall1,979,,0,-1,-1,0,0,,1
5d12803df8388b00193c69cb,tsahnjxiyx,Nick_Dissertation_EX1,1,163,2020-06-02T10:02:16-07:00,5.6199629306793,2,versionA_stim.csv,READVersionB.csv,"Read Version B","Dissertation, read only version B",POP,BALLOON,Study2,B,123,101,Test,User,-,,Recall,Recall1,5069,BALLOON,100,1953,4068,1,1,,1
5d12803df8388b00193c69cb,tsahnjxiyx,Nick_Dissertation_EX1,1,164,2020-06-02T10:02:25-07:00,9.1742360591888,2,versionA_stim.csv,READVersionB.csv,"Read Version B","Dissertation, read only version B",INCENSE,SMELL,Study2,F,110,143,Test,User,-,,Recall,Recall1,8643,SMELL,100,7222,7660,1,1,,1
5d12803df8388b00193c69cb,tsahnjxiyx,Nick_Dissertation_EX1,1,165,2020-06-02T10:02:27-07:00,1.7723059654236,2,versionA_stim.csv,READVersionB.csv,"Read Version B","Dissertation, read only version B",NAME,HATE,Study2,U,167,139,Test,User,-,,Recall,Recall1,1352,,0,-1,-1,0,0,,1
5d12803df8388b00193c69cb,tsahnjxiyx,Nick_Dissertation_EX1,1,166,2020-06-02T10:03:58-07:00,91.138206958771,2,versionA_stim.csv,READVersionB.csv,"Read Version B","Dissertation, read only version B",SHOELACE,TIE,Study2,F,99,150,Test,User,-,,Recall,Recall1,90588,TIE,100,87478,89662,1,1,,0.095
5d12803df8388b00193c69cb,tsahnjxiyx,Nick_Dissertation_EX1,1,167,2020-06-02T10:04:00-07:00,2.4503400325775,2,versionA_stim.csv,READVersionB.csv,"Read Version B","Dissertation, read only version B",BOTH,OUNCE,Study2,U,172,99,Test,User,-,,Recall,Recall1,1839,,0,-1,-1,0,0,,1
5d12803df8388b00193c69cb,tsahnjxiyx,Nick_Dissertation_EX1,1,168,2020-06-02T10:04:26-07:00,25.70153093338,2,versionA_stim.csv,READVersionB.csv,"Read Version B","Dissertation, read only version B",CRACKLE,ABLE,Study2,U,162,163,Test,User,-,,Recall,Recall1,25139,,0,-1,-1,0,0,,0.063
5d12803df8388b00193c69cb,tsahnjxiyx,Nick_Dissertation_EX1,1,169,2020-06-02T10:04:27-07:00,1.1733939647675,2,versionA_stim.csv,READVersionB.csv,"Read Version B","Dissertation, read only version B",FUZZY,BANG,Study2,U,168,126,Test,User,-,,Recall,Recall1,746,,0,-1,-1,0,0,,1
5d12803df8388b00193c69cb,tsahnjxiyx,Nick_Dissertation_EX1,1,170,2020-06-02T10:04:28-07:00,1.2039630413055,2,versionA_stim.csv,READVersionB.csv,"Read Version B","Dissertation, read only version B",RIGHTS,EQUAL,Study2,S,137,124,Test,User,-,,Recall,Recall1,762,,0,-1,-1,0,0,,1
5d12803df8388b00193c69cb,tsahnjxiyx,Nick_Dissertation_EX1,1,171,2020-06-02T10:04:29-07:00,1.1560859680176,2,versionA_stim.csv,READVersionB.csv,"Read Version B","Dissertation, read only version B",FEUD,FIGHT,Study2,F,113,144,Test,User,-,,Recall,Recall1,699,,0,-1,-1,0,0,,1
5d12803df8388b00193c69cb,tsahnjxiyx,Nick_Dissertation_EX1,1,172,2020-06-02T10:04:31-07:00,1.3607230186462,2,versionA_stim.csv,READVersionB.csv,"Read Version B","Dissertation, read only version B",GONE,AWAY,Study2,S,142,127,Test,User,-,,Recall,Recall1,942,,0,-1,-1,0,0,,1
5d12803df8388b00193c69cb,tsahnjxiyx,Nick_Dissertation_EX1,1,173,2020-06-02T10:04:32-07:00,1.5031270980835,2,versionA_stim.csv,READVersionB.csv,"Read Version B","Dissertation, read only version B",TEMPERATURE,Morning,Study2,U,173,103,Test,User,-,,Recall,Recall1,1094,,0,-1,-1,0,0,,1
5d12803df8388b00193c69cb,tsahnjxiyx,Nick_Dissertation_EX1,1,174,2020-06-02T10:04:34-07:00,1.198322057724,2,versionA_stim.csv,READVersionB.csv,"Read Version B","Dissertation, read only version B",AFFECTION,LOVE,Study2,F,115,118,Test,User,-,,Recall,Recall1,784,,0,-1,-1,0,0,,1
5d12803df8388b00193c69cb,tsahnjxiyx,Nick_Dissertation_EX1,1,175,2020-06-02T10:04:45-07:00,11.20231294632,2,versionA_stim.csv,READVersionB.csv,"Read Version B","Dissertation, read only version B",,,,,,0,Instruct,-,10,"You will now be presented with a new set of word pairs. Please study each pair. Remember that your memory will be tested! When finished, press Enter to move to the next pair.",Initial_Instruct,Instruct4,10691,,,-1,-1,,,,0.861
5d12803df8388b00193c69cb,tsahnjxiyx,Nick_Dissertation_EX1,1,176,2020-06-02T10:04:48-07:00,2.7868340015411,2,versionA_stim.csv,READVersionB.csv,"Read Version B","Dissertation, read only version B",SPACE,JAM,BUFFER1,Buffer,5,3,Study,User,-,,Study/JOL,BUFFER3,2248,,,-1,-1,,,,1
5d12803df8388b00193c69cb,tsahnjxiyx,Nick_Dissertation_EX1,1,177,2020-06-02T10:04:49-07:00,1.1484708786011,2,versionA_stim.csv,READVersionB.csv,"Read Version B","Dissertation, read only version B",SCARE,HIDE,BUFFER1,Buffer,4,6,Study,User,-,,Study/JOL,BUFFER3,744,,,-1,-1,,,,1
5d12803df8388b00193c69cb,tsahnjxiyx,Nick_Dissertation_EX1,1,178,2020-06-02T10:04:50-07:00,1.12628698349,2,versionA_stim.csv,READVersionB.csv,"Read Version B","Dissertation, read only version B",TREES,GREEN,BUFFER1,Buffer,1,4,Study,User,-,,Study/JOL,BUFFER3,704,,,-1,-1,,,,1
5d12803df8388b00193c69cb,tsahnjxiyx,Nick_Dissertation_EX1,1,179,2020-06-02T10:04:51-07:00,1.3267459869385,2,versionA_stim.csv,READVersionB.csv,"Read Version B","Dissertation, read only version B",BASEBALL,CATCHER,BUFFER1,Buffer,2,5,Study,User,-,,Study/JOL,BUFFER3,904,,,-1,-1,,,,1
5d12803df8388b00193c69cb,tsahnjxiyx,Nick_Dissertation_EX1,1,180,2020-06-02T10:04:52-07:00,1.1330740451813,2,versionA_stim.csv,READVersionB.csv,"Read Version B","Dissertation, read only version B",PEANUT,BUTTER,BUFFER1,Buffer,3,2,Study,User,-,,Study/JOL,BUFFER3,706,,,-1,-1,,,,1
5d12803df8388b00193c69cb,tsahnjxiyx,Nick_Dissertation_EX1,1,181,2020-06-02T10:04:53-07:00,1.1554610729218,2,versionA_stim.csv,READVersionB.csv,"Read Version B","Dissertation, read only version B",LAW,ATTORNEY,Study1,B,34,64,Study,User,-,,Study/JOL,"Study Phase2",711,,,-1,-1,,,,1
5d12803df8388b00193c69cb,tsahnjxiyx,Nick_Dissertation_EX1,1,182,2020-06-02T10:04:55-07:00,1.0981249809265,2,versionA_stim.csv,READVersionB.csv,"Read Version B","Dissertation, read only version B",DRINK,SIP,Study1,B,27,10,Study,User,-,,Study/JOL,"Study Phase2",682,,,-1,-1,,,,1
5d12803df8388b00193c69cb,tsahnjxiyx,Nick_Dissertation_EX1,1,183,2020-06-02T10:04:55-07:00,0.94640612602234,2,versionA_stim.csv,READVersionB.csv,"Read Version B","Dissertation, read only version B",SOON,BELT,Study1,U,70,31,Study,User,-,,Study/JOL,"Study Phase2",509,,,-1,-1,,,,1
5d12803df8388b00193c69cb,tsahnjxiyx,Nick_Dissertation_EX1,1,184,2020-06-02T10:04:56-07:00,0.9071798324585,2,versionA_stim.csv,READVersionB.csv,"Read Version B","Dissertation, read only version B",HOT,CHILI,Study1,B,37,40,Study,User,-,,Study/JOL,"Study Phase2",463,,,-1,-1,,,,1
5d12803df8388b00193c69cb,tsahnjxiyx,Nick_Dissertation_EX1,1,185,2020-06-02T10:04:58-07:00,1.9470310211182,2,versionA_stim.csv,READVersionB.csv,"Read Version B","Dissertation, read only version B",PARK,HUNGRY,Study1,U,68,49,Study,User,-,,Study/JOL,"Study Phase2",508,,,-1,-1,,,,1
5d12803df8388b00193c69cb,tsahnjxiyx,Nick_Dissertation_EX1,1,186,2020-06-02T10:05:00-07:00,1.5286841392517,2,versionA_stim.csv,READVersionB.csv,"Read Version B","Dissertation, read only version B",STRONG,ACCIDENT,Study1,U,80,67,Study,User,-,,Study/JOL,"Study Phase2",1111,,,-1,-1,,,,1
5d12803df8388b00193c69cb,tsahnjxiyx,Nick_Dissertation_EX1,1,187,2020-06-02T10:05:01-07:00,0.98863983154297,2,versionA_stim.csv,READVersionB.csv,"Read Version B","Dissertation, read only version B",HEIGHT,GROWTH,Study1,B,30,12,Study,User,-,,Study/JOL,"Study Phase2",564,,,-1,-1,,,,1
5d12803df8388b00193c69cb,tsahnjxiyx,Nick_Dissertation_EX1,1,188,2020-06-02T10:05:03-07:00,2.1640169620514,2,versionA_stim.csv,READVersionB.csv,"Read Version B","Dissertation, read only version B",MEANING,DEFINITION,Study1,S,62,41,Study,User,-,,Study/JOL,"Study Phase2",756,,,-1,-1,,,,1
5d12803df8388b00193c69cb,tsahnjxiyx,Nick_Dissertation_EX1,1,189,2020-06-02T10:05:05-07:00,2.1829349994659,2,versionA_stim.csv,READVersionB.csv,"Read Version B","Dissertation, read only version B",ARCHITECTURE,DESIGN,Study1,S,51,86,Study,User,-,,Study/JOL,"Study Phase2",776,,,-1,-1,,,,1
5d12803df8388b00193c69cb,tsahnjxiyx,Nick_Dissertation_EX1,1,190,2020-06-02T10:05:06-07:00,0.88259506225586,2,versionA_stim.csv,READVersionB.csv,"Read Version B","Dissertation, read only version B",CREDIT,CARD,Study1,F,23,36,Study,User,-,,Study/JOL,"Study Phase2",476,,,-1,-1,,,,1
5d12803df8388b00193c69cb,tsahnjxiyx,Nick_Dissertation_EX1,1,191,2020-06-02T10:05:08-07:00,1.5434629917145,2,versionA_stim.csv,READVersionB.csv,"Read Version B","Dissertation, read only version B",LETTUCE,SALAD,Study1,S,59,78,Study,User,-,,Study/JOL,"Study Phase2",1111,,,-1,-1,,,,1
5d12803df8388b00193c69cb,tsahnjxiyx,Nick_Dissertation_EX1,1,192,2020-06-02T10:05:09-07:00,1.8221271038055,2,versionA_stim.csv,READVersionB.csv,"Read Version B","Dissertation, read only version B",GREAT,FANTASTIC,Study1,B,35,47,Study,User,-,,Study/JOL,"Study Phase2",407,,,-1,-1,,,,1
5d12803df8388b00193c69cb,tsahnjxiyx,Nick_Dissertation_EX1,1,193,2020-06-02T10:05:12-07:00,2.367495059967,2,versionA_stim.csv,READVersionB.csv,"Read Version B","Dissertation, read only version B",HERD,COW,Study1,F,22,69,Study,User,-,,Study/JOL,"Study Phase2",852,,,-1,-1,,,,1
5d12803df8388b00193c69cb,tsahnjxiyx,Nick_Dissertation_EX1,1,194,2020-06-02T10:05:13-07:00,0.82366394996643,2,versionA_stim.csv,READVersionB.csv,"Read Version B","Dissertation, read only version B",DUMP,WASTE,Study1,S,49,81,Study,User,-,,Study/JOL,"Study Phase2",411,,,-1,-1,,,,1
5d12803df8388b00193c69cb,tsahnjxiyx,Nick_Dissertation_EX1,1,195,2020-06-02T10:05:14-07:00,1.5635838508606,2,versionA_stim.csv,READVersionB.csv,"Read Version B","Dissertation, read only version B",SLEEP,DROWSY,Study1,B,41,65,Study,User,-,,Study/JOL,"Study Phase2",1115,,,-1,-1,,,,1
5d12803df8388b00193c69cb,tsahnjxiyx,Nick_Dissertation_EX1,1,196,2020-06-02T10:05:15-07:00,1.1325850486755,2,versionA_stim.csv,READVersionB.csv,"Read Version B","Dissertation, read only version B",HAPPY,CAR,Study1,U,77,57,Study,User,-,,Study/JOL,"Study Phase2",708,,,-1,-1,,,,1
5d12803df8388b00193c69cb,tsahnjxiyx,Nick_Dissertation_EX1,1,197,2020-06-02T10:05:16-07:00,1.0039751529694,2,versionA_stim.csv,READVersionB.csv,"Read Version B","Dissertation, read only version B",WAY,OUT,Study1,F,16,23,Study,User,-,,Study/JOL,"Study Phase2",581,,,-1,-1,,,,1
5d12803df8388b00193c69cb,tsahnjxiyx,Nick_Dissertation_EX1,1,198,2020-06-02T10:05:18-07:00,1.5418438911438,2,versionA_stim.csv,READVersionB.csv,"Read Version B","Dissertation, read only version B",KIDNEY,LIVER,Study1,S,53,71,Study,User,-,,Study/JOL,"Study Phase2",1101,,,-1,-1,,,,1
5d12803df8388b00193c69cb,tsahnjxiyx,Nick_Dissertation_EX1,1,199,2020-06-02T10:05:19-07:00,1.1175329685211,2,versionA_stim.csv,READVersionB.csv,"Read Version B","Dissertation, read only version B",SHOE,FOOT,Study1,S,60,18,Study,User,-,,Study/JOL,"Study Phase2",699,,,-1,-1,,,,1
5d12803df8388b00193c69cb,tsahnjxiyx,Nick_Dissertation_EX1,1,200,2020-06-02T10:05:20-07:00,0.93723702430725,2,versionA_stim.csv,READVersionB.csv,"Read Version B","Dissertation, read only version B",ALLOW,TUCK,Study1,U,78,21,Study,User,-,,Study/JOL,"Study Phase2",514,,,-1,-1,,,,1
5d12803df8388b00193c69cb,tsahnjxiyx,Nick_Dissertation_EX1,1,201,2020-06-02T10:05:21-07:00,0.87947106361389,2,versionA_stim.csv,READVersionB.csv,"Read Version B","Dissertation, read only version B",ART,LION,Study1,U,79,34,Study,User,-,,Study/JOL,"Study Phase2",458,,,-1,-1,,,,1
5d12803df8388b00193c69cb,tsahnjxiyx,Nick_Dissertation_EX1,1,202,2020-06-02T10:05:22-07:00,0.97353100776672,2,versionA_stim.csv,READVersionB.csv,"Read Version B","Dissertation, read only version B",ORCHID,FLOWER,Study1,F,24,53,Study,User,-,,Study/JOL,"Study Phase2",564,,,-1,-1,,,,1
5d12803df8388b00193c69cb,tsahnjxiyx,Nick_Dissertation_EX1,1,203,2020-06-02T10:05:23-07:00,1.0065689086914,2,versionA_stim.csv,READVersionB.csv,"Read Version B","Dissertation, read only version B",DEBATE,SIGHT,Study1,U,73,68,Study,User,-,,Study/JOL,"Study Phase2",563,,,-1,-1,,,,1
5d12803df8388b00193c69cb,tsahnjxiyx,Nick_Dissertation_EX1,1,204,2020-06-02T10:05:24-07:00,1.7373919487,2,versionA_stim.csv,READVersionB.csv,"Read Version B","Dissertation, read only version B",FIX,HAND,Study1,U,75,82,Study,User,-,,Study/JOL,"Study Phase2",1251,,,-1,-1,,,,1
5d12803df8388b00193c69cb,tsahnjxiyx,Nick_Dissertation_EX1,1,205,2020-06-02T10:05:26-07:00,1.0943400859833,2,versionA_stim.csv,READVersionB.csv,"Read Version B","Dissertation, read only version B",SENTENCE,WORD,Study1,B,31,66,Study,User,-,,Study/JOL,"Study Phase2",675,,,-1,-1,,,,1
5d12803df8388b00193c69cb,tsahnjxiyx,Nick_Dissertation_EX1,1,206,2020-06-02T10:05:27-07:00,0.99092197418213,2,versionA_stim.csv,READVersionB.csv,"Read Version B","Dissertation, read only version B",CIRCLE,ROUND,Study1,S,65,14,Study,User,-,,Study/JOL,"Study Phase2",548,,,-1,-1,,,,1
5d12803df8388b00193c69cb,tsahnjxiyx,Nick_Dissertation_EX1,1,207,2020-06-02T10:05:28-07:00,1.0071470737457,2,versionA_stim.csv,READVersionB.csv,"Read Version B","Dissertation, read only version B",GEOLOGY,ROCK,Study1,F,19,61,Study,User,-,,Study/JOL,"Study Phase2",585,,,-1,-1,,,,1
5d12803df8388b00193c69cb,tsahnjxiyx,Nick_Dissertation_EX1,1,208,2020-06-02T10:05:29-07:00,0.92604684829712,2,versionA_stim.csv,READVersionB.csv,"Read Version B","Dissertation, read only version B",BEGIN,END,Study1,S,54,79,Study,User,-,,Study/JOL,"Study Phase2",516,,,-1,-1,,,,1
5d12803df8388b00193c69cb,tsahnjxiyx,Nick_Dissertation_EX1,1,209,2020-06-02T10:05:30-07:00,1.1219711303711,2,versionA_stim.csv,READVersionB.csv,"Read Version B","Dissertation, read only version B",BABY,CHILD,Study1,S,64,58,Study,User,-,,Study/JOL,"Study Phase2",718,,,-1,-1,,,,1
5d12803df8388b00193c69cb,tsahnjxiyx,Nick_Dissertation_EX1,1,210,2020-06-02T10:05:31-07:00,0.88026595115662,2,versionA_stim.csv,READVersionB.csv,"Read Version B","Dissertation, read only version B",BITTER,COLD,Study1,F,12,29,Study,User,-,,Study/JOL,"Study Phase2",466,,,-1,-1,,,,1
5d12803df8388b00193c69cb,tsahnjxiyx,Nick_Dissertation_EX1,1,211,2020-06-02T10:05:32-07:00,1.1959190368652,2,versionA_stim.csv,READVersionB.csv,"Read Version B","Dissertation, read only version B",MACHINE,POSITION,Study1,U,76,39,Study,User,-,,Study/JOL,"Study Phase2",780,,,-1,-1,,,,1
5d12803df8388b00193c69cb,tsahnjxiyx,Nick_Dissertation_EX1,1,212,2020-06-02T10:05:33-07:00,1.2537639141083,2,versionA_stim.csv,READVersionB.csv,"Read Version B","Dissertation, read only version B",PLANE,PILOT,Study1,B,44,35,Study,User,-,,Study/JOL,"Study Phase2",844,,,-1,-1,,,,1
5d12803df8388b00193c69cb,tsahnjxiyx,Nick_Dissertation_EX1,1,213,2020-06-02T10:05:34-07:00,1.1848871707916,2,versionA_stim.csv,READVersionB.csv,"Read Version B","Dissertation, read only version B",NUMBER,AMOUNT,Study1,S,47,16,Study,User,-,,Study/JOL,"Study Phase2",760,,,-1,-1,,,,1
5d12803df8388b00193c69cb,tsahnjxiyx,Nick_Dissertation_EX1,1,214,2020-06-02T10:05:35-07:00,0.99206781387329,2,versionA_stim.csv,READVersionB.csv,"Read Version B","Dissertation, read only version B",DEATH,BUSINESS,Study1,U,72,76,Study,User,-,,Study/JOL,"Study Phase2",584,,,-1,-1,,,,1
5d12803df8388b00193c69cb,tsahnjxiyx,Nick_Dissertation_EX1,1,215,2020-06-02T10:05:38-07:00,3.058277130127,2,versionA_stim.csv,READVersionB.csv,"Read Version B","Dissertation, read only version B",PAST,FUTURE,Study1,S,61,50,Study,User,-,,Study/JOL,"Study Phase2",2513,,,-1,-1,,,,1
5d12803df8388b00193c69cb,tsahnjxiyx,Nick_Dissertation_EX1,1,216,2020-06-02T10:05:40-07:00,1.6749458312988,2,versionA_stim.csv,READVersionB.csv,"Read Version B","Dissertation, read only version B",WAGE,MONEY,Study1,F,8,85,Study,User,-,,Study/JOL,"Study Phase2",1259,,,-1,-1,,,,1
5d12803df8388b00193c69cb,tsahnjxiyx,Nick_Dissertation_EX1,1,217,2020-06-02T10:05:41-07:00,0.86809206008911,2,versionA_stim.csv,READVersionB.csv,"Read Version B","Dissertation, read only version B",BRIDGE,WATER,Study1,F,18,75,Study,User,-,,Study/JOL,"Study Phase2",429,,,-1,-1,,,,1
5d12803df8388b00193c69cb,tsahnjxiyx,Nick_Dissertation_EX1,1,218,2020-06-02T10:05:42-07:00,0.95542097091675,2,versionA_stim.csv,READVersionB.csv,"Read Version B","Dissertation, read only version B",PUSHER,CLUTTER,Study1,U,66,80,Study,User,-,,Study/JOL,"Study Phase2",526,,,-1,-1,,,,1
5d12803df8388b00193c69cb,tsahnjxiyx,Nick_Dissertation_EX1,1,219,2020-06-02T10:05:43-07:00,1.4522151947021,2,versionA_stim.csv,READVersionB.csv,"Read Version B","Dissertation, read only version B",DUE,ASSIGNMENT,Study1,S,46,28,Study,User,-,,Study/JOL,"Study Phase2",1001,,,-1,-1,,,,1
5d12803df8388b00193c69cb,tsahnjxiyx,Nick_Dissertation_EX1,1,220,2020-06-02T10:05:44-07:00,0.84271788597107,2,versionA_stim.csv,READVersionB.csv,"Read Version B","Dissertation, read only version B",HIDE,SICK,Study1,U,84,20,Study,User,-,,Study/JOL,"Study Phase2",415,,,-1,-1,,,,1
5d12803df8388b00193c69cb,tsahnjxiyx,Nick_Dissertation_EX1,1,221,2020-06-02T10:05:45-07:00,0.78783106803894,2,versionA_stim.csv,READVersionB.csv,"Read Version B","Dissertation, read only version B",HYGIENE,CLEAN,Study1,F,17,48,Study,User,-,,Study/JOL,"Study Phase2",362,,,-1,-1,,,,1
5d12803df8388b00193c69cb,tsahnjxiyx,Nick_Dissertation_EX1,1,222,2020-06-02T10:05:46-07:00,0.82684993743896,2,versionA_stim.csv,READVersionB.csv,"Read Version B","Dissertation, read only version B",CLOTHES,ATTIRE,Study1,B,43,32,Study,User,-,,Study/JOL,"Study Phase2",414,,,-1,-1,,,,1
5d12803df8388b00193c69cb,tsahnjxiyx,Nick_Dissertation_EX1,1,223,2020-06-02T10:05:46-07:00,0.84709000587463,2,versionA_stim.csv,READVersionB.csv,"Read Version B","Dissertation, read only version B",BALL,RACKET,Study1,B,38,54,Study,User,-,,Study/JOL,"Study Phase2",410,,,-1,-1,,,,1
5d12803df8388b00193c69cb,tsahnjxiyx,Nick_Dissertation_EX1,1,224,2020-06-02T10:05:47-07:00,0.8612220287323,2,versionA_stim.csv,READVersionB.csv,"Read Version B","Dissertation, read only version B",TUNA,FISH,Study1,F,25,56,Study,User,-,,Study/JOL,"Study Phase2",425,,,-1,-1,,,,1
5d12803df8388b00193c69cb,tsahnjxiyx,Nick_Dissertation_EX1,1,225,2020-06-02T10:05:48-07:00,0.83493494987488,2,versionA_stim.csv,READVersionB.csv,"Read Version B","Dissertation, read only version B",POP,SODA,Study1,S,56,44,Study,User,-,,Study/JOL,"Study Phase2",415,,,-1,-1,,,,1
5d12803df8388b00193c69cb,tsahnjxiyx,Nick_Dissertation_EX1,1,226,2020-06-02T10:05:49-07:00,0.86568689346313,2,versionA_stim.csv,READVersionB.csv,"Read Version B","Dissertation, read only version B",DELINQUENT,BAD,Study1,F,6,84,Study,User,-,,Study/JOL,"Study Phase2",436,,,-1,-1,,,,1
5d12803df8388b00193c69cb,tsahnjxiyx,Nick_Dissertation_EX1,1,227,2020-06-02T10:05:50-07:00,0.8313901424408,2,versionA_stim.csv,READVersionB.csv,"Read Version B","Dissertation, read only version B",SWAN,BIRD,Study1,F,14,45,Study,User,-,,Study/JOL,"Study Phase2",405,,,-1,-1,,,,1
5d12803df8388b00193c69cb,tsahnjxiyx,Nick_Dissertation_EX1,1,228,2020-06-02T10:05:51-07:00,1.025102853775,2,versionA_stim.csv,READVersionB.csv,"Read Version B","Dissertation, read only version B",SUGAR,RIDDLE,Study1,U,81,62,Study,User,-,,Study/JOL,"Study Phase2",597,,,-1,-1,,,,1
5d12803df8388b00193c69cb,tsahnjxiyx,Nick_Dissertation_EX1,1,229,2020-06-02T10:05:52-07:00,0.8887050151825,2,versionA_stim.csv,READVersionB.csv,"Read Version B","Dissertation, read only version B",SMELL,STENCH,Study1,B,42,30,Study,User,-,,Study/JOL,"Study Phase2",479,,,-1,-1,,,,1
5d12803df8388b00193c69cb,tsahnjxiyx,Nick_Dissertation_EX1,1,230,2020-06-02T10:05:53-07:00,0.86007213592529,2,versionA_stim.csv,READVersionB.csv,"Read Version B","Dissertation, read only version B",WINE,CHEESE,Study1,S,57,37,Study,User,-,,Study/JOL,"Study Phase2",445,,,-1,-1,,,,1
5d12803df8388b00193c69cb,tsahnjxiyx,Nick_Dissertation_EX1,1,231,2020-06-02T10:05:54-07:00,0.9185528755188,2,versionA_stim.csv,READVersionB.csv,"Read Version B","Dissertation, read only version B",TRIAL,JURY,Study1,S,50,13,Study,User,-,,Study/JOL,"Study Phase2",479,,,-1,-1,,,,1
5d12803df8388b00193c69cb,tsahnjxiyx,Nick_Dissertation_EX1,1,232,2020-06-02T10:05:55-07:00,0.98352098464966,2,versionA_stim.csv,READVersionB.csv,"Read Version B","Dissertation, read only version B",GRILL,BAR,Study1,S,52,26,Study,User,-,,Study/JOL,"Study Phase2",576,,,-1,-1,,,,1
5d12803df8388b00193c69cb,tsahnjxiyx,Nick_Dissertation_EX1,1,233,2020-06-02T10:05:57-07:00,2.0683441162109,2,versionA_stim.csv,READVersionB.csv,"Read Version B","Dissertation, read only version B",CHISEL,HAMMER,Study1,F,9,25,Study,User,-,,Study/JOL,"Study Phase2",614,,,-1,-1,,,,1
5d12803df8388b00193c69cb,tsahnjxiyx,Nick_Dissertation_EX1,1,234,2020-06-02T10:05:58-07:00,1.6933629512787,2,versionA_stim.csv,READVersionB.csv,"Read Version B","Dissertation, read only version B",EDITOR,NEWS,Study1,F,10,24,Study,User,-,,Study/JOL,"Study Phase2",1282,,,-1,-1,,,,1
5d12803df8388b00193c69cb,tsahnjxiyx,Nick_Dissertation_EX1,1,235,2020-06-02T10:05:59-07:00,0.9051079750061,2,versionA_stim.csv,READVersionB.csv,"Read Version B","Dissertation, read only version B",HUNGER,FAMINE,Study1,B,40,27,Study,User,-,,Study/JOL,"Study Phase2",453,,,-1,-1,,,,1
5d12803df8388b00193c69cb,tsahnjxiyx,Nick_Dissertation_EX1,1,236,2020-06-02T10:06:00-07:00,0.83150410652161,2,versionA_stim.csv,READVersionB.csv,"Read Version B","Dissertation, read only version B",BATHROOM,TOILET,Study1,S,58,19,Study,User,-,,Study/JOL,"Study Phase2",410,,,-1,-1,,,,1
5d12803df8388b00193c69cb,tsahnjxiyx,Nick_Dissertation_EX1,1,237,2020-06-02T10:06:01-07:00,1.0650060176849,2,versionA_stim.csv,READVersionB.csv,"Read Version B","Dissertation, read only version B",KEY,LATCH,Study1,B,36,42,Study,User,-,,Study/JOL,"Study Phase2",638,,,-1,-1,,,,1
5d12803df8388b00193c69cb,tsahnjxiyx,Nick_Dissertation_EX1,1,238,2020-06-02T10:06:02-07:00,1.2190020084381,2,versionA_stim.csv,READVersionB.csv,"Read Version B","Dissertation, read only version B",REVOLUTION,WAR,Study1,F,20,7,Study,User,-,,Study/JOL,"Study Phase2",786,,,-1,-1,,,,1
5d12803df8388b00193c69cb,tsahnjxiyx,Nick_Dissertation_EX1,1,239,2020-06-02T10:06:03-07:00,0.97860598564148,2,versionA_stim.csv,READVersionB.csv,"Read Version B","Dissertation, read only version B",DISCUSSION,TALK,Study1,F,21,11,Study,User,-,,Study/JOL,"Study Phase2",550,,,-1,-1,,,,1
5d12803df8388b00193c69cb,tsahnjxiyx,Nick_Dissertation_EX1,1,240,2020-06-02T10:06:04-07:00,0.94904804229736,2,versionA_stim.csv,READVersionB.csv,"Read Version B","Dissertation, read only version B",BUG,WASP,Study1,B,32,52,Study,User,-,,Study/JOL,"Study Phase2",501,,,-1,-1,,,,1
5d12803df8388b00193c69cb,tsahnjxiyx,Nick_Dissertation_EX1,1,241,2020-06-02T10:06:05-07:00,0.95859479904175,2,versionA_stim.csv,READVersionB.csv,"Read Version B","Dissertation, read only version B",DIETARY,SACKING,Study1,U,67,33,Study,User,-,,Study/JOL,"Study Phase2",543,,,-1,-1,,,,1
5d12803df8388b00193c69cb,tsahnjxiyx,Nick_Dissertation_EX1,1,242,2020-06-02T10:06:06-07:00,0.99340009689331,2,versionA_stim.csv,READVersionB.csv,"Read Version B","Dissertation, read only version B",ROOT,PLANT,Study1,F,13,46,Study,User,-,,Study/JOL,"Study Phase2",564,,,-1,-1,,,,1
5d12803df8388b00193c69cb,tsahnjxiyx,Nick_Dissertation_EX1,1,243,2020-06-02T10:06:07-07:00,0.95177912712097,2,versionA_stim.csv,READVersionB.csv,"Read Version B","Dissertation, read only version B",LIFT,WOMAN,Study1,U,69,70,Study,User,-,,Study/JOL,"Study Phase2",528,,,-1,-1,,,,1
5d12803df8388b00193c69cb,tsahnjxiyx,Nick_Dissertation_EX1,1,244,2020-06-02T10:06:08-07:00,1.0280838012695,2,versionA_stim.csv,READVersionB.csv,"Read Version B","Dissertation, read only version B",CASH,WOULD,Study1,U,83,8,Study,User,-,,Study/JOL,"Study Phase2",557,,,-1,-1,,,,1
5d12803df8388b00193c69cb,tsahnjxiyx,Nick_Dissertation_EX1,1,245,2020-06-02T10:06:09-07:00,1.0975260734558,2,versionA_stim.csv,READVersionB.csv,"Read Version B","Dissertation, read only version B",WORK,CHORE,Study1,B,39,60,Study,User,-,,Study/JOL,"Study Phase2",687,,,-1,-1,,,,1
5d12803df8388b00193c69cb,tsahnjxiyx,Nick_Dissertation_EX1,1,246,2020-06-02T10:06:10-07:00,1.0159680843353,2,versionA_stim.csv,READVersionB.csv,"Read Version B","Dissertation, read only version B",VALLEY,ADD,Study1,U,82,59,Study,User,-,,Study/JOL,"Study Phase2",610,,,-1,-1,,,,1
5d12803df8388b00193c69cb,tsahnjxiyx,Nick_Dissertation_EX1,1,247,2020-06-02T10:06:11-07:00,1.1512730121613,2,versionA_stim.csv,READVersionB.csv,"Read Version B","Dissertation, read only version B",ARTERY,BRONZE,Study1,U,74,55,Study,User,-,,Study/JOL,"Study Phase2",721,,,-1,-1,,,,1
5d12803df8388b00193c69cb,tsahnjxiyx,Nick_Dissertation_EX1,1,248,2020-06-02T10:06:12-07:00,1.0147488117218,2,versionA_stim.csv,READVersionB.csv,"Read Version B","Dissertation, read only version B",FIRE,BLAZE,Study1,B,45,43,Study,User,-,,Study/JOL,"Study Phase2",572,,,-1,-1,,,,1
5d12803df8388b00193c69cb,tsahnjxiyx,Nick_Dissertation_EX1,1,249,2020-06-02T10:06:14-07:00,1.098541021347,2,versionA_stim.csv,READVersionB.csv,"Read Version B","Dissertation, read only version B",MATH,DIVISION,Study1,B,33,38,Study,User,-,,Study/JOL,"Study Phase2",686,,,-1,-1,,,,1
5d12803df8388b00193c69cb,tsahnjxiyx,Nick_Dissertation_EX1,1,250,2020-06-02T10:06:15-07:00,1.1198861598969,2,versionA_stim.csv,READVersionB.csv,"Read Version B","Dissertation, read only version B",TAKE,SEIZE,Study1,B,29,83,Study,User,-,,Study/JOL,"Study Phase2",686,,,-1,-1,,,,1
5d12803df8388b00193c69cb,tsahnjxiyx,Nick_Dissertation_EX1,1,251,2020-06-02T10:06:16-07:00,1.2273750305176,2,versionA_stim.csv,READVersionB.csv,"Read Version B","Dissertation, read only version B",DARK,CAVE,Study1,B,28,9,Study,User,-,,Study/JOL,"Study Phase2",819,,,-1,-1,,,,1
5d12803df8388b00193c69cb,tsahnjxiyx,Nick_Dissertation_EX1,1,252,2020-06-02T10:06:17-07:00,1.0211908817291,2,versionA_stim.csv,READVersionB.csv,"Read Version B","Dissertation, read only version B",DIGESTION,STOMACH,Study1,F,7,74,Study,User,-,,Study/JOL,"Study Phase2",579,,,-1,-1,,,,1
5d12803df8388b00193c69cb,tsahnjxiyx,Nick_Dissertation_EX1,1,253,2020-06-02T10:06:18-07:00,0.90634894371033,2,versionA_stim.csv,READVersionB.csv,"Read Version B","Dissertation, read only version B",FULL,ENOUGH,Study1,B,26,63,Study,User,-,,Study/JOL,"Study Phase2",468,,,-1,-1,,,,1
5d12803df8388b00193c69cb,tsahnjxiyx,Nick_Dissertation_EX1,1,254,2020-06-02T10:06:19-07:00,0.90000510215759,2,versionA_stim.csv,READVersionB.csv,"Read Version B","Dissertation, read only version B",HONEY,BEE,Study1,S,63,77,Study,User,-,,Study/JOL,"Study Phase2",486,,,-1,-1,,,,1
5d12803df8388b00193c69cb,tsahnjxiyx,Nick_Dissertation_EX1,1,255,2020-06-02T10:06:20-07:00,0.93411302566528,2,versionA_stim.csv,READVersionB.csv,"Read Version B","Dissertation, read only version B",KING,VASE,Study1,U,85,72,Study,User,-,,Study/JOL,"Study Phase2",528,,,-1,-1,,,,1
5d12803df8388b00193c69cb,tsahnjxiyx,Nick_Dissertation_EX1,1,256,2020-06-02T10:06:21-07:00,0.96410393714905,2,versionA_stim.csv,READVersionB.csv,"Read Version B","Dissertation, read only version B",DISCOVER,FLOOR,Study1,U,71,51,Study,User,-,,Study/JOL,"Study Phase2",495,,,-1,-1,,,,1
5d12803df8388b00193c69cb,tsahnjxiyx,Nick_Dissertation_EX1,1,257,2020-06-02T10:06:22-07:00,0.90111207962036,2,versionA_stim.csv,READVersionB.csv,"Read Version B","Dissertation, read only version B",LOCATION,SITE,Study1,S,48,73,Study,User,-,,Study/JOL,"Study Phase2",480,,,-1,-1,,,,1
5d12803df8388b00193c69cb,tsahnjxiyx,Nick_Dissertation_EX1,1,258,2020-06-02T10:06:22-07:00,0.9740138053894,2,versionA_stim.csv,READVersionB.csv,"Read Version B","Dissertation, read only version B",PAW,DOG,Study1,F,15,22,Study,User,-,,Study/JOL,"Study Phase2",563,,,-1,-1,,,,1
5d12803df8388b00193c69cb,tsahnjxiyx,Nick_Dissertation_EX1,1,259,2020-06-02T10:06:23-07:00,0.92711114883423,2,versionA_stim.csv,READVersionB.csv,"Read Version B","Dissertation, read only version B",HORNET,STING,Study1,F,11,17,Study,User,-,,Study/JOL,"Study Phase2",520,,,-1,-1,,,,1
5d12803df8388b00193c69cb,tsahnjxiyx,Nick_Dissertation_EX1,1,260,2020-06-02T10:06:24-07:00,0.91115093231201,2,versionA_stim.csv,READVersionB.csv,"Read Version B","Dissertation, read only version B",BLOW,WIND,Study1,S,55,15,Study,User,-,,Study/JOL,"Study Phase2",498,,,-1,-1,,,,1
5d12803df8388b00193c69cb,tsahnjxiyx,Nick_Dissertation_EX1,1,261,2020-06-02T10:06:25-07:00,1.0041451454163,2,versionA_stim.csv,READVersionB.csv,"Read Version B","Dissertation, read only version B",SHERRIF,POLICE,BUFFER2,Buffer,87,88,Study,User,-,,Study/JOL,BUFFER4,576,,,-1,-1,,,,1
5d12803df8388b00193c69cb,tsahnjxiyx,Nick_Dissertation_EX1,1,262,2020-06-02T10:06:26-07:00,0.91107392311096,2,versionA_stim.csv,READVersionB.csv,"Read Version B","Dissertation, read only version B",MALT,CHOCOLATE,BUFFER2,Buffer,88,91,Study,User,-,,Study/JOL,BUFFER4,486,,,-1,-1,,,,1
5d12803df8388b00193c69cb,tsahnjxiyx,Nick_Dissertation_EX1,1,263,2020-06-02T10:06:27-07:00,0.99301099777222,2,versionA_stim.csv,READVersionB.csv,"Read Version B","Dissertation, read only version B",GEESE,GOOSE,BUFFER2,Buffer,86,87,Study,User,-,,Study/JOL,BUFFER4,579,,,-1,-1,,,,1
5d12803df8388b00193c69cb,tsahnjxiyx,Nick_Dissertation_EX1,1,264,2020-06-02T10:06:29-07:00,1.2792809009552,2,versionA_stim.csv,READVersionB.csv,"Read Version B","Dissertation, read only version B",THING,STUFF,BUFFER2,Buffer,90,90,Study,User,-,,Study/JOL,BUFFER4,869,,,-1,-1,,,,1
5d12803df8388b00193c69cb,tsahnjxiyx,Nick_Dissertation_EX1,1,265,2020-06-02T10:06:30-07:00,1.1744821071625,2,versionA_stim.csv,READVersionB.csv,"Read Version B","Dissertation, read only version B",MOON,SPACE,BUFFER2,Buffer,89,89,Study,User,-,,Study/JOL,BUFFER4,748,,,-1,-1,,,,1
5d12803df8388b00193c69cb,tsahnjxiyx,Nick_Dissertation_EX1,1,266,2020-06-02T10:06:31-07:00,1.4237580299377,2,versionA_stim.csv,READVersionB.csv,"Read Version B","Dissertation, read only version B",,,,,,0,Instruct,User,-,"You have completed this section. Please press Enter.",Filler_Instruction,Instruct5,916,,,-1,-1,,,,1
5d12803df8388b00193c69cb,tsahnjxiyx,Nick_Dissertation_EX1,1,267,2020-06-02T10:08:32-07:00,120.56302881241,2,versionA_stim.csv,READVersionB.csv,"Read Version B","Dissertation, read only version B",,,,,,0,FreeRecall,120,120,"Please list the 50 US states in reverse alphabetical order (z - a). The task will automatically advance to the next screen after two minutes.",,Filler2,120005,"WYOMING WISCONSIN WEST VIRGINIA WASHINGTON VIRGINIA",0,31904,62420,0,0,,0.572
5d12803df8388b00193c69cb,tsahnjxiyx,Nick_Dissertation_EX1,1,268,2020-06-02T10:08:43-07:00,11.370178222656,2,versionA_stim.csv,READVersionB.csv,"Read Version B","Dissertation, read only version B",,,,,,0,Instruct,-,10,"You will now be presented with the first word from each of the previously studied item pairs. Please type the missing word. If you do not know the word, you may guess or press Enter to skip forward to the next pair.",,Instruct6,10809,,,-1,-1,,,,0.164
5d12803df8388b00193c69cb,tsahnjxiyx,Nick_Dissertation_EX1,1,269,2020-06-02T10:08:47-07:00,3.753026008606,2,versionA_stim.csv,READVersionB.csv,"Read Version B","Dissertation, read only version B",PLANE,PILOT,Study1,B,44,35,Test,User,-,,Recall,Recall2,3182,,0,-1,-1,0,0,,1
5d12803df8388b00193c69cb,tsahnjxiyx,Nick_Dissertation_EX1,1,270,2020-06-02T10:08:48-07:00,1.4891998767853,2,versionA_stim.csv,READVersionB.csv,"Read Version B","Dissertation, read only version B",PUSHER,CLUTTER,Study1,U,66,80,Test,User,-,,Recall,Recall2,1030,,0,-1,-1,0,0,,1
5d12803df8388b00193c69cb,tsahnjxiyx,Nick_Dissertation_EX1,1,271,2020-06-02T10:08:50-07:00,1.333300113678,2,versionA_stim.csv,READVersionB.csv,"Read Version B","Dissertation, read only version B",POP,SODA,Study1,S,56,44,Test,User,-,,Recall,Recall2,854,,0,-1,-1,0,0,,1
5d12803df8388b00193c69cb,tsahnjxiyx,Nick_Dissertation_EX1,1,272,2020-06-02T10:08:54-07:00,4.6902289390564,2,versionA_stim.csv,READVersionB.csv,"Read Version B","Dissertation, read only version B",HORNET,STING,Study1,F,11,17,Test,User,-,,Recall,Recall2,4137,STING,100,2651,3188,1,1,,1
5d12803df8388b00193c69cb,tsahnjxiyx,Nick_Dissertation_EX1,1,273,2020-06-02T10:08:56-07:00,1.2575218677521,2,versionA_stim.csv,READVersionB.csv,"Read Version B","Dissertation, read only version B",SLEEP,DROWSY,Study1,B,41,65,Test,User,-,,Recall,Recall2,796,,0,-1,-1,0,0,,1
5d12803df8388b00193c69cb,tsahnjxiyx,Nick_Dissertation_EX1,1,274,2020-06-02T10:08:57-07:00,1.0945401191711,2,versionA_stim.csv,READVersionB.csv,"Read Version B","Dissertation, read only version B",GRILL,BAR,Study1,S,52,26,Test,User,-,,Recall,Recall2,648,,0,-1,-1,0,0,,1
5d12803df8388b00193c69cb,tsahnjxiyx,Nick_Dissertation_EX1,1,275,2020-06-02T10:08:59-07:00,2.1536798477173,2,versionA_stim.csv,READVersionB.csv,"Read Version B","Dissertation, read only version B",NUMBER,AMOUNT,Study1,S,47,16,Test,User,-,,Recall,Recall2,1726,,0,-1,-1,0,0,,1
5d12803df8388b00193c69cb,tsahnjxiyx,Nick_Dissertation_EX1,1,276,2020-06-02T10:09:00-07:00,1.2867112159729,2,versionA_stim.csv,READVersionB.csv,"Read Version B","Dissertation, read only version B",CREDIT,CARD,Study1,F,23,36,Test,User,-,,Recall,Recall2,829,,0,-1,-1,0,0,,1
5d12803df8388b00193c69cb,tsahnjxiyx,Nick_Dissertation_EX1,1,277,2020-06-02T10:09:01-07:00,1.1492128372192,2,versionA_stim.csv,READVersionB.csv,"Read Version B","Dissertation, read only version B",TRIAL,JURY,Study1,S,50,13,Test,User,-,,Recall,Recall2,697,,0,-1,-1,0,0,,1
5d12803df8388b00193c69cb,tsahnjxiyx,Nick_Dissertation_EX1,1,278,2020-06-02T10:09:03-07:00,1.5841660499573,2,versionA_stim.csv,READVersionB.csv,"Read Version B","Dissertation, read only version B",CIRCLE,ROUND,Study1,S,65,14,Test,User,-,,Recall,Recall2,1160,,0,-1,-1,0,0,,1
5d12803df8388b00193c69cb,tsahnjxiyx,Nick_Dissertation_EX1,1,279,2020-06-02T10:09:05-07:00,2.556165933609,2,versionA_stim.csv,READVersionB.csv,"Read Version B","Dissertation, read only version B",LETTUCE,SALAD,Study1,S,59,78,Test,User,-,,Recall,Recall2,2013,,0,-1,-1,0,0,,1
5d12803df8388b00193c69cb,tsahnjxiyx,Nick_Dissertation_EX1,1,280,2020-06-02T10:09:07-07:00,1.1284551620483,2,versionA_stim.csv,READVersionB.csv,"Read Version B","Dissertation, read only version B",CASH,WOULD,Study1,U,83,8,Test,User,-,,Recall,Recall2,706,,0,-1,-1,0,0,,1
5d12803df8388b00193c69cb,tsahnjxiyx,Nick_Dissertation_EX1,1,281,2020-06-02T10:09:08-07:00,1.180743932724,2,versionA_stim.csv,READVersionB.csv,"Read Version B","Dissertation, read only version B",LIFT,WOMAN,Study1,U,69,70,Test,User,-,,Recall,Recall2,733,,0,-1,-1,0,0,,1
5d12803df8388b00193c69cb,tsahnjxiyx,Nick_Dissertation_EX1,1,282,2020-06-02T10:09:09-07:00,1.626394033432,2,versionA_stim.csv,READVersionB.csv,"Read Version B","Dissertation, read only version B",ARTERY,BRONZE,Study1,U,74,55,Test,User,-,,Recall,Recall2,1188,,0,-1,-1,0,0,,1
5d12803df8388b00193c69cb,tsahnjxiyx,Nick_Dissertation_EX1,1,283,2020-06-02T10:09:14-07:00,4.4394278526306,2,versionA_stim.csv,READVersionB.csv,"Read Version B","Dissertation, read only version B",LAW,ATTORNEY,Study1,B,34,64,Test,User,-,,Recall,Recall2,3886,ATTORNEY,100,1879,2952,1,1,,1
5d12803df8388b00193c69cb,tsahnjxiyx,Nick_Dissertation_EX1,1,284,2020-06-02T10:09:15-07:00,1.1212420463562,2,versionA_stim.csv,READVersionB.csv,"Read Version B","Dissertation, read only version B",PAW,DOG,Study1,F,15,22,Test,User,-,,Recall,Recall2,704,,0,-1,-1,0,0,,1
5d12803df8388b00193c69cb,tsahnjxiyx,Nick_Dissertation_EX1,1,285,2020-06-02T10:09:16-07:00,1.1535770893097,2,versionA_stim.csv,READVersionB.csv,"Read Version B","Dissertation, read only version B",MEANING,DEFINITION,Study1,S,62,41,Test,User,-,,Recall,Recall2,718,,0,-1,-1,0,0,,1
5d12803df8388b00193c69cb,tsahnjxiyx,Nick_Dissertation_EX1,1,286,2020-06-02T10:09:17-07:00,1.0624470710754,2,versionA_stim.csv,READVersionB.csv,"Read Version B","Dissertation, read only version B",SMELL,STENCH,Study1,B,42,30,Test,User,-,,Recall,Recall2,645,,0,-1,-1,0,0,,1
5d12803df8388b00193c69cb,tsahnjxiyx,Nick_Dissertation_EX1,1,287,2020-06-02T10:09:20-07:00,3.3044748306274,2,versionA_stim.csv,READVersionB.csv,"Read Version B","Dissertation, read only version B",FIRE,BLAZE,Study1,B,45,43,Test,User,-,,Recall,Recall2,2772,,0,-1,-1,0,0,,1
5d12803df8388b00193c69cb,tsahnjxiyx,Nick_Dissertation_EX1,1,288,2020-06-02T10:09:22-07:00,1.3222889900208,2,versionA_stim.csv,READVersionB.csv,"Read Version B","Dissertation, read only version B",HYGIENE,CLEAN,Study1,F,17,48,Test,User,-,,Recall,Recall2,889,,0,-1,-1,0,0,,1
5d12803df8388b00193c69cb,tsahnjxiyx,Nick_Dissertation_EX1,1,289,2020-06-02T10:09:23-07:00,1.2536151409149,2,versionA_stim.csv,READVersionB.csv,"Read Version B","Dissertation, read only version B",DIETARY,SACKING,Study1,U,67,33,Test,User,-,,Recall,Recall2,834,,0,-1,-1,0,0,,1
5d12803df8388b00193c69cb,tsahnjxiyx,Nick_Dissertation_EX1,1,290,2020-06-02T10:09:27-07:00,3.7686789035797,2,versionA_stim.csv,READVersionB.csv,"Read Version B","Dissertation, read only version B",TAKE,SEIZE,Study1,B,29,83,Test,User,-,,Recall,Recall2,3224,OUT,0,2048,2242,0,0,,1
5d12803df8388b00193c69cb,tsahnjxiyx,Nick_Dissertation_EX1,1,291,2020-06-02T10:09:31-07:00,4.6285870075226,2,versionA_stim.csv,READVersionB.csv,"Read Version B","Dissertation, read only version B",CHISEL,HAMMER,Study1,F,9,25,Test,User,-,,Recall,Recall2,4106,HAMMER,100,2046,3012,1,1,,1
5d12803df8388b00193c69cb,tsahnjxiyx,Nick_Dissertation_EX1,1,292,2020-06-02T10:09:33-07:00,1.8064069747925,2,versionA_stim.csv,READVersionB.csv,"Read Version B","Dissertation, read only version B",TUNA,FISH,Study1,F,25,56,Test,User,-,,Recall,Recall2,1333,,0,-1,-1,0,0,,1
5d12803df8388b00193c69cb,tsahnjxiyx,Nick_Dissertation_EX1,1,293,2020-06-02T10:09:34-07:00,1.2854471206665,2,versionA_stim.csv,READVersionB.csv,"Read Version B","Dissertation, read only version B",DRINK,SIP,Study1,B,27,10,Test,User,-,,Recall,Recall2,875,,0,-1,-1,0,0,,1
5d12803df8388b00193c69cb,tsahnjxiyx,Nick_Dissertation_EX1,1,294,2020-06-02T10:09:36-07:00,1.6973638534546,2,versionA_stim.csv,READVersionB.csv,"Read Version B","Dissertation, read only version B",SENTENCE,WORD,Study1,B,31,66,Test,User,-,,Recall,Recall2,1219,,0,-1,-1,0,0,,1
5d12803df8388b00193c69cb,tsahnjxiyx,Nick_Dissertation_EX1,1,295,2020-06-02T10:09:45-07:00,8.5849630832672,2,versionA_stim.csv,READVersionB.csv,"Read Version B","Dissertation, read only version B",EDITOR,NEWS,Study1,F,10,24,Test,User,-,,Recall,Recall2,8023,,0,4603,5676,0,0,,1
5d12803df8388b00193c69cb,tsahnjxiyx,Nick_Dissertation_EX1,1,296,2020-06-02T10:09:49-07:00,4.3730089664459,2,versionA_stim.csv,READVersionB.csv,"Read Version B","Dissertation, read only version B",KIDNEY,LIVER,Study1,S,53,71,Test,User,-,,Recall,Recall2,3841,LIVER,100,2543,2984,1,1,,1
5d12803df8388b00193c69cb,tsahnjxiyx,Nick_Dissertation_EX1,1,297,2020-06-02T10:09:51-07:00,1.4871170520782,2,versionA_stim.csv,READVersionB.csv,"Read Version B","Dissertation, read only version B",WINE,CHEESE,Study1,S,57,37,Test,User,-,,Recall,Recall2,1053,,0,-1,-1,0,0,,1
5d12803df8388b00193c69cb,tsahnjxiyx,Nick_Dissertation_EX1,1,298,2020-06-02T10:09:52-07:00,1.223109960556,2,versionA_stim.csv,READVersionB.csv,"Read Version B","Dissertation, read only version B",KING,VASE,Study1,U,85,72,Test,User,-,,Recall,Recall2,808,,0,-1,-1,0,0,,1
5d12803df8388b00193c69cb,tsahnjxiyx,Nick_Dissertation_EX1,1,299,2020-06-02T10:10:22-07:00,30.40997505188,2,versionA_stim.csv,READVersionB.csv,"Read Version B","Dissertation, read only version B",DELINQUENT,BAD,Study1,F,6,84,Test,User,-,,Recall,Recall2,29868,,0,-1,-1,0,0,,0.067
5d12803df8388b00193c69cb,tsahnjxiyx,Nick_Dissertation_EX1,1,300,2020-06-02T10:10:24-07:00,1.2633559703827,2,versionA_stim.csv,READVersionB.csv,"Read Version B","Dissertation, read only version B",DIGESTION,STOMACH,Study1,F,7,74,Test,User,-,,Recall,Recall2,832,,0,-1,-1,0,0,,1
5d12803df8388b00193c69cb,tsahnjxiyx,Nick_Dissertation_EX1,1,301,2020-06-02T10:10:27-07:00,3.1301069259644,2,versionA_stim.csv,READVersionB.csv,"Read Version B","Dissertation, read only version B",VALLEY,ADD,Study1,U,82,59,Test,User,-,,Recall,Recall2,2589,,0,-1,-1,0,0,,1
5d12803df8388b00193c69cb,tsahnjxiyx,Nick_Dissertation_EX1,1,302,2020-06-02T10:10:29-07:00,2.2037441730499,2,versionA_stim.csv,READVersionB.csv,"Read Version B","Dissertation, read only version B",BEGIN,END,Study1,S,54,79,Test,User,-,,Recall,Recall2,774,,0,-1,-1,0,0,,1
5d12803df8388b00193c69cb,tsahnjxiyx,Nick_Dissertation_EX1,1,303,2020-06-02T10:10:30-07:00,1.5441749095917,2,versionA_stim.csv,READVersionB.csv,"Read Version B","Dissertation, read only version B",HONEY,BEE,Study1,S,63,77,Test,User,-,,Recall,Recall2,1126,,0,-1,-1,0,0,,1
5d12803df8388b00193c69cb,tsahnjxiyx,Nick_Dissertation_EX1,1,304,2020-06-02T10:10:35-07:00,4.2179689407349,2,versionA_stim.csv,READVersionB.csv,"Read Version B","Dissertation, read only version B",ORCHID,FLOWER,Study1,F,24,53,Test,User,-,,Recall,Recall2,3604,FLOWER,100,2395,2956,1,1,,1
5d12803df8388b00193c69cb,tsahnjxiyx,Nick_Dissertation_EX1,1,305,2020-06-02T10:10:36-07:00,1.4361250400543,2,versionA_stim.csv,READVersionB.csv,"Read Version B","Dissertation, read only version B",FIX,HAND,Study1,U,75,82,Test,User,-,,Recall,Recall2,950,,0,-1,-1,0,0,,1
5d12803df8388b00193c69cb,tsahnjxiyx,Nick_Dissertation_EX1,1,306,2020-06-02T10:10:37-07:00,1.1540420055389,2,versionA_stim.csv,READVersionB.csv,"Read Version B","Dissertation, read only version B",HAPPY,CAR,Study1,U,77,57,Test,User,-,,Recall,Recall2,744,,0,-1,-1,0,0,,1
5d12803df8388b00193c69cb,tsahnjxiyx,Nick_Dissertation_EX1,1,307,2020-06-02T10:10:39-07:00,1.847048997879,2,versionA_stim.csv,READVersionB.csv,"Read Version B","Dissertation, read only version B",WORK,CHORE,Study1,B,39,60,Test,User,-,,Recall,Recall2,1323,,0,-1,-1,0,0,,1
5d12803df8388b00193c69cb,tsahnjxiyx,Nick_Dissertation_EX1,1,308,2020-06-02T10:10:41-07:00,1.7025299072266,2,versionA_stim.csv,READVersionB.csv,"Read Version B","Dissertation, read only version B",BITTER,COLD,Study1,F,12,29,Test,User,-,,Recall,Recall2,1105,,0,-1,-1,0,0,,1
5d12803df8388b00193c69cb,tsahnjxiyx,Nick_Dissertation_EX1,1,309,2020-06-02T10:10:42-07:00,1.342677116394,2,versionA_stim.csv,READVersionB.csv,"Read Version B","Dissertation, read only version B",DISCOVER,FLOOR,Study1,U,71,51,Test,User,-,,Recall,Recall2,866,,0,-1,-1,0,0,,1
5d12803df8388b00193c69cb,tsahnjxiyx,Nick_Dissertation_EX1,1,310,2020-06-02T10:10:47-07:00,4.5242068767548,2,versionA_stim.csv,READVersionB.csv,"Read Version B","Dissertation, read only version B",GEOLOGY,ROCK,Study1,F,19,61,Test,User,-,,Recall,Recall2,4001,ROCK,100,1652,1957,1,1,,1
5d12803df8388b00193c69cb,tsahnjxiyx,Nick_Dissertation_EX1,1,311,2020-06-02T10:10:48-07:00,1.1079981327057,2,versionA_stim.csv,READVersionB.csv,"Read Version B","Dissertation, read only version B",DUMP,WASTE,Study1,S,49,81,Test,User,-,,Recall,Recall2,685,,0,-1,-1,0,0,,1
5d12803df8388b00193c69cb,tsahnjxiyx,Nick_Dissertation_EX1,1,312,2020-06-02T10:10:49-07:00,1.5405740737915,2,versionA_stim.csv,READVersionB.csv,"Read Version B","Dissertation, read only version B",BUG,WASP,Study1,B,32,52,Test,User,-,,Recall,Recall2,1124,,0,-1,-1,0,0,,1
5d12803df8388b00193c69cb,tsahnjxiyx,Nick_Dissertation_EX1,1,313,2020-06-02T10:10:55-07:00,5.7596888542175,2,versionA_stim.csv,READVersionB.csv,"Read Version B","Dissertation, read only version B",BATHROOM,TOILET,Study1,S,58,19,Test,User,-,,Recall,Recall2,5215,TOILET,100,3729,4249,1,1,,1
5d12803df8388b00193c69cb,tsahnjxiyx,Nick_Dissertation_EX1,1,314,2020-06-02T10:10:56-07:00,1.389436006546,2,versionA_stim.csv,READVersionB.csv,"Read Version B","Dissertation, read only version B",HUNGER,FAMINE,Study1,B,40,27,Test,User,-,,Recall,Recall2,966,,0,-1,-1,0,0,,1
5d12803df8388b00193c69cb,tsahnjxiyx,Nick_Dissertation_EX1,1,315,2020-06-02T10:11:00-07:00,3.6298549175262,2,versionA_stim.csv,READVersionB.csv,"Read Version B","Dissertation, read only version B",WAY,OUT,Study1,F,16,23,Test,User,-,,Recall,Recall2,3095,OUT,100,2018,2185,1,1,,1
5d12803df8388b00193c69cb,tsahnjxiyx,Nick_Dissertation_EX1,1,316,2020-06-02T10:11:01-07:00,1.3985660076141,2,versionA_stim.csv,READVersionB.csv,"Read Version B","Dissertation, read only version B",HEIGHT,GROWTH,Study1,B,30,12,Test,User,-,,Recall,Recall2,929,,0,-1,-1,0,0,,1
5d12803df8388b00193c69cb,tsahnjxiyx,Nick_Dissertation_EX1,1,317,2020-06-02T10:11:06-07:00,4.794958114624,2,versionA_stim.csv,READVersionB.csv,"Read Version B","Dissertation, read only version B",MATH,DIVISION,Study1,B,33,38,Test,User,-,,Recall,Recall2,4250,DIVISION,100,1860,2980,1,1,,1
5d12803df8388b00193c69cb,tsahnjxiyx,Nick_Dissertation_EX1,1,318,2020-06-02T10:11:08-07:00,1.2797329425812,2,versionA_stim.csv,READVersionB.csv,"Read Version B","Dissertation, read only version B",PARK,HUNGRY,Study1,U,68,49,Test,User,-,,Recall,Recall2,855,,0,-1,-1,0,0,,1
5d12803df8388b00193c69cb,tsahnjxiyx,Nick_Dissertation_EX1,1,319,2020-06-02T10:11:15-07:00,7.1283750534058,2,versionA_stim.csv,READVersionB.csv,"Read Version B","Dissertation, read only version B",DISCUSSION,TALK,Study1,F,21,11,Test,User,-,,Recall,Recall2,6574,TALK,100,3127,3511,1,1,,1
5d12803df8388b00193c69cb,tsahnjxiyx,Nick_Dissertation_EX1,1,320,2020-06-02T10:11:16-07:00,1.1947419643402,2,versionA_stim.csv,READVersionB.csv,"Read Version B","Dissertation, read only version B",SOON,BELT,Study1,U,70,31,Test,User,-,,Recall,Recall2,763,,0,-1,-1,0,0,,1
5d12803df8388b00193c69cb,tsahnjxiyx,Nick_Dissertation_EX1,1,321,2020-06-02T10:11:18-07:00,2.0898079872131,2,versionA_stim.csv,READVersionB.csv,"Read Version B","Dissertation, read only version B",MACHINE,POSITION,Study1,U,76,39,Test,User,-,,Recall,Recall2,1671,,0,-1,-1,0,0,,1
5d12803df8388b00193c69cb,tsahnjxiyx,Nick_Dissertation_EX1,1,322,2020-06-02T10:11:19-07:00,1.5254621505737,2,versionA_stim.csv,READVersionB.csv,"Read Version B","Dissertation, read only version B",DEATH,BUSINESS,Study1,U,72,76,Test,User,-,,Recall,Recall2,1099,,0,-1,-1,0,0,,1
5d12803df8388b00193c69cb,tsahnjxiyx,Nick_Dissertation_EX1,1,323,2020-06-02T10:11:22-07:00,2.4425959587097,2,versionA_stim.csv,READVersionB.csv,"Read Version B","Dissertation, read only version B",SWAN,BIRD,Study1,F,14,45,Test,User,-,,Recall,Recall2,1883,,0,-1,-1,0,0,,1
5d12803df8388b00193c69cb,tsahnjxiyx,Nick_Dissertation_EX1,1,324,2020-06-02T10:11:26-07:00,3.652186870575,2,versionA_stim.csv,READVersionB.csv,"Read Version B","Dissertation, read only version B",LOCATION,SITE,Study1,S,48,73,Test,User,-,,Recall,Recall2,3112,,0,-1,-1,0,0,,1
5d12803df8388b00193c69cb,tsahnjxiyx,Nick_Dissertation_EX1,1,325,2020-06-02T10:11:27-07:00,1.1750340461731,2,versionA_stim.csv,READVersionB.csv,"Read Version B","Dissertation, read only version B",ALLOW,TUCK,Study1,U,78,21,Test,User,-,,Recall,Recall2,723,,0,-1,-1,0,0,,1
5d12803df8388b00193c69cb,tsahnjxiyx,Nick_Dissertation_EX1,1,326,2020-06-02T10:12:03-07:00,36.579112052917,2,versionA_stim.csv,READVersionB.csv,"Read Version B","Dissertation, read only version B",ARCHITECTURE,DESIGN,Study1,S,51,86,Test,User,-,,Recall,Recall2,36041,,0,-1,-1,0,0,,0.238
5d12803df8388b00193c69cb,tsahnjxiyx,Nick_Dissertation_EX1,1,327,2020-06-02T10:12:04-07:00,1.1656670570374,2,versionA_stim.csv,READVersionB.csv,"Read Version B","Dissertation, read only version B",DUE,ASSIGNMENT,Study1,S,46,28,Test,User,-,,Recall,Recall2,721,,0,-1,-1,0,0,,1
5d12803df8388b00193c69cb,tsahnjxiyx,Nick_Dissertation_EX1,1,328,2020-06-02T10:12:08-07:00,3.0861489772797,2,versionA_stim.csv,READVersionB.csv,"Read Version B","Dissertation, read only version B",REVOLUTION,WAR,Study1,F,20,7,Test,User,-,,Recall,Recall2,2543,WAR,100,1746,2035,1,1,,1
5d12803df8388b00193c69cb,tsahnjxiyx,Nick_Dissertation_EX1,1,329,2020-06-02T10:12:09-07:00,1.1638209819794,2,versionA_stim.csv,READVersionB.csv,"Read Version B","Dissertation, read only version B",ART,LION,Study1,U,79,34,Test,User,-,,Recall,Recall2,722,,0,-1,-1,0,0,,1
5d12803df8388b00193c69cb,tsahnjxiyx,Nick_Dissertation_EX1,1,330,2020-06-02T10:12:11-07:00,2.4587469100952,2,versionA_stim.csv,READVersionB.csv,"Read Version B","Dissertation, read only version B",KEY,LATCH,Study1,B,36,42,Test,User,-,,Recall,Recall2,1812,,0,-1,-1,0,0,,1
5d12803df8388b00193c69cb,tsahnjxiyx,Nick_Dissertation_EX1,1,331,2020-06-02T10:12:13-07:00,1.9597589969635,2,versionA_stim.csv,READVersionB.csv,"Read Version B","Dissertation, read only version B",WAGE,MONEY,Study1,F,8,85,Test,User,-,,Recall,Recall2,1543,,0,-1,-1,0,0,,1
5d12803df8388b00193c69cb,tsahnjxiyx,Nick_Dissertation_EX1,1,332,2020-06-02T10:12:16-07:00,2.6467099189758,2,versionA_stim.csv,READVersionB.csv,"Read Version B","Dissertation, read only version B",HOT,CHILI,Study1,B,37,40,Test,User,-,,Recall,Recall2,2103,,0,-1,-1,0,0,,1
5d12803df8388b00193c69cb,tsahnjxiyx,Nick_Dissertation_EX1,1,333,2020-06-02T10:12:17-07:00,1.4050900936127,2,versionA_stim.csv,READVersionB.csv,"Read Version B","Dissertation, read only version B",BRIDGE,WATER,Study1,F,18,75,Test,User,-,,Recall,Recall2,970,,0,-1,-1,0,0,,1
5d12803df8388b00193c69cb,tsahnjxiyx,Nick_Dissertation_EX1,1,334,2020-06-02T10:12:18-07:00,1.0984499454498,2,versionA_stim.csv,READVersionB.csv,"Read Version B","Dissertation, read only version B",GREAT,FANTASTIC,Study1,B,35,47,Test,User,-,,Recall,Recall2,662,,0,-1,-1,0,0,,1
5d12803df8388b00193c69cb,tsahnjxiyx,Nick_Dissertation_EX1,1,335,2020-06-02T10:12:20-07:00,1.4665341377258,2,versionA_stim.csv,READVersionB.csv,"Read Version B","Dissertation, read only version B",HERD,COW,Study1,F,22,69,Test,User,-,,Recall,Recall2,1038,,0,-1,-1,0,0,,1
5d12803df8388b00193c69cb,tsahnjxiyx,Nick_Dissertation_EX1,1,336,2020-06-02T10:12:24-07:00,4.002781867981,2,versionA_stim.csv,READVersionB.csv,"Read Version B","Dissertation, read only version B",BABY,CHILD,Study1,S,64,58,Test,User,-,,Recall,Recall2,3471,CHILD,100,1759,2691,1,1,,1
5d12803df8388b00193c69cb,tsahnjxiyx,Nick_Dissertation_EX1,1,337,2020-06-02T10:12:25-07:00,1.25568318367,2,versionA_stim.csv,READVersionB.csv,"Read Version B","Dissertation, read only version B",SUGAR,RIDDLE,Study1,U,81,62,Test,User,-,,Recall,Recall2,820,,0,-1,-1,0,0,,1
5d12803df8388b00193c69cb,tsahnjxiyx,Nick_Dissertation_EX1,1,338,2020-06-02T10:12:26-07:00,1.1609718799591,2,versionA_stim.csv,READVersionB.csv,"Read Version B","Dissertation, read only version B",PAST,FUTURE,Study1,S,61,50,Test,User,-,,Recall,Recall2,717,,0,-1,-1,0,0,,1
5d12803df8388b00193c69cb,tsahnjxiyx,Nick_Dissertation_EX1,1,339,2020-06-02T10:12:29-07:00,2.7543389797211,2,versionA_stim.csv,READVersionB.csv,"Read Version B","Dissertation, read only version B",CLOTHES,ATTIRE,Study1,B,43,32,Test,User,-,,Recall,Recall2,2204,,0,-1,-1,0,0,,1
5d12803df8388b00193c69cb,tsahnjxiyx,Nick_Dissertation_EX1,1,340,2020-06-02T10:12:30-07:00,1.24955701828,2,versionA_stim.csv,READVersionB.csv,"Read Version B","Dissertation, read only version B",STRONG,ACCIDENT,Study1,U,80,67,Test,User,-,,Recall,Recall2,828,,0,-1,-1,0,0,,1
5d12803df8388b00193c69cb,tsahnjxiyx,Nick_Dissertation_EX1,1,341,2020-06-02T10:12:33-07:00,2.9707419872284,2,versionA_stim.csv,READVersionB.csv,"Read Version B","Dissertation, read only version B",BALL,RACKET,Study1,B,38,54,Test,User,-,,Recall,Recall2,2411,,0,-1,-1,0,0,,1
5d12803df8388b00193c69cb,tsahnjxiyx,Nick_Dissertation_EX1,1,342,2020-06-02T10:12:35-07:00,1.3902249336243,2,versionA_stim.csv,READVersionB.csv,"Read Version B","Dissertation, read only version B",FULL,ENOUGH,Study1,B,26,63,Test,User,-,,Recall,Recall2,977,,0,-1,-1,0,0,,1
5d12803df8388b00193c69cb,tsahnjxiyx,Nick_Dissertation_EX1,1,343,2020-06-02T10:12:36-07:00,1.2728440761566,2,versionA_stim.csv,READVersionB.csv,"Read Version B","Dissertation, read only version B",BLOW,WIND,Study1,S,55,15,Test,User,-,,Recall,Recall2,853,,0,-1,-1,0,0,,1
5d12803df8388b00193c69cb,tsahnjxiyx,Nick_Dissertation_EX1,1,344,2020-06-02T10:12:37-07:00,1.6042850017548,2,versionA_stim.csv,READVersionB.csv,"Read Version B","Dissertation, read only version B",SHOE,FOOT,Study1,S,60,18,Test,User,-,,Recall,Recall2,1197,,0,-1,-1,0,0,,1
5d12803df8388b00193c69cb,tsahnjxiyx,Nick_Dissertation_EX1,1,345,2020-06-02T10:12:42-07:00,4.3281559944153,2,versionA_stim.csv,READVersionB.csv,"Read Version B","Dissertation, read only version B",DEBATE,SIGHT,Study1,U,73,68,Test,User,-,,Recall,Recall2,3795,,0,-1,-1,0,0,,1
5d12803df8388b00193c69cb,tsahnjxiyx,Nick_Dissertation_EX1,1,346,2020-06-02T10:12:43-07:00,1.147607088089,2,versionA_stim.csv,READVersionB.csv,"Read Version B","Dissertation, read only version B",ROOT,PLANT,Study1,F,13,46,Test,User,-,,Recall,Recall2,725,,0,-1,-1,0,0,,1
5d12803df8388b00193c69cb,tsahnjxiyx,Nick_Dissertation_EX1,1,347,2020-06-02T10:12:45-07:00,1.6460788249969,2,versionA_stim.csv,READVersionB.csv,"Read Version B","Dissertation, read only version B",DARK,CAVE,Study1,B,28,9,Test,User,-,,Recall,Recall2,1207,,0,-1,-1,0,0,,1
5d12803df8388b00193c69cb,tsahnjxiyx,Nick_Dissertation_EX1,1,348,2020-06-02T10:12:46-07:00,1.309445142746,2,versionA_stim.csv,READVersionB.csv,"Read Version B","Dissertation, read only version B",HIDE,SICK,Study1,U,84,20,Test,User,-,,Recall,Recall2,824,,0,-1,-1,0,0,,1
5d12803df8388b00193c69cb,tsahnjxiyx,Nick_Dissertation_EX1,1,349,2020-06-02T10:12:47-07:00,1.4892840385437,2,versionA_stim.csv,READVersionB.csv,"Read Version B","Dissertation, read only version B",,,,,,0,Instruct,User,-,"You have completed this section. Please press Enter.",,Instruct7,1076,,,-1,-1,,,,1
5d12803df8388b00193c69cb,tsahnjxiyx,Nick_Dissertation_EX1,1,350,2020-06-02T10:12:50-07:00,3.038724899292,2,versionA_stim.csv,READVersionB.csv,"Read Version B","Dissertation, read only version B",,,,,,0,Instruct,User,-,"The following screen will ask you a few questions abour your experience today. You must complete these questions to receive credit.",,Instruct8,2510,,,-1,-1,,,,1
