Username,ID,ExperimentName,Session,Trial,Date,TimeDif,"Condition Number","Stimuli File","Order File","Condition Description","Condition Notes",Stimuli*Cue,Stimuli*Answer,Stimuli*Shuffle,"Stimuli*Stimuli Notes",Stimuli*Value,Procedure*Item,"Procedure*Trial Type","Procedure*Max Time","Procedure*Min Time",Procedure*Text,"Procedure*Procedure Notes",Procedure*Shuffle,Response*RT,Response*Response,Response*Accuracy,Response*RTfirst,Response*RTlast,Response*strictAcc,Response*lenientAcc,Response*focus,Response*Focus
5ecff40f77254608ec9fb30e,pc220a6x7u,Nick_Dissertation_EX1,1,1,2020-06-13T09:49:37-07:00,12.014842987061,2,versionA_stim.csv,READVersionB.csv,"Read Version B","Dissertation, read only version B",,,,,,0,Instruct,-,10,"Please study each of the following word pairs. Remember that your memory will be tested! When finished, press Enter to move to the next pair.",Initial_Instruct,Instruct1,11592,,,-1,-1,,,,1
5ecff40f77254608ec9fb30e,pc220a6x7u,Nick_Dissertation_EX1,1,2,2020-06-13T09:49:41-07:00,4.0938429832458,2,versionA_stim.csv,READVersionB.csv,"Read Version B","Dissertation, read only version B",SHRIMP,FISH,BUFFER3,Buffer,93,92,Study,User,-,,Study/JOL,BUFFER,3620,,,-1,-1,,,,1
5ecff40f77254608ec9fb30e,pc220a6x7u,Nick_Dissertation_EX1,1,3,2020-06-13T09:49:47-07:00,5.6481230258942,2,versionA_stim.csv,READVersionB.csv,"Read Version B","Dissertation, read only version B",CARROT,POTATO,BUFFER3,Buffer,91,95,Study,User,-,,Study/JOL,BUFFER,5227,,,-1,-1,,,,1
5ecff40f77254608ec9fb30e,pc220a6x7u,Nick_Dissertation_EX1,1,4,2020-06-13T09:49:52-07:00,5.7684781551361,2,versionA_stim.csv,READVersionB.csv,"Read Version B","Dissertation, read only version B",NOODLE,STRING,BUFFER3,Buffer,92,94,Study,User,-,,Study/JOL,BUFFER,5304,,,-1,-1,,,,1
5ecff40f77254608ec9fb30e,pc220a6x7u,Nick_Dissertation_EX1,1,5,2020-06-13T09:49:58-07:00,5.9154369831085,2,versionA_stim.csv,READVersionB.csv,"Read Version B","Dissertation, read only version B",CAMP,ADVENTURE,BUFFER3,Buffer,95,93,Study,User,-,,Study/JOL,BUFFER,5226,,,-1,-1,,,,1
5ecff40f77254608ec9fb30e,pc220a6x7u,Nick_Dissertation_EX1,1,6,2020-06-13T09:50:08-07:00,9.2680540084839,2,versionA_stim.csv,READVersionB.csv,"Read Version B","Dissertation, read only version B",ICE,FROZEN,BUFFER3,Buffer,94,96,Study,User,-,,Study/JOL,BUFFER,7733,,,-1,-1,,,,1
5ecff40f77254608ec9fb30e,pc220a6x7u,Nick_Dissertation_EX1,1,7,2020-06-13T09:50:10-07:00,2.7189249992371,2,versionA_stim.csv,READVersionB.csv,"Read Version B","Dissertation, read only version B",CLUE,GAME,Study2,F,97,139,Study,User,-,,Study/JOL,"Study Phase",2228,,,-1,-1,,,,1
5ecff40f77254608ec9fb30e,pc220a6x7u,Nick_Dissertation_EX1,1,8,2020-06-13T09:50:20-07:00,9.6244418621063,2,versionA_stim.csv,READVersionB.csv,"Read Version B","Dissertation, read only version B",AFFECTION,LOVE,Study2,F,115,109,Study,User,-,,Study/JOL,"Study Phase",9137,,,-1,-1,,,,1
5ecff40f77254608ec9fb30e,pc220a6x7u,Nick_Dissertation_EX1,1,9,2020-06-13T09:50:24-07:00,4.0160751342773,2,versionA_stim.csv,READVersionB.csv,"Read Version B","Dissertation, read only version B",CAR,WINDSHIELD,Study2,B,117,131,Study,User,-,,Study/JOL,"Study Phase",3520,,,-1,-1,,,,1
5ecff40f77254608ec9fb30e,pc220a6x7u,Nick_Dissertation_EX1,1,10,2020-06-13T09:50:33-07:00,9.3034539222717,2,versionA_stim.csv,READVersionB.csv,"Read Version B","Dissertation, read only version B",MIRROR,CHILDREN,Study2,U,174,113,Study,User,-,,Study/JOL,"Study Phase",8874,,,-1,-1,,,,1
5ecff40f77254608ec9fb30e,pc220a6x7u,Nick_Dissertation_EX1,1,11,2020-06-13T09:50:53-07:00,19.467673063278,2,versionA_stim.csv,READVersionB.csv,"Read Version B","Dissertation, read only version B",POP,BALLOON,Study2,B,123,165,Study,User,-,,Study/JOL,"Study Phase",18633,,,-1,-1,,,,0.29
5ecff40f77254608ec9fb30e,pc220a6x7u,Nick_Dissertation_EX1,1,12,2020-06-13T09:50:56-07:00,2.9454810619354,2,versionA_stim.csv,READVersionB.csv,"Read Version B","Dissertation, read only version B",LOUD,NOISE,Study2,S,152,137,Study,User,-,,Study/JOL,"Study Phase",2498,,,-1,-1,,,,1
5ecff40f77254608ec9fb30e,pc220a6x7u,Nick_Dissertation_EX1,1,13,2020-06-13T09:50:58-07:00,2.1216559410095,2,versionA_stim.csv,READVersionB.csv,"Read Version B","Dissertation, read only version B",EVEN,REVENGE,Study2,B,122,132,Study,User,-,,Study/JOL,"Study Phase",1482,,,-1,-1,,,,1
5ecff40f77254608ec9fb30e,pc220a6x7u,Nick_Dissertation_EX1,1,14,2020-06-13T09:51:02-07:00,3.8891348838806,2,versionA_stim.csv,READVersionB.csv,"Read Version B","Dissertation, read only version B",SHEARS,SCISSORS,Study2,F,112,167,Study,User,-,,Study/JOL,"Study Phase",2347,,,-1,-1,,,,1
5ecff40f77254608ec9fb30e,pc220a6x7u,Nick_Dissertation_EX1,1,15,2020-06-13T09:51:04-07:00,2.4450221061707,2,versionA_stim.csv,READVersionB.csv,"Read Version B","Dissertation, read only version B",PLANE,AIRCRAFT,Study2,B,129,162,Study,User,-,,Study/JOL,"Study Phase",1739,,,-1,-1,,,,1
5ecff40f77254608ec9fb30e,pc220a6x7u,Nick_Dissertation_EX1,1,16,2020-06-13T09:51:18-07:00,14.080160856247,2,versionA_stim.csv,READVersionB.csv,"Read Version B","Dissertation, read only version B",DETECTIVE,MYSTERY,Study2,F,100,134,Study,User,-,,Study/JOL,"Study Phase",13424,,,-1,-1,,,,1
5ecff40f77254608ec9fb30e,pc220a6x7u,Nick_Dissertation_EX1,1,17,2020-06-13T09:51:24-07:00,5.9231841564178,2,versionA_stim.csv,READVersionB.csv,"Read Version B","Dissertation, read only version B",LISTEN,FICTION,Study2,U,164,122,Study,User,-,,Study/JOL,"Study Phase",4294,,,-1,-1,,,,1
5ecff40f77254608ec9fb30e,pc220a6x7u,Nick_Dissertation_EX1,1,18,2020-06-13T09:51:35-07:00,10.415063858032,2,versionA_stim.csv,READVersionB.csv,"Read Version B","Dissertation, read only version B",NAME,HATE,Study2,U,167,141,Study,User,-,,Study/JOL,"Study Phase",9833,,,-1,-1,,,,1
5ecff40f77254608ec9fb30e,pc220a6x7u,Nick_Dissertation_EX1,1,19,2020-06-13T09:51:39-07:00,4.716315984726,2,versionA_stim.csv,READVersionB.csv,"Read Version B","Dissertation, read only version B",MOAT,CLEAR,Study2,U,169,163,Study,User,-,,Study/JOL,"Study Phase",4256,,,-1,-1,,,,1
5ecff40f77254608ec9fb30e,pc220a6x7u,Nick_Dissertation_EX1,1,20,2020-06-13T09:51:44-07:00,5.1508860588074,2,versionA_stim.csv,READVersionB.csv,"Read Version B","Dissertation, read only version B",DRIVER,CAR,Study2,F,106,168,Study,User,-,,Study/JOL,"Study Phase",4716,,,-1,-1,,,,1
5ecff40f77254608ec9fb30e,pc220a6x7u,Nick_Dissertation_EX1,1,21,2020-06-13T09:51:50-07:00,5.3850059509277,2,versionA_stim.csv,READVersionB.csv,"Read Version B","Dissertation, read only version B",FISH,SARDINE,Study2,B,130,123,Study,User,-,,Study/JOL,"Study Phase",4726,,,-1,-1,,,,1
5ecff40f77254608ec9fb30e,pc220a6x7u,Nick_Dissertation_EX1,1,22,2020-06-13T09:52:12-07:00,22.155625104904,2,versionA_stim.csv,READVersionB.csv,"Read Version B","Dissertation, read only version B",BIRD,PENGUIN,Study2,B,119,172,Study,User,-,,Study/JOL,"Study Phase",21671,,,-1,-1,,,,1
5ecff40f77254608ec9fb30e,pc220a6x7u,Nick_Dissertation_EX1,1,23,2020-06-13T09:52:16-07:00,3.7126178741455,2,versionA_stim.csv,READVersionB.csv,"Read Version B","Dissertation, read only version B",CACTUS,PLANT,Study2,F,98,174,Study,User,-,,Study/JOL,"Study Phase",3259,,,-1,-1,,,,1
5ecff40f77254608ec9fb30e,pc220a6x7u,Nick_Dissertation_EX1,1,24,2020-06-13T09:52:22-07:00,5.9594411849976,2,versionA_stim.csv,READVersionB.csv,"Read Version B","Dissertation, read only version B",CAT,PANTHER,Study2,B,126,129,Study,User,-,,Study/JOL,"Study Phase",5381,,,-1,-1,,,,1
5ecff40f77254608ec9fb30e,pc220a6x7u,Nick_Dissertation_EX1,1,25,2020-06-13T09:52:26-07:00,4.3791658878326,2,versionA_stim.csv,READVersionB.csv,"Read Version B","Dissertation, read only version B",SHOELACE,TIE,Study2,F,99,138,Study,User,-,,Study/JOL,"Study Phase",3941,,,-1,-1,,,,1
5ecff40f77254608ec9fb30e,pc220a6x7u,Nick_Dissertation_EX1,1,26,2020-06-13T09:52:31-07:00,4.7120530605316,2,versionA_stim.csv,READVersionB.csv,"Read Version B","Dissertation, read only version B",FLEA,TICK,Study2,S,151,100,Study,User,-,,Study/JOL,"Study Phase",4210,,,-1,-1,,,,1
5ecff40f77254608ec9fb30e,pc220a6x7u,Nick_Dissertation_EX1,1,27,2020-06-13T09:52:35-07:00,4.6780209541321,2,versionA_stim.csv,READVersionB.csv,"Read Version B","Dissertation, read only version B",DINE,EAT,Study2,F,111,97,Study,User,-,,Study/JOL,"Study Phase",4102,,,-1,-1,,,,1
5ecff40f77254608ec9fb30e,pc220a6x7u,Nick_Dissertation_EX1,1,28,2020-06-13T09:52:42-07:00,6.2952909469604,2,versionA_stim.csv,READVersionB.csv,"Read Version B","Dissertation, read only version B",SCALP,HEAD,Study2,F,105,156,Study,User,-,,Study/JOL,"Study Phase",5836,,,-1,-1,,,,1
5ecff40f77254608ec9fb30e,pc220a6x7u,Nick_Dissertation_EX1,1,29,2020-06-13T09:52:46-07:00,4.1502411365509,2,versionA_stim.csv,READVersionB.csv,"Read Version B","Dissertation, read only version B",RIGHTS,EQUAL,Study2,S,137,164,Study,User,-,,Study/JOL,"Study Phase",3709,,,-1,-1,,,,1
5ecff40f77254608ec9fb30e,pc220a6x7u,Nick_Dissertation_EX1,1,30,2020-06-13T09:52:53-07:00,6.8829209804535,2,versionA_stim.csv,READVersionB.csv,"Read Version B","Dissertation, read only version B",THREAD,THIMBLE,Study2,B,121,118,Study,User,-,,Study/JOL,"Study Phase",6360,,,-1,-1,,,,1
5ecff40f77254608ec9fb30e,pc220a6x7u,Nick_Dissertation_EX1,1,31,2020-06-13T09:53:00-07:00,6.9246490001678,2,versionA_stim.csv,READVersionB.csv,"Read Version B","Dissertation, read only version B",BASEBALL,LEAGUE,Study2,B,131,135,Study,User,-,,Study/JOL,"Study Phase",6472,,,-1,-1,,,,1
5ecff40f77254608ec9fb30e,pc220a6x7u,Nick_Dissertation_EX1,1,32,2020-06-13T09:53:04-07:00,3.9525709152222,2,versionA_stim.csv,READVersionB.csv,"Read Version B","Dissertation, read only version B",FURRY,DOG,Study2,F,102,117,Study,User,-,,Study/JOL,"Study Phase",3334,,,-1,-1,,,,1
5ecff40f77254608ec9fb30e,pc220a6x7u,Nick_Dissertation_EX1,1,33,2020-06-13T09:53:09-07:00,4.9336841106415,2,versionA_stim.csv,READVersionB.csv,"Read Version B","Dissertation, read only version B",INCENSE,SMELL,Study2,F,110,171,Study,User,-,,Study/JOL,"Study Phase",4295,,,-1,-1,,,,1
5ecff40f77254608ec9fb30e,pc220a6x7u,Nick_Dissertation_EX1,1,34,2020-06-13T09:53:12-07:00,3.5380818843842,2,versionA_stim.csv,READVersionB.csv,"Read Version B","Dissertation, read only version B",MAZE,ELECTION,Study2,U,159,120,Study,User,-,,Study/JOL,"Study Phase",3022,,,-1,-1,,,,1
5ecff40f77254608ec9fb30e,pc220a6x7u,Nick_Dissertation_EX1,1,35,2020-06-13T09:53:16-07:00,4.180477142334,2,versionA_stim.csv,READVersionB.csv,"Read Version B","Dissertation, read only version B",BOTH,OUNCE,Study2,U,172,159,Study,User,-,,Study/JOL,"Study Phase",3773,,,-1,-1,,,,1
5ecff40f77254608ec9fb30e,pc220a6x7u,Nick_Dissertation_EX1,1,36,2020-06-13T09:53:20-07:00,3.5388598442078,2,versionA_stim.csv,READVersionB.csv,"Read Version B","Dissertation, read only version B",CANDLE,WAX,Study2,S,139,145,Study,User,-,,Study/JOL,"Study Phase",3067,,,-1,-1,,,,1
5ecff40f77254608ec9fb30e,pc220a6x7u,Nick_Dissertation_EX1,1,37,2020-06-13T09:53:39-07:00,19.453797101974,2,versionA_stim.csv,READVersionB.csv,"Read Version B","Dissertation, read only version B",CRACKLE,ABLE,Study2,U,162,119,Study,User,-,,Study/JOL,"Study Phase",18877,,,-1,-1,,,,1
5ecff40f77254608ec9fb30e,pc220a6x7u,Nick_Dissertation_EX1,1,38,2020-06-13T09:53:43-07:00,3.932235956192,2,versionA_stim.csv,READVersionB.csv,"Read Version B","Dissertation, read only version B",EXTENSION,LONG,Study2,F,96,175,Study,User,-,,Study/JOL,"Study Phase",3486,,,-1,-1,,,,1
5ecff40f77254608ec9fb30e,pc220a6x7u,Nick_Dissertation_EX1,1,39,2020-06-13T09:53:49-07:00,5.5030920505524,2,versionA_stim.csv,READVersionB.csv,"Read Version B","Dissertation, read only version B",FEUD,FIGHT,Study2,F,113,143,Study,User,-,,Study/JOL,"Study Phase",5037,,,-1,-1,,,,1
5ecff40f77254608ec9fb30e,pc220a6x7u,Nick_Dissertation_EX1,1,40,2020-06-13T09:53:52-07:00,3.7158689498901,2,versionA_stim.csv,READVersionB.csv,"Read Version B","Dissertation, read only version B",TANTRUM,TEMPER,Study2,S,154,166,Study,User,-,,Study/JOL,"Study Phase",3259,,,-1,-1,,,,1
5ecff40f77254608ec9fb30e,pc220a6x7u,Nick_Dissertation_EX1,1,41,2020-06-13T09:53:56-07:00,3.2007648944855,2,versionA_stim.csv,READVersionB.csv,"Read Version B","Dissertation, read only version B",KEYS,JOKE,Study2,U,165,155,Study,User,-,,Study/JOL,"Study Phase",2707,,,-1,-1,,,,1
5ecff40f77254608ec9fb30e,pc220a6x7u,Nick_Dissertation_EX1,1,42,2020-06-13T09:54:02-07:00,6.1715850830078,2,versionA_stim.csv,READVersionB.csv,"Read Version B","Dissertation, read only version B",ROD,REEL,Study2,S,150,170,Study,User,-,,Study/JOL,"Study Phase",5555,,,-1,-1,,,,1
5ecff40f77254608ec9fb30e,pc220a6x7u,Nick_Dissertation_EX1,1,43,2020-06-13T09:54:06-07:00,4.2877650260925,2,versionA_stim.csv,READVersionB.csv,"Read Version B","Dissertation, read only version B",CAKE,CLOTHES,Study2,U,166,146,Study,User,-,,Study/JOL,"Study Phase",3849,,,-1,-1,,,,1
5ecff40f77254608ec9fb30e,pc220a6x7u,Nick_Dissertation_EX1,1,44,2020-06-13T09:54:10-07:00,3.6142599582672,2,versionA_stim.csv,READVersionB.csv,"Read Version B","Dissertation, read only version B",BAD,VILLAIN,Study2,B,118,110,Study,User,-,,Study/JOL,"Study Phase",3029,,,-1,-1,,,,1
5ecff40f77254608ec9fb30e,pc220a6x7u,Nick_Dissertation_EX1,1,45,2020-06-13T09:54:20-07:00,9.9361600875854,2,versionA_stim.csv,READVersionB.csv,"Read Version B","Dissertation, read only version B",DEAD,COFFIN,Study2,B,128,133,Study,User,-,,Study/JOL,"Study Phase",9476,,,-1,-1,,,,1
5ecff40f77254608ec9fb30e,pc220a6x7u,Nick_Dissertation_EX1,1,46,2020-06-13T09:54:26-07:00,6.213299036026,2,versionA_stim.csv,READVersionB.csv,"Read Version B","Dissertation, read only version B",FUZZY,BANG,Study2,U,168,116,Study,User,-,,Study/JOL,"Study Phase",5606,,,-1,-1,,,,1
5ecff40f77254608ec9fb30e,pc220a6x7u,Nick_Dissertation_EX1,1,47,2020-06-13T09:54:29-07:00,3.3394038677216,2,versionA_stim.csv,READVersionB.csv,"Read Version B","Dissertation, read only version B",GIVE,STEAK,Study2,U,158,114,Study,User,-,,Study/JOL,"Study Phase",2880,,,-1,-1,,,,1
5ecff40f77254608ec9fb30e,pc220a6x7u,Nick_Dissertation_EX1,1,48,2020-06-13T09:54:32-07:00,2.8937690258026,2,versionA_stim.csv,READVersionB.csv,"Read Version B","Dissertation, read only version B",MAIN,SCAR,Study2,U,175,115,Study,User,-,,Study/JOL,"Study Phase",2364,,,-1,-1,,,,1
5ecff40f77254608ec9fb30e,pc220a6x7u,Nick_Dissertation_EX1,1,49,2020-06-13T09:54:35-07:00,2.6651411056519,2,versionA_stim.csv,READVersionB.csv,"Read Version B","Dissertation, read only version B",BEST,FAVORITE,Study2,B,125,124,Study,User,-,,Study/JOL,"Study Phase",2228,,,-1,-1,,,,1
5ecff40f77254608ec9fb30e,pc220a6x7u,Nick_Dissertation_EX1,1,50,2020-06-13T09:54:39-07:00,3.9826538562775,2,versionA_stim.csv,READVersionB.csv,"Read Version B","Dissertation, read only version B",Shell,SHAKE,Study2,U,163,128,Study,User,-,,Study/JOL,"Study Phase",3430,,,-1,-1,,,,1
5ecff40f77254608ec9fb30e,pc220a6x7u,Nick_Dissertation_EX1,1,51,2020-06-13T09:54:42-07:00,2.8162341117859,2,versionA_stim.csv,READVersionB.csv,"Read Version B","Dissertation, read only version B",DOCUMENT,PAPER,Study2,F,109,142,Study,User,-,,Study/JOL,"Study Phase",2330,,,-1,-1,,,,1
5ecff40f77254608ec9fb30e,pc220a6x7u,Nick_Dissertation_EX1,1,52,2020-06-13T09:54:50-07:00,8.497820854187,2,versionA_stim.csv,READVersionB.csv,"Read Version B","Dissertation, read only version B",LEASE,TOIL,Study2,U,170,152,Study,User,-,,Study/JOL,"Study Phase",8052,,,-1,-1,,,,1
5ecff40f77254608ec9fb30e,pc220a6x7u,Nick_Dissertation_EX1,1,53,2020-06-13T09:54:55-07:00,5.199597120285,2,versionA_stim.csv,READVersionB.csv,"Read Version B","Dissertation, read only version B",MEAT,OBTAIN,Study2,U,161,127,Study,User,-,,Study/JOL,"Study Phase",4527,,,-1,-1,,,,1
5ecff40f77254608ec9fb30e,pc220a6x7u,Nick_Dissertation_EX1,1,54,2020-06-13T09:54:57-07:00,1.668909072876,2,versionA_stim.csv,READVersionB.csv,"Read Version B","Dissertation, read only version B",JUSTICE,MAROON,Study2,U,156,147,Study,User,-,,Study/JOL,"Study Phase",1250,,,-1,-1,,,,1
5ecff40f77254608ec9fb30e,pc220a6x7u,Nick_Dissertation_EX1,1,55,2020-06-13T09:54:59-07:00,2.3187038898468,2,versionA_stim.csv,READVersionB.csv,"Read Version B","Dissertation, read only version B",DRY,WET,Study2,S,146,149,Study,User,-,,Study/JOL,"Study Phase",1864,,,-1,-1,,,,1
5ecff40f77254608ec9fb30e,pc220a6x7u,Nick_Dissertation_EX1,1,56,2020-06-13T09:55:02-07:00,2.7401509284973,2,versionA_stim.csv,READVersionB.csv,"Read Version B","Dissertation, read only version B",STAR,ACTRESS,Study2,B,120,140,Study,User,-,,Study/JOL,"Study Phase",2188,,,-1,-1,,,,1
5ecff40f77254608ec9fb30e,pc220a6x7u,Nick_Dissertation_EX1,1,57,2020-06-13T09:55:05-07:00,2.7939231395721,2,versionA_stim.csv,READVersionB.csv,"Read Version B","Dissertation, read only version B",LITTER,TRASH,Study2,F,103,154,Study,User,-,,Study/JOL,"Study Phase",2262,,,-1,-1,,,,1
5ecff40f77254608ec9fb30e,pc220a6x7u,Nick_Dissertation_EX1,1,58,2020-06-13T09:55:07-07:00,2.6162459850311,2,versionA_stim.csv,READVersionB.csv,"Read Version B","Dissertation, read only version B",PHONE,COMMUNICATION,Study2,S,149,161,Study,User,-,,Study/JOL,"Study Phase",2191,,,-1,-1,,,,1
5ecff40f77254608ec9fb30e,pc220a6x7u,Nick_Dissertation_EX1,1,59,2020-06-13T09:55:14-07:00,6.3467199802399,2,versionA_stim.csv,READVersionB.csv,"Read Version B","Dissertation, read only version B",SAFETY,SEATBELT,Study2,S,147,99,Study,User,-,,Study/JOL,"Study Phase",5924,,,-1,-1,,,,1
5ecff40f77254608ec9fb30e,pc220a6x7u,Nick_Dissertation_EX1,1,60,2020-06-13T09:55:18-07:00,4.0807368755341,2,versionA_stim.csv,READVersionB.csv,"Read Version B","Dissertation, read only version B",GLASS,BREAKABLE,Study2,B,127,173,Study,User,-,,Study/JOL,"Study Phase",3689,,,-1,-1,,,,1
5ecff40f77254608ec9fb30e,pc220a6x7u,Nick_Dissertation_EX1,1,61,2020-06-13T09:55:20-07:00,1.8132910728455,2,versionA_stim.csv,READVersionB.csv,"Read Version B","Dissertation, read only version B",WATER,DRINK,Study2,S,143,136,Study,User,-,,Study/JOL,"Study Phase",1428,,,-1,-1,,,,1
5ecff40f77254608ec9fb30e,pc220a6x7u,Nick_Dissertation_EX1,1,62,2020-06-13T09:55:22-07:00,1.9447050094604,2,versionA_stim.csv,READVersionB.csv,"Read Version B","Dissertation, read only version B",SLEEP,NAP,Study2,B,134,108,Study,User,-,,Study/JOL,"Study Phase",1296,,,-1,-1,,,,1
5ecff40f77254608ec9fb30e,pc220a6x7u,Nick_Dissertation_EX1,1,63,2020-06-13T09:55:24-07:00,2.377228975296,2,versionA_stim.csv,READVersionB.csv,"Read Version B","Dissertation, read only version B",ADJOURN,END,Study2,F,101,176,Study,User,-,,Study/JOL,"Study Phase",1928,,,-1,-1,,,,1
5ecff40f77254608ec9fb30e,pc220a6x7u,Nick_Dissertation_EX1,1,64,2020-06-13T09:55:27-07:00,3.2709341049194,2,versionA_stim.csv,READVersionB.csv,"Read Version B","Dissertation, read only version B",TRUTH,LIE,Study2,S,148,102,Study,User,-,,Study/JOL,"Study Phase",2678,,,-1,-1,,,,1
5ecff40f77254608ec9fb30e,pc220a6x7u,Nick_Dissertation_EX1,1,65,2020-06-13T09:55:38-07:00,11.150549888611,2,versionA_stim.csv,READVersionB.csv,"Read Version B","Dissertation, read only version B",ALONE,LONELY,Study2,S,145,103,Study,User,-,,Study/JOL,"Study Phase",10560,,,-1,-1,,,,1
5ecff40f77254608ec9fb30e,pc220a6x7u,Nick_Dissertation_EX1,1,66,2020-06-13T09:55:41-07:00,2.5043470859528,2,versionA_stim.csv,READVersionB.csv,"Read Version B","Dissertation, read only version B",TURN,FLIP,Study2,B,116,126,Study,User,-,,Study/JOL,"Study Phase",2027,,,-1,-1,,,,1
5ecff40f77254608ec9fb30e,pc220a6x7u,Nick_Dissertation_EX1,1,67,2020-06-13T09:55:43-07:00,2.3684339523315,2,versionA_stim.csv,READVersionB.csv,"Read Version B","Dissertation, read only version B",SUN,TAN,Study2,S,155,106,Study,User,-,,Study/JOL,"Study Phase",1898,,,-1,-1,,,,1
5ecff40f77254608ec9fb30e,pc220a6x7u,Nick_Dissertation_EX1,1,68,2020-06-13T09:55:46-07:00,3.2110171318054,2,versionA_stim.csv,READVersionB.csv,"Read Version B","Dissertation, read only version B",WRIST,BRACELET,Study2,S,140,144,Study,User,-,,Study/JOL,"Study Phase",2518,,,-1,-1,,,,1
5ecff40f77254608ec9fb30e,pc220a6x7u,Nick_Dissertation_EX1,1,69,2020-06-13T09:55:48-07:00,2.0501728057861,2,versionA_stim.csv,READVersionB.csv,"Read Version B","Dissertation, read only version B",LOAN,SIGN,Study2,U,171,150,Study,User,-,,Study/JOL,"Study Phase",1521,,,-1,-1,,,,1
5ecff40f77254608ec9fb30e,pc220a6x7u,Nick_Dissertation_EX1,1,70,2020-06-13T09:55:50-07:00,2.0200021266937,2,versionA_stim.csv,READVersionB.csv,"Read Version B","Dissertation, read only version B",MONEY,BANKER,Study2,B,132,105,Study,User,-,,Study/JOL,"Study Phase",1438,,,-1,-1,,,,1
5ecff40f77254608ec9fb30e,pc220a6x7u,Nick_Dissertation_EX1,1,71,2020-06-13T09:55:52-07:00,1.5520100593567,2,versionA_stim.csv,READVersionB.csv,"Read Version B","Dissertation, read only version B",MULE,DONKEY,Study2,F,108,104,Study,User,-,,Study/JOL,"Study Phase",1104,,,-1,-1,,,,1
5ecff40f77254608ec9fb30e,pc220a6x7u,Nick_Dissertation_EX1,1,72,2020-06-13T09:55:55-07:00,2.6428949832916,2,versionA_stim.csv,READVersionB.csv,"Read Version B","Dissertation, read only version B",HONEST,TRUTHFUL,Study2,B,133,151,Study,User,-,,Study/JOL,"Study Phase",2195,,,-1,-1,,,,1
5ecff40f77254608ec9fb30e,pc220a6x7u,Nick_Dissertation_EX1,1,73,2020-06-13T09:55:58-07:00,2.8636770248413,2,versionA_stim.csv,READVersionB.csv,"Read Version B","Dissertation, read only version B",FRUIT,STRAWBERRY,Study2,B,124,153,Study,User,-,,Study/JOL,"Study Phase",2158,,,-1,-1,,,,1
5ecff40f77254608ec9fb30e,pc220a6x7u,Nick_Dissertation_EX1,1,74,2020-06-13T09:56:03-07:00,5.5742709636688,2,versionA_stim.csv,READVersionB.csv,"Read Version B","Dissertation, read only version B",EARTH,GROUND,Study2,S,144,121,Study,User,-,,Study/JOL,"Study Phase",5129,,,-1,-1,,,,1
5ecff40f77254608ec9fb30e,pc220a6x7u,Nick_Dissertation_EX1,1,75,2020-06-13T09:56:05-07:00,1.8194839954376,2,versionA_stim.csv,READVersionB.csv,"Read Version B","Dissertation, read only version B",CHOP,CUT,Study2,F,107,160,Study,User,-,,Study/JOL,"Study Phase",1385,,,-1,-1,,,,1
5ecff40f77254608ec9fb30e,pc220a6x7u,Nick_Dissertation_EX1,1,76,2020-06-13T09:56:07-07:00,2.3378219604492,2,versionA_stim.csv,READVersionB.csv,"Read Version B","Dissertation, read only version B",VEHICLE,CHARM,Study2,U,160,130,Study,User,-,,Study/JOL,"Study Phase",1856,,,-1,-1,,,,1
5ecff40f77254608ec9fb30e,pc220a6x7u,Nick_Dissertation_EX1,1,77,2020-06-13T09:56:09-07:00,1.9133679866791,2,versionA_stim.csv,READVersionB.csv,"Read Version B","Dissertation, read only version B",GONE,AWAY,Study2,S,142,157,Study,User,-,,Study/JOL,"Study Phase",1477,,,-1,-1,,,,1
5ecff40f77254608ec9fb30e,pc220a6x7u,Nick_Dissertation_EX1,1,78,2020-06-13T09:56:12-07:00,2.9251749515533,2,versionA_stim.csv,READVersionB.csv,"Read Version B","Dissertation, read only version B",MASON,JAR,Study2,S,138,148,Study,User,-,,Study/JOL,"Study Phase",1242,,,-1,-1,,,,1
5ecff40f77254608ec9fb30e,pc220a6x7u,Nick_Dissertation_EX1,1,79,2020-06-13T09:56:14-07:00,1.7862930297852,2,versionA_stim.csv,READVersionB.csv,"Read Version B","Dissertation, read only version B",OWN,HAVE,Study2,S,153,111,Study,User,-,,Study/JOL,"Study Phase",1206,,,-1,-1,,,,1
5ecff40f77254608ec9fb30e,pc220a6x7u,Nick_Dissertation_EX1,1,80,2020-06-13T09:56:16-07:00,1.980288028717,2,versionA_stim.csv,READVersionB.csv,"Read Version B","Dissertation, read only version B",CHERRY,RED,Study2,F,104,125,Study,User,-,,Study/JOL,"Study Phase",1347,,,-1,-1,,,,1
5ecff40f77254608ec9fb30e,pc220a6x7u,Nick_Dissertation_EX1,1,81,2020-06-13T09:56:18-07:00,1.746367931366,2,versionA_stim.csv,READVersionB.csv,"Read Version B","Dissertation, read only version B",RAZOR,SHAVE,Study2,S,136,101,Study,User,-,,Study/JOL,"Study Phase",1310,,,-1,-1,,,,1
5ecff40f77254608ec9fb30e,pc220a6x7u,Nick_Dissertation_EX1,1,82,2020-06-13T09:56:23-07:00,5.5172481536865,2,versionA_stim.csv,READVersionB.csv,"Read Version B","Dissertation, read only version B",ELEMENT,CARBON,Study2,S,141,107,Study,User,-,,Study/JOL,"Study Phase",4597,,,-1,-1,,,,1
5ecff40f77254608ec9fb30e,pc220a6x7u,Nick_Dissertation_EX1,1,83,2020-06-13T09:56:26-07:00,2.39927983284,2,versionA_stim.csv,READVersionB.csv,"Read Version B","Dissertation, read only version B",FIGHT,BRAWL,Study2,B,135,112,Study,User,-,,Study/JOL,"Study Phase",1947,,,-1,-1,,,,1
5ecff40f77254608ec9fb30e,pc220a6x7u,Nick_Dissertation_EX1,1,84,2020-06-13T09:56:31-07:00,5.6938290596008,2,versionA_stim.csv,READVersionB.csv,"Read Version B","Dissertation, read only version B",TEMPERATURE,Morning,Study2,U,173,158,Study,User,-,,Study/JOL,"Study Phase",5161,,,-1,-1,,,,1
5ecff40f77254608ec9fb30e,pc220a6x7u,Nick_Dissertation_EX1,1,85,2020-06-13T09:56:34-07:00,2.4041450023651,2,versionA_stim.csv,READVersionB.csv,"Read Version B","Dissertation, read only version B",CHILL,COLD,Study2,F,114,98,Study,User,-,,Study/JOL,"Study Phase",1972,,,-1,-1,,,,1
5ecff40f77254608ec9fb30e,pc220a6x7u,Nick_Dissertation_EX1,1,86,2020-06-13T09:56:36-07:00,2.7818870544434,2,versionA_stim.csv,READVersionB.csv,"Read Version B","Dissertation, read only version B",STRETCH,CLOTH,Study2,U,157,169,Study,User,-,,Study/JOL,"Study Phase",2312,,,-1,-1,,,,1
5ecff40f77254608ec9fb30e,pc220a6x7u,Nick_Dissertation_EX1,1,87,2020-06-13T09:56:39-07:00,2.7126150131226,2,versionA_stim.csv,READVersionB.csv,"Read Version B","Dissertation, read only version B",DAYS,WEAKS,BUFFER4,Buffer,176,180,Study,User,-,,Study/JOL,BUFFER2,2072,,,-1,-1,,,,1
5ecff40f77254608ec9fb30e,pc220a6x7u,Nick_Dissertation_EX1,1,88,2020-06-13T09:56:42-07:00,2.4045050144196,2,versionA_stim.csv,READVersionB.csv,"Read Version B","Dissertation, read only version B",SPRING,MARCH,BUFFER4,Buffer,179,181,Study,User,-,,Study/JOL,BUFFER2,1958,,,-1,-1,,,,1
5ecff40f77254608ec9fb30e,pc220a6x7u,Nick_Dissertation_EX1,1,89,2020-06-13T09:56:50-07:00,7.979434967041,2,versionA_stim.csv,READVersionB.csv,"Read Version B","Dissertation, read only version B",MONTH,YEAR,BUFFER4,Buffer,177,179,Study,User,-,,Study/JOL,BUFFER2,7374,,,-1,-1,,,,1
5ecff40f77254608ec9fb30e,pc220a6x7u,Nick_Dissertation_EX1,1,90,2020-06-13T09:56:52-07:00,2.4307260513306,2,versionA_stim.csv,READVersionB.csv,"Read Version B","Dissertation, read only version B",TOOL,SHED,BUFFER4,Buffer,178,177,Study,User,-,,Study/JOL,BUFFER2,1859,,,-1,-1,,,,1
5ecff40f77254608ec9fb30e,pc220a6x7u,Nick_Dissertation_EX1,1,91,2020-06-13T09:57:03-07:00,11.439264774323,2,versionA_stim.csv,READVersionB.csv,"Read Version B","Dissertation, read only version B",OCTOBER,SPOOKY,BUFFER4,Buffer,180,178,Study,User,-,,Study/JOL,BUFFER2,10877,,,-1,-1,,,,1
5ecff40f77254608ec9fb30e,pc220a6x7u,Nick_Dissertation_EX1,1,92,2020-06-13T09:57:07-07:00,3.1544241905212,2,versionA_stim.csv,READVersionB.csv,"Read Version B","Dissertation, read only version B",,,,,,0,Instruct,User,-,"You have completed this section. Please press Enter.",Filler_Instruction,Instruct2,2678,,,-1,-1,,,,1
5ecff40f77254608ec9fb30e,pc220a6x7u,Nick_Dissertation_EX1,1,93,2020-06-13T09:59:07-07:00,120.65238881111,2,versionA_stim.csv,READVersionB.csv,"Read Version B","Dissertation, read only version B",,,,,,0,FreeRecall,120,120,"Please list the 50 US states in alphabetical order. The task will automatically advance to the next screen after two minutes.",,Filler1,120012,"Arkansas Hawaii Kansas Mississippi Nabraska New York New Jersetly",0,-1,-1,0,0,,1
5ecff40f77254608ec9fb30e,pc220a6x7u,Nick_Dissertation_EX1,1,94,2020-06-13T09:59:19-07:00,11.588288068771,2,versionA_stim.csv,READVersionB.csv,"Read Version B","Dissertation, read only version B",,,,,,0,Instruct,-,10,"You will now be presented with the first word from each of the previously studied item pairs. Please type the missing word. If you do not know the word, you may guess or press Enter to skip forward to the next pair.",,Instruct3,11005,,,-1,-1,,,,1
5ecff40f77254608ec9fb30e,pc220a6x7u,Nick_Dissertation_EX1,1,95,2020-06-13T09:59:27-07:00,8.3265249729156,2,versionA_stim.csv,READVersionB.csv,"Read Version B","Dissertation, read only version B",TURN,FLIP,Study2,B,116,126,Test,User,-,,Recall,Recall1,7547,Left,25,-1,-1,0,0,,1
5ecff40f77254608ec9fb30e,pc220a6x7u,Nick_Dissertation_EX1,1,96,2020-06-13T09:59:33-07:00,5.8850359916687,2,versionA_stim.csv,READVersionB.csv,"Read Version B","Dissertation, read only version B",RAZOR,SHAVE,Study2,S,136,101,Test,User,-,,Recall,Recall1,5455,Shave,100,-1,-1,1,1,,1
5ecff40f77254608ec9fb30e,pc220a6x7u,Nick_Dissertation_EX1,1,97,2020-06-13T09:59:40-07:00,6.5999810695648,2,versionA_stim.csv,READVersionB.csv,"Read Version B","Dissertation, read only version B",MIRROR,CHILDREN,Study2,U,174,113,Test,User,-,,Recall,Recall1,6157,,0,-1,-1,0,0,,1
5ecff40f77254608ec9fb30e,pc220a6x7u,Nick_Dissertation_EX1,1,98,2020-06-13T09:59:43-07:00,3.5186059474945,2,versionA_stim.csv,READVersionB.csv,"Read Version B","Dissertation, read only version B",ADJOURN,END,Study2,F,101,176,Test,User,-,,Recall,Recall1,2890,,0,-1,-1,0,0,,1
5ecff40f77254608ec9fb30e,pc220a6x7u,Nick_Dissertation_EX1,1,99,2020-06-13T09:59:45-07:00,1.9961981773376,2,versionA_stim.csv,READVersionB.csv,"Read Version B","Dissertation, read only version B",CAT,PANTHER,Study2,B,126,129,Test,User,-,,Recall,Recall1,1562,,0,-1,-1,0,0,,1
5ecff40f77254608ec9fb30e,pc220a6x7u,Nick_Dissertation_EX1,1,100,2020-06-13T09:59:50-07:00,4.4434409141541,2,versionA_stim.csv,READVersionB.csv,"Read Version B","Dissertation, read only version B",ELEMENT,CARBON,Study2,S,141,107,Test,User,-,,Recall,Recall1,2928,,0,-1,-1,0,0,,1
5ecff40f77254608ec9fb30e,pc220a6x7u,Nick_Dissertation_EX1,1,101,2020-06-13T09:59:52-07:00,2.6411650180817,2,versionA_stim.csv,READVersionB.csv,"Read Version B","Dissertation, read only version B",SUN,TAN,Study2,S,155,106,Test,User,-,,Recall,Recall1,2194,,0,-1,-1,0,0,,1
5ecff40f77254608ec9fb30e,pc220a6x7u,Nick_Dissertation_EX1,1,102,2020-06-13T09:59:55-07:00,2.5156819820404,2,versionA_stim.csv,READVersionB.csv,"Read Version B","Dissertation, read only version B",MAIN,SCAR,Study2,U,175,115,Test,User,-,,Recall,Recall1,2055,,0,-1,-1,0,0,,1
5ecff40f77254608ec9fb30e,pc220a6x7u,Nick_Dissertation_EX1,1,103,2020-06-13T09:59:57-07:00,2.0651319026947,2,versionA_stim.csv,READVersionB.csv,"Read Version B","Dissertation, read only version B",CHERRY,RED,Study2,F,104,125,Test,User,-,,Recall,Recall1,1549,,0,-1,-1,0,0,,1
5ecff40f77254608ec9fb30e,pc220a6x7u,Nick_Dissertation_EX1,1,104,2020-06-13T10:00:06-07:00,8.7272961139679,2,versionA_stim.csv,READVersionB.csv,"Read Version B","Dissertation, read only version B",ROD,REEL,Study2,S,150,170,Test,User,-,,Recall,Recall1,8028,Line,25,-1,-1,0,0,,1
5ecff40f77254608ec9fb30e,pc220a6x7u,Nick_Dissertation_EX1,1,105,2020-06-13T10:00:08-07:00,2.050952911377,2,versionA_stim.csv,READVersionB.csv,"Read Version B","Dissertation, read only version B",BAD,VILLAIN,Study2,B,118,110,Test,User,-,,Recall,Recall1,1596,,0,-1,-1,0,0,,1
5ecff40f77254608ec9fb30e,pc220a6x7u,Nick_Dissertation_EX1,1,106,2020-06-13T10:00:11-07:00,3.5603220462799,2,versionA_stim.csv,READVersionB.csv,"Read Version B","Dissertation, read only version B",THREAD,THIMBLE,Study2,B,121,118,Test,User,-,,Recall,Recall1,2902,,0,-1,-1,0,0,,1
5ecff40f77254608ec9fb30e,pc220a6x7u,Nick_Dissertation_EX1,1,107,2020-06-13T10:00:16-07:00,5.2105700969696,2,versionA_stim.csv,READVersionB.csv,"Read Version B","Dissertation, read only version B",FLEA,TICK,Study2,S,151,100,Test,User,-,,Recall,Recall1,4694,Ticks,88.888888888889,-1,-1,0,1,,1
5ecff40f77254608ec9fb30e,pc220a6x7u,Nick_Dissertation_EX1,1,108,2020-06-13T10:00:21-07:00,4.4313948154449,2,versionA_stim.csv,READVersionB.csv,"Read Version B","Dissertation, read only version B",STRETCH,CLOTH,Study2,U,157,169,Test,User,-,,Recall,Recall1,3849,Cloth,100,-1,-1,1,1,,1
5ecff40f77254608ec9fb30e,pc220a6x7u,Nick_Dissertation_EX1,1,109,2020-06-13T10:00:23-07:00,2.6196730136871,2,versionA_stim.csv,READVersionB.csv,"Read Version B","Dissertation, read only version B",AFFECTION,LOVE,Study2,F,115,109,Test,User,-,,Recall,Recall1,2186,,0,-1,-1,0,0,,1
5ecff40f77254608ec9fb30e,pc220a6x7u,Nick_Dissertation_EX1,1,110,2020-06-13T10:00:30-07:00,6.9526510238647,2,versionA_stim.csv,READVersionB.csv,"Read Version B","Dissertation, read only version B",EARTH,GROUND,Study2,S,144,121,Test,User,-,,Recall,Recall1,6474,Soil,20,-1,-1,0,0,,1
5ecff40f77254608ec9fb30e,pc220a6x7u,Nick_Dissertation_EX1,1,111,2020-06-13T10:00:34-07:00,3.9850831031799,2,versionA_stim.csv,READVersionB.csv,"Read Version B","Dissertation, read only version B",CHILL,COLD,Study2,F,114,98,Test,User,-,,Recall,Recall1,3375,Ice,28.571428571429,-1,-1,0,0,,1
5ecff40f77254608ec9fb30e,pc220a6x7u,Nick_Dissertation_EX1,1,112,2020-06-13T10:00:38-07:00,4.1499090194702,2,versionA_stim.csv,READVersionB.csv,"Read Version B","Dissertation, read only version B",DEAD,COFFIN,Study2,B,128,133,Test,User,-,,Recall,Recall1,3673,Coffin,100,-1,-1,1,1,,1
5ecff40f77254608ec9fb30e,pc220a6x7u,Nick_Dissertation_EX1,1,113,2020-06-13T10:00:43-07:00,4.6493399143219,2,versionA_stim.csv,READVersionB.csv,"Read Version B","Dissertation, read only version B",BIRD,PENGUIN,Study2,B,119,172,Test,User,-,,Recall,Recall1,3980,,0,-1,-1,0,0,,1
5ecff40f77254608ec9fb30e,pc220a6x7u,Nick_Dissertation_EX1,1,114,2020-06-13T10:00:53-07:00,10.058768033981,2,versionA_stim.csv,READVersionB.csv,"Read Version B","Dissertation, read only version B",EVEN,REVENGE,Study2,B,122,132,Test,User,-,,Recall,Recall1,9571,Ounce,33.333333333333,-1,-1,0,0,,1
5ecff40f77254608ec9fb30e,pc220a6x7u,Nick_Dissertation_EX1,1,115,2020-06-13T10:00:56-07:00,2.9329609870911,2,versionA_stim.csv,READVersionB.csv,"Read Version B","Dissertation, read only version B",FRUIT,STRAWBERRY,Study2,B,124,153,Test,User,-,,Recall,Recall1,2363,,0,-1,-1,0,0,,1
5ecff40f77254608ec9fb30e,pc220a6x7u,Nick_Dissertation_EX1,1,116,2020-06-13T10:00:58-07:00,2.1917669773102,2,versionA_stim.csv,READVersionB.csv,"Read Version B","Dissertation, read only version B",NAME,HATE,Study2,U,167,141,Test,User,-,,Recall,Recall1,1599,,0,-1,-1,0,0,,1
5ecff40f77254608ec9fb30e,pc220a6x7u,Nick_Dissertation_EX1,1,117,2020-06-13T10:01:03-07:00,5.1583409309387,2,versionA_stim.csv,READVersionB.csv,"Read Version B","Dissertation, read only version B",DRIVER,CAR,Study2,F,106,168,Test,User,-,,Recall,Recall1,4701,Car,100,-1,-1,1,1,,1
5ecff40f77254608ec9fb30e,pc220a6x7u,Nick_Dissertation_EX1,1,118,2020-06-13T10:01:21-07:00,17.627065181732,2,versionA_stim.csv,READVersionB.csv,"Read Version B","Dissertation, read only version B",FISH,SARDINE,Study2,B,130,123,Test,User,-,,Recall,Recall1,16922,Shrimp,46.153846153846,-1,-1,0,0,,1
5ecff40f77254608ec9fb30e,pc220a6x7u,Nick_Dissertation_EX1,1,119,2020-06-13T10:01:23-07:00,1.9183399677277,2,versionA_stim.csv,READVersionB.csv,"Read Version B","Dissertation, read only version B",CHOP,CUT,Study2,F,107,160,Test,User,-,,Recall,Recall1,1398,,0,-1,-1,0,0,,1
5ecff40f77254608ec9fb30e,pc220a6x7u,Nick_Dissertation_EX1,1,120,2020-06-13T10:01:30-07:00,7.0769410133362,2,versionA_stim.csv,READVersionB.csv,"Read Version B","Dissertation, read only version B",DOCUMENT,PAPER,Study2,F,109,142,Test,User,-,,Recall,Recall1,6605,File,22.222222222222,-1,-1,0,0,,1
5ecff40f77254608ec9fb30e,pc220a6x7u,Nick_Dissertation_EX1,1,121,2020-06-13T10:01:37-07:00,7.1764988899231,2,versionA_stim.csv,READVersionB.csv,"Read Version B","Dissertation, read only version B",FURRY,DOG,Study2,F,102,117,Test,User,-,,Recall,Recall1,6597,Bang,28.571428571429,-1,-1,0,0,,1
5ecff40f77254608ec9fb30e,pc220a6x7u,Nick_Dissertation_EX1,1,122,2020-06-13T10:01:41-07:00,3.5880041122437,2,versionA_stim.csv,READVersionB.csv,"Read Version B","Dissertation, read only version B",BASEBALL,LEAGUE,Study2,B,131,135,Test,User,-,,Recall,Recall1,3063,,0,-1,-1,0,0,,1
5ecff40f77254608ec9fb30e,pc220a6x7u,Nick_Dissertation_EX1,1,123,2020-06-13T10:01:56-07:00,15.072144031525,2,versionA_stim.csv,READVersionB.csv,"Read Version B","Dissertation, read only version B",TEMPERATURE,Morning,Study2,U,173,158,Test,User,-,,Recall,Recall1,14372,,0,-1,-1,0,0,,1
5ecff40f77254608ec9fb30e,pc220a6x7u,Nick_Dissertation_EX1,1,124,2020-06-13T10:02:03-07:00,6.8986809253693,2,versionA_stim.csv,READVersionB.csv,"Read Version B","Dissertation, read only version B",BEST,FAVORITE,Study2,B,125,124,Test,User,-,,Recall,Recall1,6414,Favourite,94.117647058824,-1,-1,0,1,,1
5ecff40f77254608ec9fb30e,pc220a6x7u,Nick_Dissertation_EX1,1,125,2020-06-13T10:02:06-07:00,3.4921660423279,2,versionA_stim.csv,READVersionB.csv,"Read Version B","Dissertation, read only version B",HONEST,TRUTHFUL,Study2,B,133,151,Test,User,-,,Recall,Recall1,2739,,0,-1,-1,0,0,,1
5ecff40f77254608ec9fb30e,pc220a6x7u,Nick_Dissertation_EX1,1,126,2020-06-13T10:02:14-07:00,7.7073838710785,2,versionA_stim.csv,READVersionB.csv,"Read Version B","Dissertation, read only version B",VEHICLE,CHARM,Study2,U,160,130,Test,User,-,,Recall,Recall1,7226,Airplane,30.769230769231,-1,-1,0,0,,1
5ecff40f77254608ec9fb30e,pc220a6x7u,Nick_Dissertation_EX1,1,127,2020-06-13T10:02:16-07:00,2.4372799396515,2,versionA_stim.csv,READVersionB.csv,"Read Version B","Dissertation, read only version B",INCENSE,SMELL,Study2,F,110,171,Test,User,-,,Recall,Recall1,1817,,0,-1,-1,0,0,,1
5ecff40f77254608ec9fb30e,pc220a6x7u,Nick_Dissertation_EX1,1,128,2020-06-13T10:02:22-07:00,5.274749994278,2,versionA_stim.csv,READVersionB.csv,"Read Version B","Dissertation, read only version B",FIGHT,BRAWL,Study2,B,135,112,Test,User,-,,Recall,Recall1,4602,Feud,0,-1,-1,0,0,,1
5ecff40f77254608ec9fb30e,pc220a6x7u,Nick_Dissertation_EX1,1,129,2020-06-13T10:02:24-07:00,2.422464132309,2,versionA_stim.csv,READVersionB.csv,"Read Version B","Dissertation, read only version B",LISTEN,FICTION,Study2,U,164,122,Test,User,-,,Recall,Recall1,1989,,0,-1,-1,0,0,,1
5ecff40f77254608ec9fb30e,pc220a6x7u,Nick_Dissertation_EX1,1,130,2020-06-13T10:02:28-07:00,4.1261758804321,2,versionA_stim.csv,READVersionB.csv,"Read Version B","Dissertation, read only version B",SHEARS,SCISSORS,Study2,F,112,167,Test,User,-,,Recall,Recall1,3677,Scissors,100,-1,-1,1,1,,1
5ecff40f77254608ec9fb30e,pc220a6x7u,Nick_Dissertation_EX1,1,131,2020-06-13T10:02:32-07:00,4.1438090801239,2,versionA_stim.csv,READVersionB.csv,"Read Version B","Dissertation, read only version B",GIVE,STEAK,Study2,U,158,114,Test,User,-,,Recall,Recall1,3486,Take,66.666666666667,-1,-1,0,0,,1
5ecff40f77254608ec9fb30e,pc220a6x7u,Nick_Dissertation_EX1,1,132,2020-06-13T10:02:37-07:00,4.6837320327759,2,versionA_stim.csv,READVersionB.csv,"Read Version B","Dissertation, read only version B",CLUE,GAME,Study2,F,97,139,Test,User,-,,Recall,Recall1,3062,Guess,44.444444444444,-1,-1,0,0,,1
5ecff40f77254608ec9fb30e,pc220a6x7u,Nick_Dissertation_EX1,1,133,2020-06-13T10:02:44-07:00,6.8771290779114,2,versionA_stim.csv,READVersionB.csv,"Read Version B","Dissertation, read only version B",LOAN,SIGN,Study2,U,171,150,Test,User,-,,Recall,Recall1,6272,Money,22.222222222222,-1,-1,0,0,,1
5ecff40f77254608ec9fb30e,pc220a6x7u,Nick_Dissertation_EX1,1,134,2020-06-13T10:02:47-07:00,2.674665927887,2,versionA_stim.csv,READVersionB.csv,"Read Version B","Dissertation, read only version B",GONE,AWAY,Study2,S,142,157,Test,User,-,,Recall,Recall1,2144,,0,-1,-1,0,0,,1
5ecff40f77254608ec9fb30e,pc220a6x7u,Nick_Dissertation_EX1,1,135,2020-06-13T10:02:51-07:00,4.2385799884796,2,versionA_stim.csv,READVersionB.csv,"Read Version B","Dissertation, read only version B",CANDLE,WAX,Study2,S,139,145,Test,User,-,,Recall,Recall1,3682,Match,25,-1,-1,0,0,,1
5ecff40f77254608ec9fb30e,pc220a6x7u,Nick_Dissertation_EX1,1,136,2020-06-13T10:02:55-07:00,4.2156119346619,2,versionA_stim.csv,READVersionB.csv,"Read Version B","Dissertation, read only version B",MONEY,BANKER,Study2,B,132,105,Test,User,-,,Recall,Recall1,3492,Lend,20,-1,-1,0,0,,1
5ecff40f77254608ec9fb30e,pc220a6x7u,Nick_Dissertation_EX1,1,137,2020-06-13T10:02:57-07:00,2.207316160202,2,versionA_stim.csv,READVersionB.csv,"Read Version B","Dissertation, read only version B",STAR,ACTRESS,Study2,B,120,140,Test,User,-,,Recall,Recall1,1738,,0,-1,-1,0,0,,1
5ecff40f77254608ec9fb30e,pc220a6x7u,Nick_Dissertation_EX1,1,138,2020-06-13T10:03:01-07:00,4.15389585495,2,versionA_stim.csv,READVersionB.csv,"Read Version B","Dissertation, read only version B",DETECTIVE,MYSTERY,Study2,F,100,134,Test,User,-,,Recall,Recall1,3594,Mystery,100,-1,-1,1,1,,1
5ecff40f77254608ec9fb30e,pc220a6x7u,Nick_Dissertation_EX1,1,139,2020-06-13T10:03:06-07:00,4.2648401260376,2,versionA_stim.csv,READVersionB.csv,"Read Version B","Dissertation, read only version B",FUZZY,BANG,Study2,U,168,116,Test,User,-,,Recall,Recall1,3787,Bang,100,-1,-1,1,1,,1
5ecff40f77254608ec9fb30e,pc220a6x7u,Nick_Dissertation_EX1,1,140,2020-06-13T10:03:10-07:00,4.1015839576721,2,versionA_stim.csv,READVersionB.csv,"Read Version B","Dissertation, read only version B",LOUD,NOISE,Study2,S,152,137,Test,User,-,,Recall,Recall1,3623,Cradh,0,-1,-1,0,0,,1
5ecff40f77254608ec9fb30e,pc220a6x7u,Nick_Dissertation_EX1,1,141,2020-06-13T10:03:14-07:00,3.7474319934845,2,versionA_stim.csv,READVersionB.csv,"Read Version B","Dissertation, read only version B",CACTUS,PLANT,Study2,F,98,174,Test,User,-,,Recall,Recall1,3105,Plant,100,-1,-1,1,1,,1
5ecff40f77254608ec9fb30e,pc220a6x7u,Nick_Dissertation_EX1,1,142,2020-06-13T10:03:19-07:00,5.9019269943237,2,versionA_stim.csv,READVersionB.csv,"Read Version B","Dissertation, read only version B",Shell,SHAKE,Study2,U,163,128,Test,User,-,,Recall,Recall1,5413,Fish,44.444444444444,-1,-1,0,0,,1
5ecff40f77254608ec9fb30e,pc220a6x7u,Nick_Dissertation_EX1,1,143,2020-06-13T10:03:23-07:00,3.6222388744354,2,versionA_stim.csv,READVersionB.csv,"Read Version B","Dissertation, read only version B",PHONE,COMMUNICATION,Study2,S,149,161,Test,User,-,,Recall,Recall1,2914,,0,-1,-1,0,0,,1
5ecff40f77254608ec9fb30e,pc220a6x7u,Nick_Dissertation_EX1,1,144,2020-06-13T10:03:28-07:00,5.3805391788483,2,versionA_stim.csv,READVersionB.csv,"Read Version B","Dissertation, read only version B",CRACKLE,ABLE,Study2,U,162,119,Test,User,-,,Recall,Recall1,4879,Snap,25,-1,-1,0,0,,1
5ecff40f77254608ec9fb30e,pc220a6x7u,Nick_Dissertation_EX1,1,145,2020-06-13T10:03:31-07:00,2.7964279651642,2,versionA_stim.csv,READVersionB.csv,"Read Version B","Dissertation, read only version B",WATER,DRINK,Study2,S,143,136,Test,User,-,,Recall,Recall1,2185,,0,-1,-1,0,0,,1
5ecff40f77254608ec9fb30e,pc220a6x7u,Nick_Dissertation_EX1,1,146,2020-06-13T10:03:39-07:00,8.1175320148468,2,versionA_stim.csv,READVersionB.csv,"Read Version B","Dissertation, read only version B",TRUTH,LIE,Study2,S,148,102,Test,User,-,,Recall,Recall1,7613,Lie,100,-1,-1,1,1,,1
5ecff40f77254608ec9fb30e,pc220a6x7u,Nick_Dissertation_EX1,1,147,2020-06-13T10:03:42-07:00,2.1258749961853,2,versionA_stim.csv,READVersionB.csv,"Read Version B","Dissertation, read only version B",MEAT,OBTAIN,Study2,U,161,127,Test,User,-,,Recall,Recall1,1540,,0,-1,-1,0,0,,1
5ecff40f77254608ec9fb30e,pc220a6x7u,Nick_Dissertation_EX1,1,148,2020-06-13T10:03:44-07:00,2.0610740184784,2,versionA_stim.csv,READVersionB.csv,"Read Version B","Dissertation, read only version B",SAFETY,SEATBELT,Study2,S,147,99,Test,User,-,,Recall,Recall1,1589,,0,-1,-1,0,0,,1
5ecff40f77254608ec9fb30e,pc220a6x7u,Nick_Dissertation_EX1,1,149,2020-06-13T10:03:50-07:00,6.375471830368,2,versionA_stim.csv,READVersionB.csv,"Read Version B","Dissertation, read only version B",ALONE,LONELY,Study2,S,145,103,Test,User,-,,Recall,Recall1,5628,"Lovely ",83.333333333333,-1,-1,0,1,,1
5ecff40f77254608ec9fb30e,pc220a6x7u,Nick_Dissertation_EX1,1,150,2020-06-13T10:03:59-07:00,9.1410160064697,2,versionA_stim.csv,READVersionB.csv,"Read Version B","Dissertation, read only version B",MOAT,CLEAR,Study2,U,169,163,Test,User,-,,Recall,Recall1,8460,Fill,22.222222222222,-1,-1,0,0,,1
5ecff40f77254608ec9fb30e,pc220a6x7u,Nick_Dissertation_EX1,1,151,2020-06-13T10:04:14-07:00,15.303539037704,2,versionA_stim.csv,READVersionB.csv,"Read Version B","Dissertation, read only version B",MAZE,ELECTION,Study2,U,159,120,Test,User,-,,Recall,Recall1,14551,Garden,28.571428571429,-1,-1,0,0,,1
5ecff40f77254608ec9fb30e,pc220a6x7u,Nick_Dissertation_EX1,1,152,2020-06-13T10:04:17-07:00,2.6509449481964,2,versionA_stim.csv,READVersionB.csv,"Read Version B","Dissertation, read only version B",CAKE,CLOTHES,Study2,U,166,146,Test,User,-,,Recall,Recall1,2174,,0,-1,-1,0,0,,1
5ecff40f77254608ec9fb30e,pc220a6x7u,Nick_Dissertation_EX1,1,153,2020-06-13T10:04:19-07:00,1.9717450141907,2,versionA_stim.csv,READVersionB.csv,"Read Version B","Dissertation, read only version B",DRY,WET,Study2,S,146,149,Test,User,-,,Recall,Recall1,1359,,0,-1,-1,0,0,,1
5ecff40f77254608ec9fb30e,pc220a6x7u,Nick_Dissertation_EX1,1,154,2020-06-13T10:04:25-07:00,5.8373901844025,2,versionA_stim.csv,READVersionB.csv,"Read Version B","Dissertation, read only version B",RIGHTS,EQUAL,Study2,S,137,164,Test,User,-,,Recall,Recall1,5230,Equal,100,-1,-1,1,1,,1
5ecff40f77254608ec9fb30e,pc220a6x7u,Nick_Dissertation_EX1,1,155,2020-06-13T10:04:32-07:00,7.1368498802185,2,versionA_stim.csv,READVersionB.csv,"Read Version B","Dissertation, read only version B",CAR,WINDSHIELD,Study2,B,117,131,Test,User,-,,Recall,Recall1,6643,Driver,37.5,-1,-1,0,0,,1
5ecff40f77254608ec9fb30e,pc220a6x7u,Nick_Dissertation_EX1,1,156,2020-06-13T10:04:36-07:00,4.3235530853271,2,versionA_stim.csv,READVersionB.csv,"Read Version B","Dissertation, read only version B",FEUD,FIGHT,Study2,F,113,143,Test,User,-,,Recall,Recall1,3844,Fight,100,-1,-1,1,1,,1
5ecff40f77254608ec9fb30e,pc220a6x7u,Nick_Dissertation_EX1,1,157,2020-06-13T10:04:41-07:00,4.5095248222351,2,versionA_stim.csv,READVersionB.csv,"Read Version B","Dissertation, read only version B",WRIST,BRACELET,Study2,S,140,144,Test,User,-,,Recall,Recall1,3848,Bangle,57.142857142857,-1,-1,0,0,,1
5ecff40f77254608ec9fb30e,pc220a6x7u,Nick_Dissertation_EX1,1,158,2020-06-13T10:04:45-07:00,4.2179441452026,2,versionA_stim.csv,READVersionB.csv,"Read Version B","Dissertation, read only version B",MULE,DONKEY,Study2,F,108,104,Test,User,-,,Recall,Recall1,3693,Donkey,100,-1,-1,1,1,,1
5ecff40f77254608ec9fb30e,pc220a6x7u,Nick_Dissertation_EX1,1,159,2020-06-13T10:04:51-07:00,5.6057760715485,2,versionA_stim.csv,READVersionB.csv,"Read Version B","Dissertation, read only version B",BOTH,OUNCE,Study2,U,172,159,Test,User,-,,Recall,Recall1,5035,Ounce,100,-1,-1,1,1,,1
5ecff40f77254608ec9fb30e,pc220a6x7u,Nick_Dissertation_EX1,1,160,2020-06-13T10:04:56-07:00,4.950651884079,2,versionA_stim.csv,READVersionB.csv,"Read Version B","Dissertation, read only version B",JUSTICE,MAROON,Study2,U,156,147,Test,User,-,,Recall,Recall1,4415,Rights,16.666666666667,-1,-1,0,0,,1
5ecff40f77254608ec9fb30e,pc220a6x7u,Nick_Dissertation_EX1,1,161,2020-06-13T10:04:59-07:00,3.5632379055023,2,versionA_stim.csv,READVersionB.csv,"Read Version B","Dissertation, read only version B",SLEEP,NAP,Study2,B,134,108,Test,User,-,,Recall,Recall1,2968,,0,-1,-1,0,0,,1
5ecff40f77254608ec9fb30e,pc220a6x7u,Nick_Dissertation_EX1,1,162,2020-06-13T10:05:02-07:00,3.1576480865479,2,versionA_stim.csv,READVersionB.csv,"Read Version B","Dissertation, read only version B",SHOELACE,TIE,Study2,F,99,138,Test,User,-,,Recall,Recall1,2612,,0,-1,-1,0,0,,1
5ecff40f77254608ec9fb30e,pc220a6x7u,Nick_Dissertation_EX1,1,163,2020-06-13T10:05:04-07:00,1.9772160053253,2,versionA_stim.csv,READVersionB.csv,"Read Version B","Dissertation, read only version B",OWN,HAVE,Study2,S,153,111,Test,User,-,,Recall,Recall1,1513,,0,-1,-1,0,0,,1
5ecff40f77254608ec9fb30e,pc220a6x7u,Nick_Dissertation_EX1,1,164,2020-06-13T10:05:11-07:00,6.4612240791321,2,versionA_stim.csv,READVersionB.csv,"Read Version B","Dissertation, read only version B",SCALP,HEAD,Study2,F,105,156,Test,User,-,,Recall,Recall1,5862,Hair,50,-1,-1,0,0,,1
5ecff40f77254608ec9fb30e,pc220a6x7u,Nick_Dissertation_EX1,1,165,2020-06-13T10:05:20-07:00,9.5188448429108,2,versionA_stim.csv,READVersionB.csv,"Read Version B","Dissertation, read only version B",GLASS,BREAKABLE,Study2,B,127,173,Test,User,-,,Recall,Recall1,8967,Breakable,100,-1,-1,1,1,,1
5ecff40f77254608ec9fb30e,pc220a6x7u,Nick_Dissertation_EX1,1,166,2020-06-13T10:05:26-07:00,5.536413192749,2,versionA_stim.csv,READVersionB.csv,"Read Version B","Dissertation, read only version B",PLANE,AIRCRAFT,Study2,B,129,162,Test,User,-,,Recall,Recall1,4946,Vehicle,26.666666666667,-1,-1,0,0,,1
5ecff40f77254608ec9fb30e,pc220a6x7u,Nick_Dissertation_EX1,1,167,2020-06-13T10:05:30-07:00,4.4447989463806,2,versionA_stim.csv,READVersionB.csv,"Read Version B","Dissertation, read only version B",LITTER,TRASH,Study2,F,103,154,Test,User,-,,Recall,Recall1,3979,Rubbish,50,-1,-1,0,0,,1
5ecff40f77254608ec9fb30e,pc220a6x7u,Nick_Dissertation_EX1,1,168,2020-06-13T10:05:32-07:00,1.8426098823547,2,versionA_stim.csv,READVersionB.csv,"Read Version B","Dissertation, read only version B",DINE,EAT,Study2,F,111,97,Test,User,-,,Recall,Recall1,1379,,0,-1,-1,0,0,,1
5ecff40f77254608ec9fb30e,pc220a6x7u,Nick_Dissertation_EX1,1,169,2020-06-13T10:05:36-07:00,4.1885900497437,2,versionA_stim.csv,READVersionB.csv,"Read Version B","Dissertation, read only version B",LEASE,TOIL,Study2,U,170,152,Test,User,-,,Recall,Recall1,3711,Hire,25,-1,-1,0,0,,1
5ecff40f77254608ec9fb30e,pc220a6x7u,Nick_Dissertation_EX1,1,170,2020-06-13T10:05:40-07:00,3.7402191162109,2,versionA_stim.csv,READVersionB.csv,"Read Version B","Dissertation, read only version B",KEYS,JOKE,Study2,U,165,155,Test,User,-,,Recall,Recall1,3218,,0,-1,-1,0,0,,1
5ecff40f77254608ec9fb30e,pc220a6x7u,Nick_Dissertation_EX1,1,171,2020-06-13T10:05:44-07:00,3.5064167976379,2,versionA_stim.csv,READVersionB.csv,"Read Version B","Dissertation, read only version B",EXTENSION,LONG,Study2,F,96,175,Test,User,-,,Recall,Recall1,2992,Long,100,-1,-1,1,1,,1
5ecff40f77254608ec9fb30e,pc220a6x7u,Nick_Dissertation_EX1,1,172,2020-06-13T10:05:46-07:00,2.3134241104126,2,versionA_stim.csv,READVersionB.csv,"Read Version B","Dissertation, read only version B",MASON,JAR,Study2,S,138,148,Test,User,-,,Recall,Recall1,1757,,0,-1,-1,0,0,,1
5ecff40f77254608ec9fb30e,pc220a6x7u,Nick_Dissertation_EX1,1,173,2020-06-13T10:05:54-07:00,7.8623690605164,2,versionA_stim.csv,READVersionB.csv,"Read Version B","Dissertation, read only version B",TANTRUM,TEMPER,Study2,S,154,166,Test,User,-,,Recall,Recall1,7237,Temper,100,-1,-1,1,1,,1
5ecff40f77254608ec9fb30e,pc220a6x7u,Nick_Dissertation_EX1,1,174,2020-06-13T10:05:59-07:00,5.7503368854523,2,versionA_stim.csv,READVersionB.csv,"Read Version B","Dissertation, read only version B",POP,BALLOON,Study2,B,123,165,Test,User,-,,Recall,Recall1,4270,Crackl3,28.571428571429,-1,-1,0,0,,1
5ecff40f77254608ec9fb30e,pc220a6x7u,Nick_Dissertation_EX1,1,175,2020-06-13T10:07:08-07:00,68.815793037415,2,versionA_stim.csv,READVersionB.csv,"Read Version B","Dissertation, read only version B",,,,,,0,Instruct,-,10,"You will now be presented with a new set of word pairs. Please study each pair. Remember that your memory will be tested! When finished, press Enter to move to the next pair.",Initial_Instruct,Instruct4,68100,,,-1,-1,,,,0.5
5ecff40f77254608ec9fb30e,pc220a6x7u,Nick_Dissertation_EX1,1,176,2020-06-13T10:07:15-07:00,6.9750709533691,2,versionA_stim.csv,READVersionB.csv,"Read Version B","Dissertation, read only version B",SCARE,HIDE,BUFFER1,Buffer,4,6,Study,User,-,,Study/JOL,BUFFER3,6479,,,-1,-1,,,,1
5ecff40f77254608ec9fb30e,pc220a6x7u,Nick_Dissertation_EX1,1,177,2020-06-13T10:07:17-07:00,1.8576259613037,2,versionA_stim.csv,READVersionB.csv,"Read Version B","Dissertation, read only version B",TREES,GREEN,BUFFER1,Buffer,1,5,Study,User,-,,Study/JOL,BUFFER3,1488,,,-1,-1,,,,1
5ecff40f77254608ec9fb30e,pc220a6x7u,Nick_Dissertation_EX1,1,178,2020-06-13T10:07:20-07:00,2.4672031402588,2,versionA_stim.csv,READVersionB.csv,"Read Version B","Dissertation, read only version B",SPACE,JAM,BUFFER1,Buffer,5,2,Study,User,-,,Study/JOL,BUFFER3,2056,,,-1,-1,,,,1
5ecff40f77254608ec9fb30e,pc220a6x7u,Nick_Dissertation_EX1,1,179,2020-06-13T10:07:22-07:00,2.3033490180969,2,versionA_stim.csv,READVersionB.csv,"Read Version B","Dissertation, read only version B",PEANUT,BUTTER,BUFFER1,Buffer,3,4,Study,User,-,,Study/JOL,BUFFER3,1733,,,-1,-1,,,,1
5ecff40f77254608ec9fb30e,pc220a6x7u,Nick_Dissertation_EX1,1,180,2020-06-13T10:07:26-07:00,3.8088128566742,2,versionA_stim.csv,READVersionB.csv,"Read Version B","Dissertation, read only version B",BASEBALL,CATCHER,BUFFER1,Buffer,2,3,Study,User,-,,Study/JOL,BUFFER3,3236,,,-1,-1,,,,1
5ecff40f77254608ec9fb30e,pc220a6x7u,Nick_Dissertation_EX1,1,181,2020-06-13T10:07:28-07:00,2.1631600856781,2,versionA_stim.csv,READVersionB.csv,"Read Version B","Dissertation, read only version B",GRILL,BAR,Study1,S,52,20,Study,User,-,,Study/JOL,"Study Phase2",1705,,,-1,-1,,,,1
5ecff40f77254608ec9fb30e,pc220a6x7u,Nick_Dissertation_EX1,1,182,2020-06-13T10:07:34-07:00,6.3114171028137,2,versionA_stim.csv,READVersionB.csv,"Read Version B","Dissertation, read only version B",SHOE,FOOT,Study1,S,60,73,Study,User,-,,Study/JOL,"Study Phase2",5854,,,-1,-1,,,,1
5ecff40f77254608ec9fb30e,pc220a6x7u,Nick_Dissertation_EX1,1,183,2020-06-13T10:07:36-07:00,2.3029239177704,2,versionA_stim.csv,READVersionB.csv,"Read Version B","Dissertation, read only version B",MACHINE,POSITION,Study1,U,76,63,Study,User,-,,Study/JOL,"Study Phase2",1753,,,-1,-1,,,,1
5ecff40f77254608ec9fb30e,pc220a6x7u,Nick_Dissertation_EX1,1,184,2020-06-13T10:07:40-07:00,3.7173399925232,2,versionA_stim.csv,READVersionB.csv,"Read Version B","Dissertation, read only version B",DISCOVER,FLOOR,Study1,U,71,77,Study,User,-,,Study/JOL,"Study Phase2",3166,,,-1,-1,,,,1
5ecff40f77254608ec9fb30e,pc220a6x7u,Nick_Dissertation_EX1,1,185,2020-06-13T10:07:43-07:00,2.8783860206604,2,versionA_stim.csv,READVersionB.csv,"Read Version B","Dissertation, read only version B",FULL,ENOUGH,Study1,B,26,21,Study,User,-,,Study/JOL,"Study Phase2",2428,,,-1,-1,,,,1
5ecff40f77254608ec9fb30e,pc220a6x7u,Nick_Dissertation_EX1,1,186,2020-06-13T10:07:46-07:00,3.1101748943329,2,versionA_stim.csv,READVersionB.csv,"Read Version B","Dissertation, read only version B",DUE,ASSIGNMENT,Study1,S,46,81,Study,User,-,,Study/JOL,"Study Phase2",2664,,,-1,-1,,,,1
5ecff40f77254608ec9fb30e,pc220a6x7u,Nick_Dissertation_EX1,1,187,2020-06-13T10:07:54-07:00,7.9433090686798,2,versionA_stim.csv,READVersionB.csv,"Read Version B","Dissertation, read only version B",HIDE,SICK,Study1,U,84,70,Study,User,-,,Study/JOL,"Study Phase2",7463,,,-1,-1,,,,1
5ecff40f77254608ec9fb30e,pc220a6x7u,Nick_Dissertation_EX1,1,188,2020-06-13T10:07:57-07:00,2.9458498954773,2,versionA_stim.csv,READVersionB.csv,"Read Version B","Dissertation, read only version B",ALLOW,TUCK,Study1,U,78,47,Study,User,-,,Study/JOL,"Study Phase2",2498,,,-1,-1,,,,1
5ecff40f77254608ec9fb30e,pc220a6x7u,Nick_Dissertation_EX1,1,189,2020-06-13T10:07:59-07:00,1.9966630935669,2,versionA_stim.csv,READVersionB.csv,"Read Version B","Dissertation, read only version B",CREDIT,CARD,Study1,F,23,35,Study,User,-,,Study/JOL,"Study Phase2",1538,,,-1,-1,,,,1
5ecff40f77254608ec9fb30e,pc220a6x7u,Nick_Dissertation_EX1,1,190,2020-06-13T10:08:03-07:00,3.7813041210175,2,versionA_stim.csv,READVersionB.csv,"Read Version B","Dissertation, read only version B",VALLEY,ADD,Study1,U,82,32,Study,User,-,,Study/JOL,"Study Phase2",3342,,,-1,-1,,,,1
5ecff40f77254608ec9fb30e,pc220a6x7u,Nick_Dissertation_EX1,1,191,2020-06-13T10:08:05-07:00,1.9490149021149,2,versionA_stim.csv,READVersionB.csv,"Read Version B","Dissertation, read only version B",DISCUSSION,TALK,Study1,F,21,45,Study,User,-,,Study/JOL,"Study Phase2",1530,,,-1,-1,,,,1
5ecff40f77254608ec9fb30e,pc220a6x7u,Nick_Dissertation_EX1,1,192,2020-06-13T10:08:07-07:00,2.0537970066071,2,versionA_stim.csv,READVersionB.csv,"Read Version B","Dissertation, read only version B",DEBATE,SIGHT,Study1,U,73,50,Study,User,-,,Study/JOL,"Study Phase2",1597,,,-1,-1,,,,1
5ecff40f77254608ec9fb30e,pc220a6x7u,Nick_Dissertation_EX1,1,193,2020-06-13T10:08:10-07:00,3.5252649784088,2,versionA_stim.csv,READVersionB.csv,"Read Version B","Dissertation, read only version B",DUMP,WASTE,Study1,S,49,8,Study,User,-,,Study/JOL,"Study Phase2",3051,,,-1,-1,,,,1
5ecff40f77254608ec9fb30e,pc220a6x7u,Nick_Dissertation_EX1,1,194,2020-06-13T10:08:17-07:00,7.0573749542236,2,versionA_stim.csv,READVersionB.csv,"Read Version B","Dissertation, read only version B",ARCHITECTURE,DESIGN,Study1,S,51,86,Study,User,-,,Study/JOL,"Study Phase2",6569,,,-1,-1,,,,1
5ecff40f77254608ec9fb30e,pc220a6x7u,Nick_Dissertation_EX1,1,195,2020-06-13T10:08:19-07:00,1.7647171020508,2,versionA_stim.csv,READVersionB.csv,"Read Version B","Dissertation, read only version B",BITTER,COLD,Study1,F,12,36,Study,User,-,,Study/JOL,"Study Phase2",1289,,,-1,-1,,,,1
5ecff40f77254608ec9fb30e,pc220a6x7u,Nick_Dissertation_EX1,1,196,2020-06-13T10:08:22-07:00,2.3087270259857,2,versionA_stim.csv,READVersionB.csv,"Read Version B","Dissertation, read only version B",FIRE,BLAZE,Study1,B,45,78,Study,User,-,,Study/JOL,"Study Phase2",1773,,,-1,-1,,,,1
5ecff40f77254608ec9fb30e,pc220a6x7u,Nick_Dissertation_EX1,1,197,2020-06-13T10:08:26-07:00,4.3560819625854,2,versionA_stim.csv,READVersionB.csv,"Read Version B","Dissertation, read only version B",TAKE,SEIZE,Study1,B,29,41,Study,User,-,,Study/JOL,"Study Phase2",3800,,,-1,-1,,,,1
5ecff40f77254608ec9fb30e,pc220a6x7u,Nick_Dissertation_EX1,1,198,2020-06-13T10:08:28-07:00,2.1914489269257,2,versionA_stim.csv,READVersionB.csv,"Read Version B","Dissertation, read only version B",BLOW,WIND,Study1,S,55,39,Study,User,-,,Study/JOL,"Study Phase2",1721,,,-1,-1,,,,1
5ecff40f77254608ec9fb30e,pc220a6x7u,Nick_Dissertation_EX1,1,199,2020-06-13T10:08:31-07:00,2.4352290630341,2,versionA_stim.csv,READVersionB.csv,"Read Version B","Dissertation, read only version B",LIFT,WOMAN,Study1,U,69,53,Study,User,-,,Study/JOL,"Study Phase2",1986,,,-1,-1,,,,1
5ecff40f77254608ec9fb30e,pc220a6x7u,Nick_Dissertation_EX1,1,200,2020-06-13T10:08:33-07:00,2.5903270244598,2,versionA_stim.csv,READVersionB.csv,"Read Version B","Dissertation, read only version B",PLANE,PILOT,Study1,B,44,49,Study,User,-,,Study/JOL,"Study Phase2",2120,,,-1,-1,,,,1
5ecff40f77254608ec9fb30e,pc220a6x7u,Nick_Dissertation_EX1,1,201,2020-06-13T10:08:36-07:00,2.6902120113373,2,versionA_stim.csv,READVersionB.csv,"Read Version B","Dissertation, read only version B",ROOT,PLANT,Study1,F,13,65,Study,User,-,,Study/JOL,"Study Phase2",2242,,,-1,-1,,,,1
5ecff40f77254608ec9fb30e,pc220a6x7u,Nick_Dissertation_EX1,1,202,2020-06-13T10:08:39-07:00,3.2830979824066,2,versionA_stim.csv,READVersionB.csv,"Read Version B","Dissertation, read only version B",ARTERY,BRONZE,Study1,U,74,16,Study,User,-,,Study/JOL,"Study Phase2",2828,,,-1,-1,,,,1
5ecff40f77254608ec9fb30e,pc220a6x7u,Nick_Dissertation_EX1,1,203,2020-06-13T10:08:41-07:00,2.0215108394623,2,versionA_stim.csv,READVersionB.csv,"Read Version B","Dissertation, read only version B",HEIGHT,GROWTH,Study1,B,30,40,Study,User,-,,Study/JOL,"Study Phase2",1504,,,-1,-1,,,,1
5ecff40f77254608ec9fb30e,pc220a6x7u,Nick_Dissertation_EX1,1,204,2020-06-13T10:08:44-07:00,3.1575381755829,2,versionA_stim.csv,READVersionB.csv,"Read Version B","Dissertation, read only version B",SMELL,STENCH,Study1,B,42,85,Study,User,-,,Study/JOL,"Study Phase2",2569,,,-1,-1,,,,1
5ecff40f77254608ec9fb30e,pc220a6x7u,Nick_Dissertation_EX1,1,205,2020-06-13T10:08:48-07:00,3.2751278877258,2,versionA_stim.csv,READVersionB.csv,"Read Version B","Dissertation, read only version B",GREAT,FANTASTIC,Study1,B,35,13,Study,User,-,,Study/JOL,"Study Phase2",2826,,,-1,-1,,,,1
5ecff40f77254608ec9fb30e,pc220a6x7u,Nick_Dissertation_EX1,1,206,2020-06-13T10:08:51-07:00,3.5901861190796,2,versionA_stim.csv,READVersionB.csv,"Read Version B","Dissertation, read only version B",BALL,RACKET,Study1,B,38,46,Study,User,-,,Study/JOL,"Study Phase2",3132,,,-1,-1,,,,1
5ecff40f77254608ec9fb30e,pc220a6x7u,Nick_Dissertation_EX1,1,207,2020-06-13T10:08:56-07:00,4.6774430274963,2,versionA_stim.csv,READVersionB.csv,"Read Version B","Dissertation, read only version B",CHISEL,HAMMER,Study1,F,9,25,Study,User,-,,Study/JOL,"Study Phase2",4203,,,-1,-1,,,,1
5ecff40f77254608ec9fb30e,pc220a6x7u,Nick_Dissertation_EX1,1,208,2020-06-13T10:08:59-07:00,3.2234268188477,2,versionA_stim.csv,READVersionB.csv,"Read Version B","Dissertation, read only version B",HONEY,BEE,Study1,S,63,58,Study,User,-,,Study/JOL,"Study Phase2",2784,,,-1,-1,,,,1
5ecff40f77254608ec9fb30e,pc220a6x7u,Nick_Dissertation_EX1,1,209,2020-06-13T10:09:01-07:00,2.3839790821075,2,versionA_stim.csv,READVersionB.csv,"Read Version B","Dissertation, read only version B",WORK,CHORE,Study1,B,39,44,Study,User,-,,Study/JOL,"Study Phase2",1944,,,-1,-1,,,,1
5ecff40f77254608ec9fb30e,pc220a6x7u,Nick_Dissertation_EX1,1,210,2020-06-13T10:09:07-07:00,5.6159389019012,2,versionA_stim.csv,READVersionB.csv,"Read Version B","Dissertation, read only version B",NUMBER,AMOUNT,Study1,S,47,27,Study,User,-,,Study/JOL,"Study Phase2",5106,,,-1,-1,,,,1
5ecff40f77254608ec9fb30e,pc220a6x7u,Nick_Dissertation_EX1,1,211,2020-06-13T10:09:12-07:00,5.3845810890198,2,versionA_stim.csv,READVersionB.csv,"Read Version B","Dissertation, read only version B",CIRCLE,ROUND,Study1,S,65,59,Study,User,-,,Study/JOL,"Study Phase2",4945,,,-1,-1,,,,1
5ecff40f77254608ec9fb30e,pc220a6x7u,Nick_Dissertation_EX1,1,212,2020-06-13T10:09:19-07:00,6.1157491207123,2,versionA_stim.csv,READVersionB.csv,"Read Version B","Dissertation, read only version B",HYGIENE,CLEAN,Study1,F,17,54,Study,User,-,,Study/JOL,"Study Phase2",5653,,,-1,-1,,,,1
5ecff40f77254608ec9fb30e,pc220a6x7u,Nick_Dissertation_EX1,1,213,2020-06-13T10:09:21-07:00,2.4753530025482,2,versionA_stim.csv,READVersionB.csv,"Read Version B","Dissertation, read only version B",HERD,COW,Study1,F,22,31,Study,User,-,,Study/JOL,"Study Phase2",2021,,,-1,-1,,,,1
5ecff40f77254608ec9fb30e,pc220a6x7u,Nick_Dissertation_EX1,1,214,2020-06-13T10:09:23-07:00,1.6137228012085,2,versionA_stim.csv,READVersionB.csv,"Read Version B","Dissertation, read only version B",BATHROOM,TOILET,Study1,S,58,60,Study,User,-,,Study/JOL,"Study Phase2",1162,,,-1,-1,,,,1
5ecff40f77254608ec9fb30e,pc220a6x7u,Nick_Dissertation_EX1,1,215,2020-06-13T10:09:27-07:00,3.9465610980988,2,versionA_stim.csv,READVersionB.csv,"Read Version B","Dissertation, read only version B",HORNET,STING,Study1,F,11,26,Study,User,-,,Study/JOL,"Study Phase2",3504,,,-1,-1,,,,1
5ecff40f77254608ec9fb30e,pc220a6x7u,Nick_Dissertation_EX1,1,216,2020-06-13T10:09:30-07:00,3.2579300403595,2,versionA_stim.csv,READVersionB.csv,"Read Version B","Dissertation, read only version B",SUGAR,RIDDLE,Study1,U,81,19,Study,User,-,,Study/JOL,"Study Phase2",2821,,,-1,-1,,,,1
5ecff40f77254608ec9fb30e,pc220a6x7u,Nick_Dissertation_EX1,1,217,2020-06-13T10:09:32-07:00,1.9007668495178,2,versionA_stim.csv,READVersionB.csv,"Read Version B","Dissertation, read only version B",BABY,CHILD,Study1,S,64,52,Study,User,-,,Study/JOL,"Study Phase2",1462,,,-1,-1,,,,1
5ecff40f77254608ec9fb30e,pc220a6x7u,Nick_Dissertation_EX1,1,218,2020-06-13T10:09:34-07:00,2.3760960102081,2,versionA_stim.csv,READVersionB.csv,"Read Version B","Dissertation, read only version B",GEOLOGY,ROCK,Study1,F,19,74,Study,User,-,,Study/JOL,"Study Phase2",1941,,,-1,-1,,,,1
5ecff40f77254608ec9fb30e,pc220a6x7u,Nick_Dissertation_EX1,1,219,2020-06-13T10:09:36-07:00,1.9245781898499,2,versionA_stim.csv,READVersionB.csv,"Read Version B","Dissertation, read only version B",LOCATION,SITE,Study1,S,48,33,Study,User,-,,Study/JOL,"Study Phase2",1427,,,-1,-1,,,,1
5ecff40f77254608ec9fb30e,pc220a6x7u,Nick_Dissertation_EX1,1,220,2020-06-13T10:09:38-07:00,1.8209328651428,2,versionA_stim.csv,READVersionB.csv,"Read Version B","Dissertation, read only version B",BUG,WASP,Study1,B,32,22,Study,User,-,,Study/JOL,"Study Phase2",1358,,,-1,-1,,,,1
5ecff40f77254608ec9fb30e,pc220a6x7u,Nick_Dissertation_EX1,1,221,2020-06-13T10:09:40-07:00,2.3924429416656,2,versionA_stim.csv,READVersionB.csv,"Read Version B","Dissertation, read only version B",MATH,DIVISION,Study1,B,33,29,Study,User,-,,Study/JOL,"Study Phase2",1954,,,-1,-1,,,,1
5ecff40f77254608ec9fb30e,pc220a6x7u,Nick_Dissertation_EX1,1,222,2020-06-13T10:09:43-07:00,2.7363550662994,2,versionA_stim.csv,READVersionB.csv,"Read Version B","Dissertation, read only version B",SOON,BELT,Study1,U,70,42,Study,User,-,,Study/JOL,"Study Phase2",2314,,,-1,-1,,,,1
5ecff40f77254608ec9fb30e,pc220a6x7u,Nick_Dissertation_EX1,1,223,2020-06-13T10:09:48-07:00,5.330806016922,2,versionA_stim.csv,READVersionB.csv,"Read Version B","Dissertation, read only version B",DRINK,SIP,Study1,B,27,84,Study,User,-,,Study/JOL,"Study Phase2",4876,,,-1,-1,,,,1
5ecff40f77254608ec9fb30e,pc220a6x7u,Nick_Dissertation_EX1,1,224,2020-06-13T10:09:51-07:00,2.6900238990784,2,versionA_stim.csv,READVersionB.csv,"Read Version B","Dissertation, read only version B",DEATH,BUSINESS,Study1,U,72,24,Study,User,-,,Study/JOL,"Study Phase2",1155,,,-1,-1,,,,1
5ecff40f77254608ec9fb30e,pc220a6x7u,Nick_Dissertation_EX1,1,225,2020-06-13T10:09:53-07:00,2.09392619133,2,versionA_stim.csv,READVersionB.csv,"Read Version B","Dissertation, read only version B",STRONG,ACCIDENT,Study1,U,80,48,Study,User,-,,Study/JOL,"Study Phase2",1600,,,-1,-1,,,,1
5ecff40f77254608ec9fb30e,pc220a6x7u,Nick_Dissertation_EX1,1,226,2020-06-13T10:09:57-07:00,4.0994019508362,2,versionA_stim.csv,READVersionB.csv,"Read Version B","Dissertation, read only version B",CLOTHES,ATTIRE,Study1,B,43,68,Study,User,-,,Study/JOL,"Study Phase2",3636,,,-1,-1,,,,1
5ecff40f77254608ec9fb30e,pc220a6x7u,Nick_Dissertation_EX1,1,227,2020-06-13T10:09:59-07:00,1.6055150032043,2,versionA_stim.csv,READVersionB.csv,"Read Version B","Dissertation, read only version B",TRIAL,JURY,Study1,S,50,38,Study,User,-,,Study/JOL,"Study Phase2",1147,,,-1,-1,,,,1
5ecff40f77254608ec9fb30e,pc220a6x7u,Nick_Dissertation_EX1,1,228,2020-06-13T10:10:03-07:00,3.8291599750519,2,versionA_stim.csv,READVersionB.csv,"Read Version B","Dissertation, read only version B",BEGIN,END,Study1,S,54,55,Study,User,-,,Study/JOL,"Study Phase2",1391,,,-1,-1,,,,1
5ecff40f77254608ec9fb30e,pc220a6x7u,Nick_Dissertation_EX1,1,229,2020-06-13T10:10:04-07:00,1.7827138900757,2,versionA_stim.csv,READVersionB.csv,"Read Version B","Dissertation, read only version B",LAW,ATTORNEY,Study1,B,34,7,Study,User,-,,Study/JOL,"Study Phase2",1299,,,-1,-1,,,,1
5ecff40f77254608ec9fb30e,pc220a6x7u,Nick_Dissertation_EX1,1,230,2020-06-13T10:10:06-07:00,1.9531102180481,2,versionA_stim.csv,READVersionB.csv,"Read Version B","Dissertation, read only version B",DIETARY,SACKING,Study1,U,67,69,Study,User,-,,Study/JOL,"Study Phase2",1506,,,-1,-1,,,,1
5ecff40f77254608ec9fb30e,pc220a6x7u,Nick_Dissertation_EX1,1,231,2020-06-13T10:10:08-07:00,1.8934078216553,2,versionA_stim.csv,READVersionB.csv,"Read Version B","Dissertation, read only version B",BRIDGE,WATER,Study1,F,18,62,Study,User,-,,Study/JOL,"Study Phase2",1449,,,-1,-1,,,,1
5ecff40f77254608ec9fb30e,pc220a6x7u,Nick_Dissertation_EX1,1,232,2020-06-13T10:10:13-07:00,4.521653175354,2,versionA_stim.csv,READVersionB.csv,"Read Version B","Dissertation, read only version B",WAY,OUT,Study1,F,16,17,Study,User,-,,Study/JOL,"Study Phase2",4116,,,-1,-1,,,,1
5ecff40f77254608ec9fb30e,pc220a6x7u,Nick_Dissertation_EX1,1,233,2020-06-13T10:10:15-07:00,2.4610588550568,2,versionA_stim.csv,READVersionB.csv,"Read Version B","Dissertation, read only version B",REVOLUTION,WAR,Study1,F,20,83,Study,User,-,,Study/JOL,"Study Phase2",2005,,,-1,-1,,,,1
5ecff40f77254608ec9fb30e,pc220a6x7u,Nick_Dissertation_EX1,1,234,2020-06-13T10:10:19-07:00,3.9989221096039,2,versionA_stim.csv,READVersionB.csv,"Read Version B","Dissertation, read only version B",DELINQUENT,BAD,Study1,F,6,43,Study,User,-,,Study/JOL,"Study Phase2",3535,,,-1,-1,,,,1
5ecff40f77254608ec9fb30e,pc220a6x7u,Nick_Dissertation_EX1,1,235,2020-06-13T10:10:23-07:00,3.3917088508606,2,versionA_stim.csv,READVersionB.csv,"Read Version B","Dissertation, read only version B",PAST,FUTURE,Study1,S,61,34,Study,User,-,,Study/JOL,"Study Phase2",2934,,,-1,-1,,,,1
5ecff40f77254608ec9fb30e,pc220a6x7u,Nick_Dissertation_EX1,1,236,2020-06-13T10:10:25-07:00,2.6881000995636,2,versionA_stim.csv,READVersionB.csv,"Read Version B","Dissertation, read only version B",LETTUCE,SALAD,Study1,S,59,80,Study,User,-,,Study/JOL,"Study Phase2",1155,,,-1,-1,,,,1
5ecff40f77254608ec9fb30e,pc220a6x7u,Nick_Dissertation_EX1,1,237,2020-06-13T10:10:27-07:00,1.5847780704498,2,versionA_stim.csv,READVersionB.csv,"Read Version B","Dissertation, read only version B",ORCHID,FLOWER,Study1,F,24,82,Study,User,-,,Study/JOL,"Study Phase2",1158,,,-1,-1,,,,1
5ecff40f77254608ec9fb30e,pc220a6x7u,Nick_Dissertation_EX1,1,238,2020-06-13T10:10:31-07:00,4.4177389144897,2,versionA_stim.csv,READVersionB.csv,"Read Version B","Dissertation, read only version B",SENTENCE,WORD,Study1,B,31,67,Study,User,-,,Study/JOL,"Study Phase2",3987,,,-1,-1,,,,1
5ecff40f77254608ec9fb30e,pc220a6x7u,Nick_Dissertation_EX1,1,239,2020-06-13T10:10:34-07:00,2.6025779247284,2,versionA_stim.csv,READVersionB.csv,"Read Version B","Dissertation, read only version B",WAGE,MONEY,Study1,F,8,14,Study,User,-,,Study/JOL,"Study Phase2",2162,,,-1,-1,,,,1
5ecff40f77254608ec9fb30e,pc220a6x7u,Nick_Dissertation_EX1,1,240,2020-06-13T10:10:37-07:00,2.5995719432831,2,versionA_stim.csv,READVersionB.csv,"Read Version B","Dissertation, read only version B",DIGESTION,STOMACH,Study1,F,7,75,Study,User,-,,Study/JOL,"Study Phase2",2153,,,-1,-1,,,,1
5ecff40f77254608ec9fb30e,pc220a6x7u,Nick_Dissertation_EX1,1,241,2020-06-13T10:10:40-07:00,3.2668142318726,2,versionA_stim.csv,READVersionB.csv,"Read Version B","Dissertation, read only version B",CASH,WOULD,Study1,U,83,64,Study,User,-,,Study/JOL,"Study Phase2",2829,,,-1,-1,,,,1
5ecff40f77254608ec9fb30e,pc220a6x7u,Nick_Dissertation_EX1,1,242,2020-06-13T10:10:43-07:00,3.0562789440155,2,versionA_stim.csv,READVersionB.csv,"Read Version B","Dissertation, read only version B",PARK,HUNGRY,Study1,U,68,12,Study,User,-,,Study/JOL,"Study Phase2",2619,,,-1,-1,,,,1
5ecff40f77254608ec9fb30e,pc220a6x7u,Nick_Dissertation_EX1,1,243,2020-06-13T10:10:45-07:00,2.4874680042267,2,versionA_stim.csv,READVersionB.csv,"Read Version B","Dissertation, read only version B",PAW,DOG,Study1,F,15,37,Study,User,-,,Study/JOL,"Study Phase2",2035,,,-1,-1,,,,1
5ecff40f77254608ec9fb30e,pc220a6x7u,Nick_Dissertation_EX1,1,244,2020-06-13T10:10:48-07:00,2.5788068771362,2,versionA_stim.csv,READVersionB.csv,"Read Version B","Dissertation, read only version B",DARK,CAVE,Study1,B,28,30,Study,User,-,,Study/JOL,"Study Phase2",2011,,,-1,-1,,,,1
5ecff40f77254608ec9fb30e,pc220a6x7u,Nick_Dissertation_EX1,1,245,2020-06-13T10:10:51-07:00,3.0613250732422,2,versionA_stim.csv,READVersionB.csv,"Read Version B","Dissertation, read only version B",HUNGER,FAMINE,Study1,B,40,9,Study,User,-,,Study/JOL,"Study Phase2",2522,,,-1,-1,,,,1
5ecff40f77254608ec9fb30e,pc220a6x7u,Nick_Dissertation_EX1,1,246,2020-06-13T10:10:54-07:00,2.62873005867,2,versionA_stim.csv,READVersionB.csv,"Read Version B","Dissertation, read only version B",PUSHER,CLUTTER,Study1,U,66,56,Study,User,-,,Study/JOL,"Study Phase2",2189,,,-1,-1,,,,1
5ecff40f77254608ec9fb30e,pc220a6x7u,Nick_Dissertation_EX1,1,247,2020-06-13T10:10:55-07:00,1.5594968795776,2,versionA_stim.csv,READVersionB.csv,"Read Version B","Dissertation, read only version B",WINE,CHEESE,Study1,S,57,51,Study,User,-,,Study/JOL,"Study Phase2",1116,,,-1,-1,,,,1
5ecff40f77254608ec9fb30e,pc220a6x7u,Nick_Dissertation_EX1,1,248,2020-06-13T10:10:59-07:00,3.5687980651855,2,versionA_stim.csv,READVersionB.csv,"Read Version B","Dissertation, read only version B",HAPPY,CAR,Study1,U,77,57,Study,User,-,,Study/JOL,"Study Phase2",3096,,,-1,-1,,,,1
5ecff40f77254608ec9fb30e,pc220a6x7u,Nick_Dissertation_EX1,1,249,2020-06-13T10:11:02-07:00,3.2907130718231,2,versionA_stim.csv,READVersionB.csv,"Read Version B","Dissertation, read only version B",SWAN,BIRD,Study1,F,14,23,Study,User,-,,Study/JOL,"Study Phase2",2829,,,-1,-1,,,,1
5ecff40f77254608ec9fb30e,pc220a6x7u,Nick_Dissertation_EX1,1,250,2020-06-13T10:11:05-07:00,2.6587769985199,2,versionA_stim.csv,READVersionB.csv,"Read Version B","Dissertation, read only version B",MEANING,DEFINITION,Study1,S,62,66,Study,User,-,,Study/JOL,"Study Phase2",2207,,,-1,-1,,,,1
5ecff40f77254608ec9fb30e,pc220a6x7u,Nick_Dissertation_EX1,1,251,2020-06-13T10:11:07-07:00,2.684298992157,2,versionA_stim.csv,READVersionB.csv,"Read Version B","Dissertation, read only version B",POP,SODA,Study1,S,56,28,Study,User,-,,Study/JOL,"Study Phase2",2218,,,-1,-1,,,,1
5ecff40f77254608ec9fb30e,pc220a6x7u,Nick_Dissertation_EX1,1,252,2020-06-13T10:11:17-07:00,9.6105749607086,2,versionA_stim.csv,READVersionB.csv,"Read Version B","Dissertation, read only version B",EDITOR,NEWS,Study1,F,10,18,Study,User,-,,Study/JOL,"Study Phase2",7944,,,-1,-1,,,,1
5ecff40f77254608ec9fb30e,pc220a6x7u,Nick_Dissertation_EX1,1,253,2020-06-13T10:11:20-07:00,3.3564720153809,2,versionA_stim.csv,READVersionB.csv,"Read Version B","Dissertation, read only version B",ART,LION,Study1,U,79,72,Study,User,-,,Study/JOL,"Study Phase2",2872,,,-1,-1,,,,1
5ecff40f77254608ec9fb30e,pc220a6x7u,Nick_Dissertation_EX1,1,254,2020-06-13T10:11:27-07:00,6.4686679840088,2,versionA_stim.csv,READVersionB.csv,"Read Version B","Dissertation, read only version B",SLEEP,DROWSY,Study1,B,41,79,Study,User,-,,Study/JOL,"Study Phase2",6018,,,-1,-1,,,,1
5ecff40f77254608ec9fb30e,pc220a6x7u,Nick_Dissertation_EX1,1,255,2020-06-13T10:11:30-07:00,3.2023189067841,2,versionA_stim.csv,READVersionB.csv,"Read Version B","Dissertation, read only version B",TUNA,FISH,Study1,F,25,61,Study,User,-,,Study/JOL,"Study Phase2",2738,,,-1,-1,,,,1
5ecff40f77254608ec9fb30e,pc220a6x7u,Nick_Dissertation_EX1,1,256,2020-06-13T10:11:32-07:00,2.3634150028229,2,versionA_stim.csv,READVersionB.csv,"Read Version B","Dissertation, read only version B",KEY,LATCH,Study1,B,36,76,Study,User,-,,Study/JOL,"Study Phase2",1921,,,-1,-1,,,,1
5ecff40f77254608ec9fb30e,pc220a6x7u,Nick_Dissertation_EX1,1,257,2020-06-13T10:11:34-07:00,1.9702990055084,2,versionA_stim.csv,READVersionB.csv,"Read Version B","Dissertation, read only version B",FIX,HAND,Study1,U,75,15,Study,User,-,,Study/JOL,"Study Phase2",1517,,,-1,-1,,,,1
5ecff40f77254608ec9fb30e,pc220a6x7u,Nick_Dissertation_EX1,1,258,2020-06-13T10:11:37-07:00,3.0529479980469,2,versionA_stim.csv,READVersionB.csv,"Read Version B","Dissertation, read only version B",HOT,CHILI,Study1,B,37,11,Study,User,-,,Study/JOL,"Study Phase2",2609,,,-1,-1,,,,1
5ecff40f77254608ec9fb30e,pc220a6x7u,Nick_Dissertation_EX1,1,259,2020-06-13T10:11:43-07:00,5.7493920326233,2,versionA_stim.csv,READVersionB.csv,"Read Version B","Dissertation, read only version B",KIDNEY,LIVER,Study1,S,53,10,Study,User,-,,Study/JOL,"Study Phase2",5291,,,-1,-1,,,,1
5ecff40f77254608ec9fb30e,pc220a6x7u,Nick_Dissertation_EX1,1,260,2020-06-13T10:11:48-07:00,4.6947801113129,2,versionA_stim.csv,READVersionB.csv,"Read Version B","Dissertation, read only version B",KING,VASE,Study1,U,85,71,Study,User,-,,Study/JOL,"Study Phase2",4232,,,-1,-1,,,,1
5ecff40f77254608ec9fb30e,pc220a6x7u,Nick_Dissertation_EX1,1,261,2020-06-13T10:11:52-07:00,4.2733979225159,2,versionA_stim.csv,READVersionB.csv,"Read Version B","Dissertation, read only version B",THING,STUFF,BUFFER2,Buffer,90,90,Study,User,-,,Study/JOL,BUFFER4,3811,,,-1,-1,,,,1
5ecff40f77254608ec9fb30e,pc220a6x7u,Nick_Dissertation_EX1,1,262,2020-06-13T10:11:56-07:00,3.5988669395447,2,versionA_stim.csv,READVersionB.csv,"Read Version B","Dissertation, read only version B",SHERRIF,POLICE,BUFFER2,Buffer,87,91,Study,User,-,,Study/JOL,BUFFER4,3136,,,-1,-1,,,,1
5ecff40f77254608ec9fb30e,pc220a6x7u,Nick_Dissertation_EX1,1,263,2020-06-13T10:12:00-07:00,4.5997171401978,2,versionA_stim.csv,READVersionB.csv,"Read Version B","Dissertation, read only version B",MALT,CHOCOLATE,BUFFER2,Buffer,88,88,Study,User,-,,Study/JOL,BUFFER4,4152,,,-1,-1,,,,1
5ecff40f77254608ec9fb30e,pc220a6x7u,Nick_Dissertation_EX1,1,264,2020-06-13T10:12:05-07:00,5.1935408115387,2,versionA_stim.csv,READVersionB.csv,"Read Version B","Dissertation, read only version B",MOON,SPACE,BUFFER2,Buffer,89,89,Study,User,-,,Study/JOL,BUFFER4,4732,,,-1,-1,,,,1
5ecff40f77254608ec9fb30e,pc220a6x7u,Nick_Dissertation_EX1,1,265,2020-06-13T10:12:07-07:00,1.6591000556946,2,versionA_stim.csv,READVersionB.csv,"Read Version B","Dissertation, read only version B",GEESE,GOOSE,BUFFER2,Buffer,86,87,Study,User,-,,Study/JOL,BUFFER4,1221,,,-1,-1,,,,1
5ecff40f77254608ec9fb30e,pc220a6x7u,Nick_Dissertation_EX1,1,266,2020-06-13T10:12:10-07:00,2.8966310024261,2,versionA_stim.csv,READVersionB.csv,"Read Version B","Dissertation, read only version B",,,,,,0,Instruct,User,-,"You have completed this section. Please press Enter.",Filler_Instruction,Instruct5,2436,,,-1,-1,,,,1
5ecff40f77254608ec9fb30e,pc220a6x7u,Nick_Dissertation_EX1,1,267,2020-06-13T10:14:11-07:00,120.62567400932,2,versionA_stim.csv,READVersionB.csv,"Read Version B","Dissertation, read only version B",,,,,,0,FreeRecall,120,120,"Please list the 50 US states in reverse alphabetical order (z - a). The task will automatically advance to the next screen after two minutes.",,Filler2,120013,"Washington Utah ",0,-1,-1,0,0,,0.964
5ecff40f77254608ec9fb30e,pc220a6x7u,Nick_Dissertation_EX1,1,268,2020-06-13T10:15:26-07:00,75.771851062775,2,versionA_stim.csv,READVersionB.csv,"Read Version B","Dissertation, read only version B",,,,,,0,Instruct,-,10,"You will now be presented with the first word from each of the previously studied item pairs. Please type the missing word. If you do not know the word, you may guess or press Enter to skip forward to the next pair.",,Instruct6,74950,,,-1,-1,,,,0.523
5ecff40f77254608ec9fb30e,pc220a6x7u,Nick_Dissertation_EX1,1,269,2020-06-13T10:15:31-07:00,4.6045188903809,2,versionA_stim.csv,READVersionB.csv,"Read Version B","Dissertation, read only version B",TUNA,FISH,Study1,F,25,61,Test,User,-,,Recall,Recall2,4015,Fish,100,-1,-1,1,1,,1
5ecff40f77254608ec9fb30e,pc220a6x7u,Nick_Dissertation_EX1,1,270,2020-06-13T10:15:40-07:00,8.936007976532,2,versionA_stim.csv,READVersionB.csv,"Read Version B","Dissertation, read only version B",GRILL,BAR,Study1,S,52,20,Test,User,-,,Recall,Recall2,8354,Fry,33.333333333333,-1,-1,0,0,,1
5ecff40f77254608ec9fb30e,pc220a6x7u,Nick_Dissertation_EX1,1,271,2020-06-13T10:15:47-07:00,6.9830121994019,2,versionA_stim.csv,READVersionB.csv,"Read Version B","Dissertation, read only version B",MEANING,DEFINITION,Study1,S,62,66,Test,User,-,,Recall,Recall2,6503,"Definition ",100,-1,-1,1,1,,1
5ecff40f77254608ec9fb30e,pc220a6x7u,Nick_Dissertation_EX1,1,272,2020-06-13T10:16:00-07:00,13.198004961014,2,versionA_stim.csv,READVersionB.csv,"Read Version B","Dissertation, read only version B",SWAN,BIRD,Study1,F,14,23,Test,User,-,,Recall,Recall2,12590,Bird,100,-1,-1,1,1,,1
5ecff40f77254608ec9fb30e,pc220a6x7u,Nick_Dissertation_EX1,1,273,2020-06-13T10:16:06-07:00,6.2869720458984,2,versionA_stim.csv,READVersionB.csv,"Read Version B","Dissertation, read only version B",MATH,DIVISION,Study1,B,33,29,Test,User,-,,Recall,Recall2,5804,Division,100,-1,-1,1,1,,1
5ecff40f77254608ec9fb30e,pc220a6x7u,Nick_Dissertation_EX1,1,274,2020-06-13T10:16:13-07:00,6.6396059989929,2,versionA_stim.csv,READVersionB.csv,"Read Version B","Dissertation, read only version B",DISCOVER,FLOOR,Study1,U,71,77,Test,User,-,,Recall,Recall2,6162,Space,0,-1,-1,0,0,,1
5ecff40f77254608ec9fb30e,pc220a6x7u,Nick_Dissertation_EX1,1,275,2020-06-13T10:16:18-07:00,4.4229409694672,2,versionA_stim.csv,READVersionB.csv,"Read Version B","Dissertation, read only version B",HOT,CHILI,Study1,B,37,11,Test,User,-,,Recall,Recall2,3947,Chili,100,-1,-1,1,1,,1
5ecff40f77254608ec9fb30e,pc220a6x7u,Nick_Dissertation_EX1,1,276,2020-06-13T10:16:25-07:00,7.6368968486786,2,versionA_stim.csv,READVersionB.csv,"Read Version B","Dissertation, read only version B",CHISEL,HAMMER,Study1,F,9,25,Test,User,-,,Recall,Recall2,7165,"Hammer ",100,-1,-1,1,1,,1
5ecff40f77254608ec9fb30e,pc220a6x7u,Nick_Dissertation_EX1,1,277,2020-06-13T10:16:30-07:00,4.7136809825897,2,versionA_stim.csv,READVersionB.csv,"Read Version B","Dissertation, read only version B",SENTENCE,WORD,Study1,B,31,67,Test,User,-,,Recall,Recall2,4258,,0,-1,-1,0,0,,1
5ecff40f77254608ec9fb30e,pc220a6x7u,Nick_Dissertation_EX1,1,278,2020-06-13T10:16:41-07:00,11.523219108582,2,versionA_stim.csv,READVersionB.csv,"Read Version B","Dissertation, read only version B",HORNET,STING,Study1,F,11,26,Test,User,-,,Recall,Recall2,10933,Sting,100,-1,-1,1,1,,0.875
5ecff40f77254608ec9fb30e,pc220a6x7u,Nick_Dissertation_EX1,1,279,2020-06-13T10:16:50-07:00,8.9860038757324,2,versionA_stim.csv,READVersionB.csv,"Read Version B","Dissertation, read only version B",DELINQUENT,BAD,Study1,F,6,43,Test,User,-,,Recall,Recall2,8483,Jail,28.571428571429,-1,-1,0,0,,1
5ecff40f77254608ec9fb30e,pc220a6x7u,Nick_Dissertation_EX1,1,280,2020-06-13T10:16:53-07:00,2.7325429916382,2,versionA_stim.csv,READVersionB.csv,"Read Version B","Dissertation, read only version B",EDITOR,NEWS,Study1,F,10,18,Test,User,-,,Recall,Recall2,2255,,0,-1,-1,0,0,,1
5ecff40f77254608ec9fb30e,pc220a6x7u,Nick_Dissertation_EX1,1,281,2020-06-13T10:17:04-07:00,10.521858215332,2,versionA_stim.csv,READVersionB.csv,"Read Version B","Dissertation, read only version B",WINE,CHEESE,Study1,S,57,51,Test,User,-,,Recall,Recall2,9940,Beer,40,-1,-1,0,0,,0.853
5ecff40f77254608ec9fb30e,pc220a6x7u,Nick_Dissertation_EX1,1,282,2020-06-13T10:17:06-07:00,2.3070549964905,2,versionA_stim.csv,READVersionB.csv,"Read Version B","Dissertation, read only version B",DIETARY,SACKING,Study1,U,67,69,Test,User,-,,Recall,Recall2,1853,,0,-1,-1,0,0,,1
5ecff40f77254608ec9fb30e,pc220a6x7u,Nick_Dissertation_EX1,1,283,2020-06-13T10:17:14-07:00,7.6695609092712,2,versionA_stim.csv,READVersionB.csv,"Read Version B","Dissertation, read only version B",NUMBER,AMOUNT,Study1,S,47,27,Test,User,-,,Recall,Recall2,7120,,0,-1,-1,0,0,,1
5ecff40f77254608ec9fb30e,pc220a6x7u,Nick_Dissertation_EX1,1,284,2020-06-13T10:17:19-07:00,5.4413270950317,2,versionA_stim.csv,READVersionB.csv,"Read Version B","Dissertation, read only version B",ALLOW,TUCK,Study1,U,78,47,Test,User,-,,Recall,Recall2,4939,Agree,0,-1,-1,0,0,,1
5ecff40f77254608ec9fb30e,pc220a6x7u,Nick_Dissertation_EX1,1,285,2020-06-13T10:17:34-07:00,15.313886880875,2,versionA_stim.csv,READVersionB.csv,"Read Version B","Dissertation, read only version B",HIDE,SICK,Study1,U,84,70,Test,User,-,,Recall,Recall2,14732,Silk,75,-1,-1,0,1,,1
5ecff40f77254608ec9fb30e,pc220a6x7u,Nick_Dissertation_EX1,1,286,2020-06-13T10:17:38-07:00,3.3421409130096,2,versionA_stim.csv,READVersionB.csv,"Read Version B","Dissertation, read only version B",HONEY,BEE,Study1,S,63,58,Test,User,-,,Recall,Recall2,2845,Bee,100,-1,-1,1,1,,1
5ecff40f77254608ec9fb30e,pc220a6x7u,Nick_Dissertation_EX1,1,287,2020-06-13T10:17:42-07:00,4.598717212677,2,versionA_stim.csv,READVersionB.csv,"Read Version B","Dissertation, read only version B",PAST,FUTURE,Study1,S,61,34,Test,User,-,,Recall,Recall2,4130,Future,100,-1,-1,1,1,,1
5ecff40f77254608ec9fb30e,pc220a6x7u,Nick_Dissertation_EX1,1,288,2020-06-13T10:17:46-07:00,4.1468088626862,2,versionA_stim.csv,READVersionB.csv,"Read Version B","Dissertation, read only version B",FIX,HAND,Study1,U,75,15,Test,User,-,,Recall,Recall2,3672,Mend,50,-1,-1,0,0,,1
5ecff40f77254608ec9fb30e,pc220a6x7u,Nick_Dissertation_EX1,1,289,2020-06-13T10:17:53-07:00,6.2204489707947,2,versionA_stim.csv,READVersionB.csv,"Read Version B","Dissertation, read only version B",DARK,CAVE,Study1,B,28,30,Test,User,-,,Recall,Recall2,5719,Space,44.444444444444,-1,-1,0,0,,1
5ecff40f77254608ec9fb30e,pc220a6x7u,Nick_Dissertation_EX1,1,290,2020-06-13T10:17:59-07:00,5.9284751415253,2,versionA_stim.csv,READVersionB.csv,"Read Version B","Dissertation, read only version B",KEY,LATCH,Study1,B,36,76,Test,User,-,,Recall,Recall2,5491,Latch,100,-1,-1,1,1,,1
5ecff40f77254608ec9fb30e,pc220a6x7u,Nick_Dissertation_EX1,1,291,2020-06-13T10:18:03-07:00,4.2996499538422,2,versionA_stim.csv,READVersionB.csv,"Read Version B","Dissertation, read only version B",BATHROOM,TOILET,Study1,S,58,60,Test,User,-,,Recall,Recall2,3822,Toilet,100,-1,-1,1,1,,1
5ecff40f77254608ec9fb30e,pc220a6x7u,Nick_Dissertation_EX1,1,292,2020-06-13T10:18:07-07:00,4.5106399059296,2,versionA_stim.csv,READVersionB.csv,"Read Version B","Dissertation, read only version B",HUNGER,FAMINE,Study1,B,40,9,Test,User,-,,Recall,Recall2,4043,Famine,100,-1,-1,1,1,,1
5ecff40f77254608ec9fb30e,pc220a6x7u,Nick_Dissertation_EX1,1,293,2020-06-13T10:18:10-07:00,2.863343000412,2,versionA_stim.csv,READVersionB.csv,"Read Version B","Dissertation, read only version B",BRIDGE,WATER,Study1,F,18,62,Test,User,-,,Recall,Recall2,2407,,0,-1,-1,0,0,,1
5ecff40f77254608ec9fb30e,pc220a6x7u,Nick_Dissertation_EX1,1,294,2020-06-13T10:18:16-07:00,5.9245400428772,2,versionA_stim.csv,READVersionB.csv,"Read Version B","Dissertation, read only version B",PLANE,PILOT,Study1,B,44,49,Test,User,-,,Recall,Recall2,5434,Pilot,100,-1,-1,1,1,,1
5ecff40f77254608ec9fb30e,pc220a6x7u,Nick_Dissertation_EX1,1,295,2020-06-13T10:18:28-07:00,11.893194913864,2,versionA_stim.csv,READVersionB.csv,"Read Version B","Dissertation, read only version B",PUSHER,CLUTTER,Study1,U,66,56,Test,User,-,,Recall,Recall2,11329,Chatter,71.428571428571,-1,-1,0,0,,1
5ecff40f77254608ec9fb30e,pc220a6x7u,Nick_Dissertation_EX1,1,296,2020-06-13T10:18:37-07:00,8.8075380325317,2,versionA_stim.csv,READVersionB.csv,"Read Version B","Dissertation, read only version B",FIRE,BLAZE,Study1,B,45,78,Test,User,-,,Recall,Recall2,8210,,0,-1,-1,0,0,,1
5ecff40f77254608ec9fb30e,pc220a6x7u,Nick_Dissertation_EX1,1,297,2020-06-13T10:18:41-07:00,4.1828010082245,2,versionA_stim.csv,READVersionB.csv,"Read Version B","Dissertation, read only version B",GEOLOGY,ROCK,Study1,F,19,74,Test,User,-,,Recall,Recall2,3572,Rock,100,-1,-1,1,1,,1
5ecff40f77254608ec9fb30e,pc220a6x7u,Nick_Dissertation_EX1,1,298,2020-06-13T10:18:44-07:00,3.2102711200714,2,versionA_stim.csv,READVersionB.csv,"Read Version B","Dissertation, read only version B",WORK,CHORE,Study1,B,39,44,Test,User,-,,Recall,Recall2,2734,,0,-1,-1,0,0,,1
5ecff40f77254608ec9fb30e,pc220a6x7u,Nick_Dissertation_EX1,1,299,2020-06-13T10:18:55-07:00,10.722369909286,2,versionA_stim.csv,READVersionB.csv,"Read Version B","Dissertation, read only version B",TRIAL,JURY,Study1,S,50,38,Test,User,-,,Recall,Recall2,10154,Lawyer,20,-1,-1,0,0,,1
5ecff40f77254608ec9fb30e,pc220a6x7u,Nick_Dissertation_EX1,1,300,2020-06-13T10:19:02-07:00,6.6936519145966,2,versionA_stim.csv,READVersionB.csv,"Read Version B","Dissertation, read only version B",LETTUCE,SALAD,Study1,S,59,80,Test,User,-,,Recall,Recall2,6214,"Salad ",100,-1,-1,1,1,,1
5ecff40f77254608ec9fb30e,pc220a6x7u,Nick_Dissertation_EX1,1,301,2020-06-13T10:19:07-07:00,5.0995080471039,2,versionA_stim.csv,READVersionB.csv,"Read Version B","Dissertation, read only version B",FULL,ENOUGH,Study1,B,26,21,Test,User,-,,Recall,Recall2,4649,"Enough ",100,-1,-1,1,1,,1
5ecff40f77254608ec9fb30e,pc220a6x7u,Nick_Dissertation_EX1,1,302,2020-06-13T10:19:16-07:00,8.7817471027374,2,versionA_stim.csv,READVersionB.csv,"Read Version B","Dissertation, read only version B",CASH,WOULD,Study1,U,83,64,Test,User,-,,Recall,Recall2,8298,,0,-1,-1,0,0,,1
5ecff40f77254608ec9fb30e,pc220a6x7u,Nick_Dissertation_EX1,1,303,2020-06-13T10:19:21-07:00,5.5527520179749,2,versionA_stim.csv,READVersionB.csv,"Read Version B","Dissertation, read only version B",ORCHID,FLOWER,Study1,F,24,82,Test,User,-,,Recall,Recall2,5074,"Flower ",100,-1,-1,1,1,,1
5ecff40f77254608ec9fb30e,pc220a6x7u,Nick_Dissertation_EX1,1,304,2020-06-13T10:19:23-07:00,2.0937600135803,2,versionA_stim.csv,READVersionB.csv,"Read Version B","Dissertation, read only version B",SUGAR,RIDDLE,Study1,U,81,19,Test,User,-,,Recall,Recall2,1633,,0,-1,-1,0,0,,1
5ecff40f77254608ec9fb30e,pc220a6x7u,Nick_Dissertation_EX1,1,305,2020-06-13T10:19:36-07:00,12.481338977814,2,versionA_stim.csv,READVersionB.csv,"Read Version B","Dissertation, read only version B",CIRCLE,ROUND,Study1,S,65,59,Test,User,-,,Recall,Recall2,11923,Shape,0,-1,-1,0,0,,0.8
5ecff40f77254608ec9fb30e,pc220a6x7u,Nick_Dissertation_EX1,1,306,2020-06-13T10:19:59-07:00,22.821446895599,2,versionA_stim.csv,READVersionB.csv,"Read Version B","Dissertation, read only version B",ART,LION,Study1,U,79,72,Test,User,-,,Recall,Recall2,22210,,0,-1,-1,0,0,,1
5ecff40f77254608ec9fb30e,pc220a6x7u,Nick_Dissertation_EX1,1,307,2020-06-13T10:20:02-07:00,3.8934590816498,2,versionA_stim.csv,READVersionB.csv,"Read Version B","Dissertation, read only version B",BLOW,WIND,Study1,S,55,39,Test,User,-,,Recall,Recall2,3372,Wind,100,-1,-1,1,1,,1
5ecff40f77254608ec9fb30e,pc220a6x7u,Nick_Dissertation_EX1,1,308,2020-06-13T10:20:19-07:00,17.030936002731,2,versionA_stim.csv,READVersionB.csv,"Read Version B","Dissertation, read only version B",DEATH,BUSINESS,Study1,U,72,24,Test,User,-,,Recall,Recall2,16443,Business,100,-1,-1,1,1,,1
5ecff40f77254608ec9fb30e,pc220a6x7u,Nick_Dissertation_EX1,1,309,2020-06-13T10:20:25-07:00,5.5037188529968,2,versionA_stim.csv,READVersionB.csv,"Read Version B","Dissertation, read only version B",ARCHITECTURE,DESIGN,Study1,S,51,86,Test,User,-,,Recall,Recall2,5000,Building,28.571428571429,-1,-1,0,0,,1
5ecff40f77254608ec9fb30e,pc220a6x7u,Nick_Dissertation_EX1,1,310,2020-06-13T10:20:28-07:00,3.5028250217438,2,versionA_stim.csv,READVersionB.csv,"Read Version B","Dissertation, read only version B",SHOE,FOOT,Study1,S,60,73,Test,User,-,,Recall,Recall2,3027,Floor,66.666666666667,-1,-1,0,0,,1
5ecff40f77254608ec9fb30e,pc220a6x7u,Nick_Dissertation_EX1,1,311,2020-06-13T10:20:33-07:00,4.6441462039948,2,versionA_stim.csv,READVersionB.csv,"Read Version B","Dissertation, read only version B",ROOT,PLANT,Study1,F,13,65,Test,User,-,,Recall,Recall2,4155,Plant,100,-1,-1,1,1,,1
5ecff40f77254608ec9fb30e,pc220a6x7u,Nick_Dissertation_EX1,1,312,2020-06-13T10:20:36-07:00,2.5667169094086,2,versionA_stim.csv,READVersionB.csv,"Read Version B","Dissertation, read only version B",BALL,RACKET,Study1,B,38,46,Test,User,-,,Recall,Recall2,2108,,0,-1,-1,0,0,,1
5ecff40f77254608ec9fb30e,pc220a6x7u,Nick_Dissertation_EX1,1,313,2020-06-13T10:20:42-07:00,6.3854179382324,2,versionA_stim.csv,READVersionB.csv,"Read Version B","Dissertation, read only version B",CLOTHES,ATTIRE,Study1,B,43,68,Test,User,-,,Recall,Recall2,5915,,0,-1,-1,0,0,,1
5ecff40f77254608ec9fb30e,pc220a6x7u,Nick_Dissertation_EX1,1,314,2020-06-13T10:20:48-07:00,5.4814879894257,2,versionA_stim.csv,READVersionB.csv,"Read Version B","Dissertation, read only version B",GREAT,FANTASTIC,Study1,B,35,13,Test,User,-,,Recall,Recall2,5001,,0,-1,-1,0,0,,1
5ecff40f77254608ec9fb30e,pc220a6x7u,Nick_Dissertation_EX1,1,315,2020-06-13T10:20:51-07:00,3.191908121109,2,versionA_stim.csv,READVersionB.csv,"Read Version B","Dissertation, read only version B",SOON,BELT,Study1,U,70,42,Test,User,-,,Recall,Recall2,2722,,0,-1,-1,0,0,,1
5ecff40f77254608ec9fb30e,pc220a6x7u,Nick_Dissertation_EX1,1,316,2020-06-13T10:20:54-07:00,3.709883928299,2,versionA_stim.csv,READVersionB.csv,"Read Version B","Dissertation, read only version B",DRINK,SIP,Study1,B,27,84,Test,User,-,,Recall,Recall2,3158,,0,-1,-1,0,0,,1
5ecff40f77254608ec9fb30e,pc220a6x7u,Nick_Dissertation_EX1,1,317,2020-06-13T10:20:58-07:00,3.7313261032104,2,versionA_stim.csv,READVersionB.csv,"Read Version B","Dissertation, read only version B",BABY,CHILD,Study1,S,64,52,Test,User,-,,Recall,Recall2,3243,Child,100,-1,-1,1,1,,1
5ecff40f77254608ec9fb30e,pc220a6x7u,Nick_Dissertation_EX1,1,318,2020-06-13T10:21:04-07:00,5.8131458759308,2,versionA_stim.csv,READVersionB.csv,"Read Version B","Dissertation, read only version B",DEBATE,SIGHT,Study1,U,73,50,Test,User,-,,Recall,Recall2,5315,Argue,20,-1,-1,0,0,,1
5ecff40f77254608ec9fb30e,pc220a6x7u,Nick_Dissertation_EX1,1,319,2020-06-13T10:21:08-07:00,4.0136339664459,2,versionA_stim.csv,READVersionB.csv,"Read Version B","Dissertation, read only version B",DISCUSSION,TALK,Study1,F,21,45,Test,User,-,,Recall,Recall2,3492,Debate,20,-1,-1,0,0,,1
5ecff40f77254608ec9fb30e,pc220a6x7u,Nick_Dissertation_EX1,1,320,2020-06-13T10:21:14-07:00,5.7516911029816,2,versionA_stim.csv,READVersionB.csv,"Read Version B","Dissertation, read only version B",LAW,ATTORNEY,Study1,B,34,7,Test,User,-,,Recall,Recall2,5262,Jury,33.333333333333,-1,-1,0,0,,1
5ecff40f77254608ec9fb30e,pc220a6x7u,Nick_Dissertation_EX1,1,321,2020-06-13T10:21:26-07:00,12.499131917953,2,versionA_stim.csv,READVersionB.csv,"Read Version B","Dissertation, read only version B",MACHINE,POSITION,Study1,U,76,63,Test,User,-,,Recall,Recall2,11908,,0,-1,-1,0,0,,1
5ecff40f77254608ec9fb30e,pc220a6x7u,Nick_Dissertation_EX1,1,322,2020-06-13T10:21:30-07:00,3.7206230163574,2,versionA_stim.csv,READVersionB.csv,"Read Version B","Dissertation, read only version B",REVOLUTION,WAR,Study1,F,20,83,Test,User,-,,Recall,Recall2,3259,,0,-1,-1,0,0,,1
5ecff40f77254608ec9fb30e,pc220a6x7u,Nick_Dissertation_EX1,1,323,2020-06-13T10:21:40-07:00,9.9653041362762,2,versionA_stim.csv,READVersionB.csv,"Read Version B","Dissertation, read only version B",HERD,COW,Study1,F,22,31,Test,User,-,,Recall,Recall2,9484,Cows,85.714285714286,-1,-1,0,1,,1
5ecff40f77254608ec9fb30e,pc220a6x7u,Nick_Dissertation_EX1,1,324,2020-06-13T10:21:51-07:00,10.695863962173,2,versionA_stim.csv,READVersionB.csv,"Read Version B","Dissertation, read only version B",KING,VASE,Study1,U,85,71,Test,User,-,,Recall,Recall2,10055,,0,-1,-1,0,0,,1
5ecff40f77254608ec9fb30e,pc220a6x7u,Nick_Dissertation_EX1,1,325,2020-06-13T10:21:53-07:00,2.1632788181305,2,versionA_stim.csv,READVersionB.csv,"Read Version B","Dissertation, read only version B",BITTER,COLD,Study1,F,12,36,Test,User,-,,Recall,Recall2,1599,,0,-1,-1,0,0,,1
5ecff40f77254608ec9fb30e,pc220a6x7u,Nick_Dissertation_EX1,1,326,2020-06-13T10:21:55-07:00,2.0142300128937,2,versionA_stim.csv,READVersionB.csv,"Read Version B","Dissertation, read only version B",SMELL,STENCH,Study1,B,42,85,Test,User,-,,Recall,Recall2,1549,,0,-1,-1,0,0,,1
5ecff40f77254608ec9fb30e,pc220a6x7u,Nick_Dissertation_EX1,1,327,2020-06-13T10:21:57-07:00,2.1400442123413,2,versionA_stim.csv,READVersionB.csv,"Read Version B","Dissertation, read only version B",HEIGHT,GROWTH,Study1,B,30,40,Test,User,-,,Recall,Recall2,1660,,0,-1,-1,0,0,,1
5ecff40f77254608ec9fb30e,pc220a6x7u,Nick_Dissertation_EX1,1,328,2020-06-13T10:22:01-07:00,3.9942939281464,2,versionA_stim.csv,READVersionB.csv,"Read Version B","Dissertation, read only version B",CREDIT,CARD,Study1,F,23,35,Test,User,-,,Recall,Recall2,3422,Cash,50,-1,-1,0,0,,1
5ecff40f77254608ec9fb30e,pc220a6x7u,Nick_Dissertation_EX1,1,329,2020-06-13T10:22:03-07:00,2.0031168460846,2,versionA_stim.csv,READVersionB.csv,"Read Version B","Dissertation, read only version B",KIDNEY,LIVER,Study1,S,53,10,Test,User,-,,Recall,Recall2,1503,,0,-1,-1,0,0,,1
5ecff40f77254608ec9fb30e,pc220a6x7u,Nick_Dissertation_EX1,1,330,2020-06-13T10:22:08-07:00,4.6508820056915,2,versionA_stim.csv,READVersionB.csv,"Read Version B","Dissertation, read only version B",WAGE,MONEY,Study1,F,8,14,Test,User,-,,Recall,Recall2,4111,Money,100,-1,-1,1,1,,1
5ecff40f77254608ec9fb30e,pc220a6x7u,Nick_Dissertation_EX1,1,331,2020-06-13T10:22:11-07:00,3.6336681842804,2,versionA_stim.csv,READVersionB.csv,"Read Version B","Dissertation, read only version B",BEGIN,END,Study1,S,54,55,Test,User,-,,Recall,Recall2,2420,,0,-1,-1,0,0,,1
5ecff40f77254608ec9fb30e,pc220a6x7u,Nick_Dissertation_EX1,1,332,2020-06-13T10:22:20-07:00,8.6630368232727,2,versionA_stim.csv,READVersionB.csv,"Read Version B","Dissertation, read only version B",PARK,HUNGRY,Study1,U,68,12,Test,User,-,,Recall,Recall2,2426,,0,-1,-1,0,0,,1
5ecff40f77254608ec9fb30e,pc220a6x7u,Nick_Dissertation_EX1,1,333,2020-06-13T10:22:26-07:00,6.4765532016754,2,versionA_stim.csv,READVersionB.csv,"Read Version B","Dissertation, read only version B",PAW,DOG,Study1,F,15,37,Test,User,-,,Recall,Recall2,5122,Cat,0,-1,-1,0,0,,1
5ecff40f77254608ec9fb30e,pc220a6x7u,Nick_Dissertation_EX1,1,334,2020-06-13T10:22:35-07:00,8.5006749629974,2,versionA_stim.csv,READVersionB.csv,"Read Version B","Dissertation, read only version B",HAPPY,CAR,Study1,U,77,57,Test,User,-,,Recall,Recall2,8015,Car,100,-1,-1,1,1,,1
5ecff40f77254608ec9fb30e,pc220a6x7u,Nick_Dissertation_EX1,1,335,2020-06-13T10:22:41-07:00,6.2367548942566,2,versionA_stim.csv,READVersionB.csv,"Read Version B","Dissertation, read only version B",TAKE,SEIZE,Study1,B,29,41,Test,User,-,,Recall,Recall2,5739,Give,44.444444444444,-1,-1,0,0,,1
5ecff40f77254608ec9fb30e,pc220a6x7u,Nick_Dissertation_EX1,1,336,2020-06-13T10:22:45-07:00,3.528881072998,2,versionA_stim.csv,READVersionB.csv,"Read Version B","Dissertation, read only version B",VALLEY,ADD,Study1,U,82,32,Test,User,-,,Recall,Recall2,3018,,0,-1,-1,0,0,,1
5ecff40f77254608ec9fb30e,pc220a6x7u,Nick_Dissertation_EX1,1,337,2020-06-13T10:22:49-07:00,4.5367028713226,2,versionA_stim.csv,READVersionB.csv,"Read Version B","Dissertation, read only version B",STRONG,ACCIDENT,Study1,U,80,48,Test,User,-,,Recall,Recall2,4074,Mighty,28.571428571429,-1,-1,0,0,,1
5ecff40f77254608ec9fb30e,pc220a6x7u,Nick_Dissertation_EX1,1,338,2020-06-13T10:22:51-07:00,1.8886749744415,2,versionA_stim.csv,READVersionB.csv,"Read Version B","Dissertation, read only version B",DUMP,WASTE,Study1,S,49,8,Test,User,-,,Recall,Recall2,1434,,0,-1,-1,0,0,,1
5ecff40f77254608ec9fb30e,pc220a6x7u,Nick_Dissertation_EX1,1,339,2020-06-13T10:22:53-07:00,2.1389880180359,2,versionA_stim.csv,READVersionB.csv,"Read Version B","Dissertation, read only version B",SLEEP,DROWSY,Study1,B,41,79,Test,User,-,,Recall,Recall2,1690,,0,-1,-1,0,0,,1
5ecff40f77254608ec9fb30e,pc220a6x7u,Nick_Dissertation_EX1,1,340,2020-06-13T10:23:09-07:00,15.578169107437,2,versionA_stim.csv,READVersionB.csv,"Read Version B","Dissertation, read only version B",LOCATION,SITE,Study1,S,48,33,Test,User,-,,Recall,Recall2,15001,"Direction ",30.769230769231,-1,-1,0,0,,1
5ecff40f77254608ec9fb30e,pc220a6x7u,Nick_Dissertation_EX1,1,341,2020-06-13T10:23:16-07:00,7.1747040748596,2,versionA_stim.csv,READVersionB.csv,"Read Version B","Dissertation, read only version B",HYGIENE,CLEAN,Study1,F,17,54,Test,User,-,,Recall,Recall2,6661,Clean,100,-1,-1,1,1,,1
5ecff40f77254608ec9fb30e,pc220a6x7u,Nick_Dissertation_EX1,1,342,2020-06-13T10:23:20-07:00,3.8702008724213,2,versionA_stim.csv,READVersionB.csv,"Read Version B","Dissertation, read only version B",LIFT,WOMAN,Study1,U,69,53,Test,User,-,,Recall,Recall2,3403,Woman,100,-1,-1,1,1,,1
5ecff40f77254608ec9fb30e,pc220a6x7u,Nick_Dissertation_EX1,1,343,2020-06-13T10:23:25-07:00,5.614401102066,2,versionA_stim.csv,READVersionB.csv,"Read Version B","Dissertation, read only version B",WAY,OUT,Study1,F,16,17,Test,User,-,,Recall,Recall2,5151,,0,-1,-1,0,0,,1
5ecff40f77254608ec9fb30e,pc220a6x7u,Nick_Dissertation_EX1,1,344,2020-06-13T10:23:28-07:00,2.7468328475952,2,versionA_stim.csv,READVersionB.csv,"Read Version B","Dissertation, read only version B",POP,SODA,Study1,S,56,28,Test,User,-,,Recall,Recall2,2322,,0,-1,-1,0,0,,1
5ecff40f77254608ec9fb30e,pc220a6x7u,Nick_Dissertation_EX1,1,345,2020-06-13T10:23:34-07:00,6.1356871128082,2,versionA_stim.csv,READVersionB.csv,"Read Version B","Dissertation, read only version B",BUG,WASP,Study1,B,32,22,Test,User,-,,Recall,Recall2,5639,Spider,40,-1,-1,0,0,,1
5ecff40f77254608ec9fb30e,pc220a6x7u,Nick_Dissertation_EX1,1,346,2020-06-13T10:23:38-07:00,3.3782889842987,2,versionA_stim.csv,READVersionB.csv,"Read Version B","Dissertation, read only version B",DIGESTION,STOMACH,Study1,F,7,75,Test,User,-,,Recall,Recall2,2914,,0,-1,-1,0,0,,1
5ecff40f77254608ec9fb30e,pc220a6x7u,Nick_Dissertation_EX1,1,347,2020-06-13T10:23:44-07:00,6.543289899826,2,versionA_stim.csv,READVersionB.csv,"Read Version B","Dissertation, read only version B",ARTERY,BRONZE,Study1,U,74,16,Test,User,-,,Recall,Recall2,6035,Blood,36.363636363636,-1,-1,0,0,,1
5ecff40f77254608ec9fb30e,pc220a6x7u,Nick_Dissertation_EX1,1,348,2020-06-13T10:23:47-07:00,2.4093902111053,2,versionA_stim.csv,READVersionB.csv,"Read Version B","Dissertation, read only version B",DUE,ASSIGNMENT,Study1,S,46,81,Test,User,-,,Recall,Recall2,1841,,0,-1,-1,0,0,,1
5ecff40f77254608ec9fb30e,pc220a6x7u,Nick_Dissertation_EX1,1,349,2020-06-13T10:23:49-07:00,2.6380980014801,2,versionA_stim.csv,READVersionB.csv,"Read Version B","Dissertation, read only version B",,,,,,0,Instruct,User,-,"You have completed this section. Please press Enter.",,Instruct7,2060,,,-1,-1,,,,1
5ecff40f77254608ec9fb30e,pc220a6x7u,Nick_Dissertation_EX1,1,350,2020-06-13T10:23:52-07:00,2.9276700019836,2,versionA_stim.csv,READVersionB.csv,"Read Version B","Dissertation, read only version B",,,,,,0,Instruct,User,-,"The following screen will ask you a few questions abour your experience today. You must complete these questions to receive credit.",,Instruct8,2435,,,-1,-1,,,,1
