Username,ID,ExperimentName,Session,Trial,Date,TimeDif,"Condition Number","Stimuli File","Order File","Condition Description","Condition Notes",Stimuli*Cue,Stimuli*Answer,Stimuli*Shuffle,"Stimuli*Stimuli Notes",Stimuli*Value,Procedure*Item,"Procedure*Trial Type","Procedure*Max Time","Procedure*Min Time",Procedure*Text,"Procedure*Procedure Notes",Procedure*Shuffle,Response*RT,Response*Response,Response*Accuracy,Response*RTfirst,Response*RTlast,Response*strictAcc,Response*lenientAcc,Response*focus,Response*Focus
5d559b344171570017abe563,0avfqw2i1x,Nick_Dissertation_EX1,1,1,2020-06-02T09:09:12-07:00,11.100257873535,4,versionC_stim.csv,READVersionD.csv,"Read Version D","Dissertation, read only version D",,,,,,0,Instruct,-,10,"Please study each of the following word pairs. Remember that your memory will be tested! When finished, press Enter to move to the next pair.",Initial_Instruct,Instruct1,10836,,,-1,-1,,,,1
5d559b344171570017abe563,0avfqw2i1x,Nick_Dissertation_EX1,1,2,2020-06-02T09:09:16-07:00,4.0502090454102,4,versionC_stim.csv,READVersionD.csv,"Read Version D","Dissertation, read only version D",FROZEN,ICE,BUFFER3,Buffer,94,96,Study,User,-,,Study/JOL,BUFFER,3718,,,-1,-1,,,,1
5d559b344171570017abe563,0avfqw2i1x,Nick_Dissertation_EX1,1,3,2020-06-02T09:09:20-07:00,3.5479159355164,4,versionC_stim.csv,READVersionD.csv,"Read Version D","Dissertation, read only version D",POTATO,CARROT,BUFFER3,Buffer,91,92,Study,User,-,,Study/JOL,BUFFER,3233,,,-1,-1,,,,1
5d559b344171570017abe563,0avfqw2i1x,Nick_Dissertation_EX1,1,4,2020-06-02T09:09:23-07:00,3.0317051410675,4,versionC_stim.csv,READVersionD.csv,"Read Version D","Dissertation, read only version D",STRING,NOODLE,BUFFER3,Buffer,92,95,Study,User,-,,Study/JOL,BUFFER,2724,,,-1,-1,,,,1
5d559b344171570017abe563,0avfqw2i1x,Nick_Dissertation_EX1,1,5,2020-06-02T09:09:26-07:00,2.9804930686951,4,versionC_stim.csv,READVersionD.csv,"Read Version D","Dissertation, read only version D",FISH,SHRIMP,BUFFER3,Buffer,93,93,Study,User,-,,Study/JOL,BUFFER,2664,,,-1,-1,,,,1
5d559b344171570017abe563,0avfqw2i1x,Nick_Dissertation_EX1,1,6,2020-06-02T09:09:29-07:00,2.9700558185577,4,versionC_stim.csv,READVersionD.csv,"Read Version D","Dissertation, read only version D",ADVENTURE,CAMP,BUFFER3,Buffer,95,94,Study,User,-,,Study/JOL,BUFFER,2686,,,-1,-1,,,,1
5d559b344171570017abe563,0avfqw2i1x,Nick_Dissertation_EX1,1,7,2020-06-02T09:09:32-07:00,3.1515691280365,4,versionC_stim.csv,READVersionD.csv,"Read Version D","Dissertation, read only version D",SCISSORS,SHEARS,Study2,B,112,141,Study,User,-,,Study/JOL,"Study Phase",2862,,,-1,-1,,,,1
5d559b344171570017abe563,0avfqw2i1x,Nick_Dissertation_EX1,1,8,2020-06-02T09:09:35-07:00,3.5468909740448,4,versionC_stim.csv,READVersionD.csv,"Read Version D","Dissertation, read only version D",BREAKABLE,GLASS,Study2,F,127,123,Study,User,-,,Study/JOL,"Study Phase",3237,,,-1,-1,,,,1
5d559b344171570017abe563,0avfqw2i1x,Nick_Dissertation_EX1,1,9,2020-06-02T09:09:39-07:00,3.2505919933319,4,versionC_stim.csv,READVersionD.csv,"Read Version D","Dissertation, read only version D",REVENGE,EVEN,Study2,F,122,108,Study,User,-,,Study/JOL,"Study Phase",2958,,,-1,-1,,,,1
5d559b344171570017abe563,0avfqw2i1x,Nick_Dissertation_EX1,1,10,2020-06-02T09:09:42-07:00,3.1376390457153,4,versionC_stim.csv,READVersionD.csv,"Read Version D","Dissertation, read only version D",BALLOON,POP,Study2,F,123,121,Study,User,-,,Study/JOL,"Study Phase",2843,,,-1,-1,,,,1
5d559b344171570017abe563,0avfqw2i1x,Nick_Dissertation_EX1,1,11,2020-06-02T09:09:45-07:00,3.2244799137115,4,versionC_stim.csv,READVersionD.csv,"Read Version D","Dissertation, read only version D",Morning,TEMPERATURE,Study2,U,173,168,Study,User,-,,Study/JOL,"Study Phase",2916,,,-1,-1,,,,1
5d559b344171570017abe563,0avfqw2i1x,Nick_Dissertation_EX1,1,12,2020-06-02T09:09:48-07:00,2.8916869163513,4,versionC_stim.csv,READVersionD.csv,"Read Version D","Dissertation, read only version D",ACTRESS,STAR,Study2,F,120,136,Study,User,-,,Study/JOL,"Study Phase",2579,,,-1,-1,,,,1
5d559b344171570017abe563,0avfqw2i1x,Nick_Dissertation_EX1,1,13,2020-06-02T09:09:55-07:00,7.3505990505219,4,versionC_stim.csv,READVersionD.csv,"Read Version D","Dissertation, read only version D",TEMPER,TANTRUM,Study2,S,154,127,Study,User,-,,Study/JOL,"Study Phase",7033,,,-1,-1,,,,1
5d559b344171570017abe563,0avfqw2i1x,Nick_Dissertation_EX1,1,14,2020-06-02T09:09:58-07:00,2.787101984024,4,versionC_stim.csv,READVersionD.csv,"Read Version D","Dissertation, read only version D",CLOTH,STRETCH,Study2,U,157,118,Study,User,-,,Study/JOL,"Study Phase",2471,,,-1,-1,,,,1
5d559b344171570017abe563,0avfqw2i1x,Nick_Dissertation_EX1,1,15,2020-06-02T09:10:03-07:00,4.9278781414032,4,versionC_stim.csv,READVersionD.csv,"Read Version D","Dissertation, read only version D",FICTION,LISTEN,Study2,U,164,163,Study,User,-,,Study/JOL,"Study Phase",4608,,,-1,-1,,,,1
5d559b344171570017abe563,0avfqw2i1x,Nick_Dissertation_EX1,1,16,2020-06-02T09:10:06-07:00,2.7098038196564,4,versionC_stim.csv,READVersionD.csv,"Read Version D","Dissertation, read only version D",LONG,EXTENSION,Study2,B,96,143,Study,User,-,,Study/JOL,"Study Phase",2385,,,-1,-1,,,,1
5d559b344171570017abe563,0avfqw2i1x,Nick_Dissertation_EX1,1,17,2020-06-02T09:10:08-07:00,2.3296451568604,4,versionC_stim.csv,READVersionD.csv,"Read Version D","Dissertation, read only version D",STRAWBERRY,FRUIT,Study2,F,124,146,Study,User,-,,Study/JOL,"Study Phase",2030,,,-1,-1,,,,1
5d559b344171570017abe563,0avfqw2i1x,Nick_Dissertation_EX1,1,18,2020-06-02T09:10:11-07:00,3.306519985199,4,versionC_stim.csv,READVersionD.csv,"Read Version D","Dissertation, read only version D",BANG,FUZZY,Study2,U,168,105,Study,User,-,,Study/JOL,"Study Phase",2994,,,-1,-1,,,,1
5d559b344171570017abe563,0avfqw2i1x,Nick_Dissertation_EX1,1,19,2020-06-02T09:10:15-07:00,3.3665180206299,4,versionC_stim.csv,READVersionD.csv,"Read Version D","Dissertation, read only version D",SMELL,INCENSE,Study2,B,110,156,Study,User,-,,Study/JOL,"Study Phase",3054,,,-1,-1,,,,1
5d559b344171570017abe563,0avfqw2i1x,Nick_Dissertation_EX1,1,20,2020-06-02T09:10:17-07:00,2.7887780666351,4,versionC_stim.csv,READVersionD.csv,"Read Version D","Dissertation, read only version D",NOISE,LOUD,Study2,S,152,109,Study,User,-,,Study/JOL,"Study Phase",2476,,,-1,-1,,,,1
5d559b344171570017abe563,0avfqw2i1x,Nick_Dissertation_EX1,1,21,2020-06-02T09:10:22-07:00,4.1453838348389,4,versionC_stim.csv,READVersionD.csv,"Read Version D","Dissertation, read only version D",CUT,CHOP,Study2,B,107,111,Study,User,-,,Study/JOL,"Study Phase",3841,,,-1,-1,,,,1
5d559b344171570017abe563,0avfqw2i1x,Nick_Dissertation_EX1,1,22,2020-06-02T09:10:27-07:00,5.8347029685974,4,versionC_stim.csv,READVersionD.csv,"Read Version D","Dissertation, read only version D",COMMUNICATION,PHONE,Study2,S,149,129,Study,User,-,,Study/JOL,"Study Phase",5554,,,-1,-1,,,,1
5d559b344171570017abe563,0avfqw2i1x,Nick_Dissertation_EX1,1,23,2020-06-02T09:10:30-07:00,2.75364112854,4,versionC_stim.csv,READVersionD.csv,"Read Version D","Dissertation, read only version D",BRAWL,FIGHT,Study2,F,135,104,Study,User,-,,Study/JOL,"Study Phase",2440,,,-1,-1,,,,1
5d559b344171570017abe563,0avfqw2i1x,Nick_Dissertation_EX1,1,24,2020-06-02T09:10:33-07:00,2.3881080150604,4,versionC_stim.csv,READVersionD.csv,"Read Version D","Dissertation, read only version D",BANKER,MONEY,Study2,F,132,149,Study,User,-,,Study/JOL,"Study Phase",2066,,,-1,-1,,,,1
5d559b344171570017abe563,0avfqw2i1x,Nick_Dissertation_EX1,1,25,2020-06-02T09:10:36-07:00,3.715931892395,4,versionC_stim.csv,READVersionD.csv,"Read Version D","Dissertation, read only version D",JAR,MASON,Study2,S,138,112,Study,User,-,,Study/JOL,"Study Phase",3411,,,-1,-1,,,,1
5d559b344171570017abe563,0avfqw2i1x,Nick_Dissertation_EX1,1,26,2020-06-02T09:10:40-07:00,3.4758360385895,4,versionC_stim.csv,READVersionD.csv,"Read Version D","Dissertation, read only version D",TRUTHFUL,HONEST,Study2,F,133,126,Study,User,-,,Study/JOL,"Study Phase",3166,,,-1,-1,,,,1
5d559b344171570017abe563,0avfqw2i1x,Nick_Dissertation_EX1,1,27,2020-06-02T09:10:42-07:00,2.5667979717255,4,versionC_stim.csv,READVersionD.csv,"Read Version D","Dissertation, read only version D",HEAD,SCALP,Study2,B,105,102,Study,User,-,,Study/JOL,"Study Phase",2261,,,-1,-1,,,,1
5d559b344171570017abe563,0avfqw2i1x,Nick_Dissertation_EX1,1,28,2020-06-02T09:10:45-07:00,3.0055501461029,4,versionC_stim.csv,READVersionD.csv,"Read Version D","Dissertation, read only version D",SCAR,MAIN,Study2,U,175,138,Study,User,-,,Study/JOL,"Study Phase",2696,,,-1,-1,,,,1
5d559b344171570017abe563,0avfqw2i1x,Nick_Dissertation_EX1,1,29,2020-06-02T09:10:48-07:00,2.9310820102692,4,versionC_stim.csv,READVersionD.csv,"Read Version D","Dissertation, read only version D",AWAY,GONE,Study2,S,142,114,Study,User,-,,Study/JOL,"Study Phase",2620,,,-1,-1,,,,1
5d559b344171570017abe563,0avfqw2i1x,Nick_Dissertation_EX1,1,30,2020-06-02T09:10:51-07:00,3.1167998313904,4,versionC_stim.csv,READVersionD.csv,"Read Version D","Dissertation, read only version D",PLANT,CACTUS,Study2,B,98,106,Study,User,-,,Study/JOL,"Study Phase",2815,,,-1,-1,,,,1
5d559b344171570017abe563,0avfqw2i1x,Nick_Dissertation_EX1,1,31,2020-06-02T09:10:54-07:00,2.9586861133575,4,versionC_stim.csv,READVersionD.csv,"Read Version D","Dissertation, read only version D",BRACELET,WRIST,Study2,S,140,133,Study,User,-,,Study/JOL,"Study Phase",2672,,,-1,-1,,,,1
5d559b344171570017abe563,0avfqw2i1x,Nick_Dissertation_EX1,1,32,2020-06-02T09:10:58-07:00,3.1734738349915,4,versionC_stim.csv,READVersionD.csv,"Read Version D","Dissertation, read only version D",FIGHT,FEUD,Study2,B,113,137,Study,User,-,,Study/JOL,"Study Phase",2884,,,-1,-1,,,,1
5d559b344171570017abe563,0avfqw2i1x,Nick_Dissertation_EX1,1,33,2020-06-02T09:11:01-07:00,3.7742640972137,4,versionC_stim.csv,READVersionD.csv,"Read Version D","Dissertation, read only version D",OUNCE,BOTH,Study2,U,172,125,Study,User,-,,Study/JOL,"Study Phase",3460,,,-1,-1,,,,1
5d559b344171570017abe563,0avfqw2i1x,Nick_Dissertation_EX1,1,34,2020-06-02T09:11:05-07:00,3.6014230251312,4,versionC_stim.csv,READVersionD.csv,"Read Version D","Dissertation, read only version D",DOG,FURRY,Study2,B,102,159,Study,User,-,,Study/JOL,"Study Phase",3285,,,-1,-1,,,,1
5d559b344171570017abe563,0avfqw2i1x,Nick_Dissertation_EX1,1,35,2020-06-02T09:11:09-07:00,3.6877820491791,4,versionC_stim.csv,READVersionD.csv,"Read Version D","Dissertation, read only version D",PENGUIN,BIRD,Study2,F,119,154,Study,User,-,,Study/JOL,"Study Phase",3383,,,-1,-1,,,,1
5d559b344171570017abe563,0avfqw2i1x,Nick_Dissertation_EX1,1,36,2020-06-02T09:11:12-07:00,3.5728268623352,4,versionC_stim.csv,READVersionD.csv,"Read Version D","Dissertation, read only version D",COLD,CHILL,Study2,B,114,172,Study,User,-,,Study/JOL,"Study Phase",3263,,,-1,-1,,,,1
5d559b344171570017abe563,0avfqw2i1x,Nick_Dissertation_EX1,1,37,2020-06-02T09:11:17-07:00,5.2643711566925,4,versionC_stim.csv,READVersionD.csv,"Read Version D","Dissertation, read only version D",SEATBELT,SAFETY,Study2,S,147,161,Study,User,-,,Study/JOL,"Study Phase",4959,,,-1,-1,,,,1
5d559b344171570017abe563,0avfqw2i1x,Nick_Dissertation_EX1,1,38,2020-06-02T09:11:25-07:00,7.8047249317169,4,versionC_stim.csv,READVersionD.csv,"Read Version D","Dissertation, read only version D",AIRCRAFT,PLANE,Study2,F,129,142,Study,User,-,,Study/JOL,"Study Phase",6473,,,-1,-1,,,,1
5d559b344171570017abe563,0avfqw2i1x,Nick_Dissertation_EX1,1,39,2020-06-02T09:11:29-07:00,3.6773190498352,4,versionC_stim.csv,READVersionD.csv,"Read Version D","Dissertation, read only version D",WET,DRY,Study2,S,146,101,Study,User,-,,Study/JOL,"Study Phase",3355,,,-1,-1,,,,1
5d559b344171570017abe563,0avfqw2i1x,Nick_Dissertation_EX1,1,40,2020-06-02T09:11:34-07:00,5.1658849716187,4,versionC_stim.csv,READVersionD.csv,"Read Version D","Dissertation, read only version D",STEAK,GIVE,Study2,U,158,158,Study,User,-,,Study/JOL,"Study Phase",4862,,,-1,-1,,,,1
5d559b344171570017abe563,0avfqw2i1x,Nick_Dissertation_EX1,1,41,2020-06-02T09:11:39-07:00,5.1181428432465,4,versionC_stim.csv,READVersionD.csv,"Read Version D","Dissertation, read only version D",DRINK,WATER,Study2,S,143,99,Study,User,-,,Study/JOL,"Study Phase",3802,,,-1,-1,,,,1
5d559b344171570017abe563,0avfqw2i1x,Nick_Dissertation_EX1,1,42,2020-06-02T09:11:43-07:00,3.4270122051239,4,versionC_stim.csv,READVersionD.csv,"Read Version D","Dissertation, read only version D",CLOTHES,CAKE,Study2,U,166,119,Study,User,-,,Study/JOL,"Study Phase",3105,,,-1,-1,,,,1
5d559b344171570017abe563,0avfqw2i1x,Nick_Dissertation_EX1,1,43,2020-06-02T09:11:47-07:00,4.2661738395691,4,versionC_stim.csv,READVersionD.csv,"Read Version D","Dissertation, read only version D",END,ADJOURN,Study2,B,101,144,Study,User,-,,Study/JOL,"Study Phase",3946,,,-1,-1,,,,1
5d559b344171570017abe563,0avfqw2i1x,Nick_Dissertation_EX1,1,44,2020-06-02T09:11:51-07:00,3.6174280643463,4,versionC_stim.csv,READVersionD.csv,"Read Version D","Dissertation, read only version D",FAVORITE,BEST,Study2,F,125,139,Study,User,-,,Study/JOL,"Study Phase",3302,,,-1,-1,,,,1
5d559b344171570017abe563,0avfqw2i1x,Nick_Dissertation_EX1,1,45,2020-06-02T09:11:54-07:00,3.1104400157928,4,versionC_stim.csv,READVersionD.csv,"Read Version D","Dissertation, read only version D",TAN,SUN,Study2,S,155,124,Study,User,-,,Study/JOL,"Study Phase",2807,,,-1,-1,,,,1
5d559b344171570017abe563,0avfqw2i1x,Nick_Dissertation_EX1,1,46,2020-06-02T09:11:57-07:00,3.4790880680084,4,versionC_stim.csv,READVersionD.csv,"Read Version D","Dissertation, read only version D",THIMBLE,THREAD,Study2,F,121,153,Study,User,-,,Study/JOL,"Study Phase",3175,,,-1,-1,,,,1
5d559b344171570017abe563,0avfqw2i1x,Nick_Dissertation_EX1,1,47,2020-06-02T09:12:00-07:00,3.1631438732147,4,versionC_stim.csv,READVersionD.csv,"Read Version D","Dissertation, read only version D",REEL,ROD,Study2,S,150,134,Study,User,-,,Study/JOL,"Study Phase",2870,,,-1,-1,,,,1
5d559b344171570017abe563,0avfqw2i1x,Nick_Dissertation_EX1,1,48,2020-06-02T09:12:03-07:00,2.7764611244202,4,versionC_stim.csv,READVersionD.csv,"Read Version D","Dissertation, read only version D",CAR,DRIVER,Study2,B,106,155,Study,User,-,,Study/JOL,"Study Phase",2464,,,-1,-1,,,,1
5d559b344171570017abe563,0avfqw2i1x,Nick_Dissertation_EX1,1,49,2020-06-02T09:12:06-07:00,2.6240878105164,4,versionC_stim.csv,READVersionD.csv,"Read Version D","Dissertation, read only version D",SARDINE,FISH,Study2,F,130,174,Study,User,-,,Study/JOL,"Study Phase",2275,,,-1,-1,,,,1
5d559b344171570017abe563,0avfqw2i1x,Nick_Dissertation_EX1,1,50,2020-06-02T09:12:09-07:00,2.9419791698456,4,versionC_stim.csv,READVersionD.csv,"Read Version D","Dissertation, read only version D",VILLAIN,BAD,Study2,F,118,131,Study,User,-,,Study/JOL,"Study Phase",2618,,,-1,-1,,,,1
5d559b344171570017abe563,0avfqw2i1x,Nick_Dissertation_EX1,1,51,2020-06-02T09:12:11-07:00,2.6184079647064,4,versionC_stim.csv,READVersionD.csv,"Read Version D","Dissertation, read only version D",LIE,TRUTH,Study2,S,148,116,Study,User,-,,Study/JOL,"Study Phase",2298,,,-1,-1,,,,1
5d559b344171570017abe563,0avfqw2i1x,Nick_Dissertation_EX1,1,52,2020-06-02T09:12:15-07:00,3.3345859050751,4,versionC_stim.csv,READVersionD.csv,"Read Version D","Dissertation, read only version D",LEAGUE,BASEBALL,Study2,F,131,135,Study,User,-,,Study/JOL,"Study Phase",3037,,,-1,-1,,,,1
5d559b344171570017abe563,0avfqw2i1x,Nick_Dissertation_EX1,1,53,2020-06-02T09:12:16-07:00,1.4473969936371,4,versionC_stim.csv,READVersionD.csv,"Read Version D","Dissertation, read only version D",EAT,DINE,Study2,B,111,120,Study,User,-,,Study/JOL,"Study Phase",1110,,,-1,-1,,,,1
5d559b344171570017abe563,0avfqw2i1x,Nick_Dissertation_EX1,1,54,2020-06-02T09:12:18-07:00,2.1416101455688,4,versionC_stim.csv,READVersionD.csv,"Read Version D","Dissertation, read only version D",SHAVE,RAZOR,Study2,S,136,166,Study,User,-,,Study/JOL,"Study Phase",1847,,,-1,-1,,,,1
5d559b344171570017abe563,0avfqw2i1x,Nick_Dissertation_EX1,1,55,2020-06-02T09:12:21-07:00,2.5976860523224,4,versionC_stim.csv,READVersionD.csv,"Read Version D","Dissertation, read only version D",PAPER,DOCUMENT,Study2,B,109,148,Study,User,-,,Study/JOL,"Study Phase",2275,,,-1,-1,,,,1
5d559b344171570017abe563,0avfqw2i1x,Nick_Dissertation_EX1,1,56,2020-06-02T09:12:24-07:00,3.0601978302002,4,versionC_stim.csv,READVersionD.csv,"Read Version D","Dissertation, read only version D",ABLE,CRACKLE,Study2,U,162,176,Study,User,-,,Study/JOL,"Study Phase",2735,,,-1,-1,,,,1
5d559b344171570017abe563,0avfqw2i1x,Nick_Dissertation_EX1,1,57,2020-06-02T09:12:29-07:00,5.0159051418304,4,versionC_stim.csv,READVersionD.csv,"Read Version D","Dissertation, read only version D",ELECTION,MAZE,Study2,U,159,165,Study,User,-,,Study/JOL,"Study Phase",4697,,,-1,-1,,,,1
5d559b344171570017abe563,0avfqw2i1x,Nick_Dissertation_EX1,1,58,2020-06-02T09:12:31-07:00,2.6224758625031,4,versionC_stim.csv,READVersionD.csv,"Read Version D","Dissertation, read only version D",EQUAL,RIGHTS,Study2,S,137,140,Study,User,-,,Study/JOL,"Study Phase",2316,,,-1,-1,,,,1
5d559b344171570017abe563,0avfqw2i1x,Nick_Dissertation_EX1,1,59,2020-06-02T09:12:33-07:00,2.0357301235199,4,versionC_stim.csv,READVersionD.csv,"Read Version D","Dissertation, read only version D",WINDSHIELD,CAR,Study2,F,117,150,Study,User,-,,Study/JOL,"Study Phase",1715,,,-1,-1,,,,1
5d559b344171570017abe563,0avfqw2i1x,Nick_Dissertation_EX1,1,60,2020-06-02T09:12:51-07:00,17.555399894714,4,versionC_stim.csv,READVersionD.csv,"Read Version D","Dissertation, read only version D",LONELY,ALONE,Study2,S,145,173,Study,User,-,,Study/JOL,"Study Phase",3130,,,-1,-1,,,,1
5d559b344171570017abe563,0avfqw2i1x,Nick_Dissertation_EX1,1,61,2020-06-02T09:13:20-07:00,29.149322032928,4,versionC_stim.csv,READVersionD.csv,"Read Version D","Dissertation, read only version D",NAP,SLEEP,Study2,F,134,122,Study,User,-,,Study/JOL,"Study Phase",28743,,,-1,-1,,,,1
5d559b344171570017abe563,0avfqw2i1x,Nick_Dissertation_EX1,1,62,2020-06-02T09:13:23-07:00,2.3479540348053,4,versionC_stim.csv,READVersionD.csv,"Read Version D","Dissertation, read only version D",FLIP,TURN,Study2,F,116,115,Study,User,-,,Study/JOL,"Study Phase",2038,,,-1,-1,,,,1
5d559b344171570017abe563,0avfqw2i1x,Nick_Dissertation_EX1,1,63,2020-06-02T09:13:27-07:00,4.1304850578308,4,versionC_stim.csv,READVersionD.csv,"Read Version D","Dissertation, read only version D",TIE,SHOELACE,Study2,B,99,152,Study,User,-,,Study/JOL,"Study Phase",3794,,,-1,-1,,,,1
5d559b344171570017abe563,0avfqw2i1x,Nick_Dissertation_EX1,1,64,2020-06-02T09:13:29-07:00,2.6371669769287,4,versionC_stim.csv,READVersionD.csv,"Read Version D","Dissertation, read only version D",GROUND,EARTH,Study2,S,144,157,Study,User,-,,Study/JOL,"Study Phase",2349,,,-1,-1,,,,1
5d559b344171570017abe563,0avfqw2i1x,Nick_Dissertation_EX1,1,65,2020-06-02T09:13:35-07:00,5.4068329334259,4,versionC_stim.csv,READVersionD.csv,"Read Version D","Dissertation, read only version D",HATE,NAME,Study2,U,167,113,Study,User,-,,Study/JOL,"Study Phase",5101,,,-1,-1,,,,1
5d559b344171570017abe563,0avfqw2i1x,Nick_Dissertation_EX1,1,66,2020-06-02T09:13:49-07:00,14.11737203598,4,versionC_stim.csv,READVersionD.csv,"Read Version D","Dissertation, read only version D",TICK,FLEA,Study2,S,151,98,Study,User,-,,Study/JOL,"Study Phase",13726,,,-1,-1,,,,1
5d559b344171570017abe563,0avfqw2i1x,Nick_Dissertation_EX1,1,67,2020-06-02T09:13:50-07:00,1.0047209262848,4,versionC_stim.csv,READVersionD.csv,"Read Version D","Dissertation, read only version D",WAX,CANDLE,Study2,S,139,151,Study,User,-,,Study/JOL,"Study Phase",717,,,-1,-1,,,,1
5d559b344171570017abe563,0avfqw2i1x,Nick_Dissertation_EX1,1,68,2020-06-02T09:13:52-07:00,1.7109971046448,4,versionC_stim.csv,READVersionD.csv,"Read Version D","Dissertation, read only version D",PANTHER,CAT,Study2,F,126,132,Study,User,-,,Study/JOL,"Study Phase",1401,,,-1,-1,,,,1
5d559b344171570017abe563,0avfqw2i1x,Nick_Dissertation_EX1,1,69,2020-06-02T09:13:54-07:00,2.4318590164185,4,versionC_stim.csv,READVersionD.csv,"Read Version D","Dissertation, read only version D",GAME,CLUE,Study2,B,97,147,Study,User,-,,Study/JOL,"Study Phase",2130,,,-1,-1,,,,1
5d559b344171570017abe563,0avfqw2i1x,Nick_Dissertation_EX1,1,70,2020-06-02T09:13:57-07:00,3.2136499881744,4,versionC_stim.csv,READVersionD.csv,"Read Version D","Dissertation, read only version D",SHAKE,Shell,Study2,U,163,128,Study,User,-,,Study/JOL,"Study Phase",2897,,,-1,-1,,,,1
5d559b344171570017abe563,0avfqw2i1x,Nick_Dissertation_EX1,1,71,2020-06-02T09:14:01-07:00,3.8676888942719,4,versionC_stim.csv,READVersionD.csv,"Read Version D","Dissertation, read only version D",HAVE,OWN,Study2,S,153,164,Study,User,-,,Study/JOL,"Study Phase",3549,,,-1,-1,,,,1
5d559b344171570017abe563,0avfqw2i1x,Nick_Dissertation_EX1,1,72,2020-06-02T09:14:05-07:00,3.8766040802002,4,versionC_stim.csv,READVersionD.csv,"Read Version D","Dissertation, read only version D",TRASH,LITTER,Study2,B,103,175,Study,User,-,,Study/JOL,"Study Phase",2574,,,-1,-1,,,,1
5d559b344171570017abe563,0avfqw2i1x,Nick_Dissertation_EX1,1,73,2020-06-02T09:14:08-07:00,3.5384910106659,4,versionC_stim.csv,READVersionD.csv,"Read Version D","Dissertation, read only version D",CHARM,VEHICLE,Study2,U,160,160,Study,User,-,,Study/JOL,"Study Phase",2245,,,-1,-1,,,,1
5d559b344171570017abe563,0avfqw2i1x,Nick_Dissertation_EX1,1,74,2020-06-02T09:14:16-07:00,7.6296148300171,4,versionC_stim.csv,READVersionD.csv,"Read Version D","Dissertation, read only version D",DONKEY,MULE,Study2,B,108,103,Study,User,-,,Study/JOL,"Study Phase",7319,,,-1,-1,,,,1
5d559b344171570017abe563,0avfqw2i1x,Nick_Dissertation_EX1,1,75,2020-06-02T09:14:43-07:00,26.695726156235,4,versionC_stim.csv,READVersionD.csv,"Read Version D","Dissertation, read only version D",SIGN,LOAN,Study2,U,171,162,Study,User,-,,Study/JOL,"Study Phase",26304,,,-1,-1,,,,1
5d559b344171570017abe563,0avfqw2i1x,Nick_Dissertation_EX1,1,76,2020-06-02T09:14:57-07:00,13.722247838974,4,versionC_stim.csv,READVersionD.csv,"Read Version D","Dissertation, read only version D",JOKE,KEYS,Study2,U,165,171,Study,User,-,,Study/JOL,"Study Phase",13306,,,-1,-1,,,,1
5d559b344171570017abe563,0avfqw2i1x,Nick_Dissertation_EX1,1,77,2020-06-02T09:15:01-07:00,4.063618183136,4,versionC_stim.csv,READVersionD.csv,"Read Version D","Dissertation, read only version D",MYSTERY,DETECTIVE,Study2,B,100,145,Study,User,-,,Study/JOL,"Study Phase",3740,,,-1,-1,,,,1
5d559b344171570017abe563,0avfqw2i1x,Nick_Dissertation_EX1,1,78,2020-06-02T09:15:04-07:00,3.2070779800415,4,versionC_stim.csv,READVersionD.csv,"Read Version D","Dissertation, read only version D",CHILDREN,MIRROR,Study2,U,174,107,Study,User,-,,Study/JOL,"Study Phase",2913,,,-1,-1,,,,1
5d559b344171570017abe563,0avfqw2i1x,Nick_Dissertation_EX1,1,79,2020-06-02T09:15:13-07:00,9.3252620697021,4,versionC_stim.csv,READVersionD.csv,"Read Version D","Dissertation, read only version D",TOIL,LEASE,Study2,U,170,170,Study,User,-,,Study/JOL,"Study Phase",7973,,,-1,-1,,,,1
5d559b344171570017abe563,0avfqw2i1x,Nick_Dissertation_EX1,1,80,2020-06-02T09:15:17-07:00,4.1677649021149,4,versionC_stim.csv,READVersionD.csv,"Read Version D","Dissertation, read only version D",OBTAIN,MEAT,Study2,U,161,167,Study,User,-,,Study/JOL,"Study Phase",3834,,,-1,-1,,,,1
5d559b344171570017abe563,0avfqw2i1x,Nick_Dissertation_EX1,1,81,2020-06-02T09:15:23-07:00,5.4909219741821,4,versionC_stim.csv,READVersionD.csv,"Read Version D","Dissertation, read only version D",LOVE,AFFECTION,Study2,B,115,117,Study,User,-,,Study/JOL,"Study Phase",5159,,,-1,-1,,,,1
5d559b344171570017abe563,0avfqw2i1x,Nick_Dissertation_EX1,1,82,2020-06-02T09:15:25-07:00,2.3423800468445,4,versionC_stim.csv,READVersionD.csv,"Read Version D","Dissertation, read only version D",COFFIN,DEAD,Study2,F,128,97,Study,User,-,,Study/JOL,"Study Phase",2019,,,-1,-1,,,,1
5d559b344171570017abe563,0avfqw2i1x,Nick_Dissertation_EX1,1,83,2020-06-02T09:15:26-07:00,1.3526289463043,4,versionC_stim.csv,READVersionD.csv,"Read Version D","Dissertation, read only version D",CLEAR,MOAT,Study2,U,169,169,Study,User,-,,Study/JOL,"Study Phase",1032,,,-1,-1,,,,1
5d559b344171570017abe563,0avfqw2i1x,Nick_Dissertation_EX1,1,84,2020-06-02T09:15:29-07:00,2.095447063446,4,versionC_stim.csv,READVersionD.csv,"Read Version D","Dissertation, read only version D",RED,CHERRY,Study2,B,104,130,Study,User,-,,Study/JOL,"Study Phase",1763,,,-1,-1,,,,1
5d559b344171570017abe563,0avfqw2i1x,Nick_Dissertation_EX1,1,85,2020-06-02T09:15:31-07:00,2.6133649349213,4,versionC_stim.csv,READVersionD.csv,"Read Version D","Dissertation, read only version D",MAROON,JUSTICE,Study2,U,156,110,Study,User,-,,Study/JOL,"Study Phase",2322,,,-1,-1,,,,1
5d559b344171570017abe563,0avfqw2i1x,Nick_Dissertation_EX1,1,86,2020-06-02T09:15:40-07:00,8.8617091178894,4,versionC_stim.csv,READVersionD.csv,"Read Version D","Dissertation, read only version D",CARBON,ELEMENT,Study2,S,141,100,Study,User,-,,Study/JOL,"Study Phase",8551,,,-1,-1,,,,1
5d559b344171570017abe563,0avfqw2i1x,Nick_Dissertation_EX1,1,87,2020-06-02T09:15:42-07:00,1.985780954361,4,versionC_stim.csv,READVersionD.csv,"Read Version D","Dissertation, read only version D",MARCH,SPRING,BUFFER4,Buffer,179,177,Study,User,-,,Study/JOL,BUFFER2,1669,,,-1,-1,,,,1
5d559b344171570017abe563,0avfqw2i1x,Nick_Dissertation_EX1,1,88,2020-06-02T09:15:46-07:00,3.5190949440002,4,versionC_stim.csv,READVersionD.csv,"Read Version D","Dissertation, read only version D",SHED,TOOL,BUFFER4,Buffer,178,178,Study,User,-,,Study/JOL,BUFFER2,3217,,,-1,-1,,,,1
5d559b344171570017abe563,0avfqw2i1x,Nick_Dissertation_EX1,1,89,2020-06-02T09:15:52-07:00,6.6933810710907,4,versionC_stim.csv,READVersionD.csv,"Read Version D","Dissertation, read only version D",WEAKS,DAYS,BUFFER4,Buffer,176,180,Study,User,-,,Study/JOL,BUFFER2,6361,,,-1,-1,,,,1
5d559b344171570017abe563,0avfqw2i1x,Nick_Dissertation_EX1,1,90,2020-06-02T09:15:56-07:00,3.373037815094,4,versionC_stim.csv,READVersionD.csv,"Read Version D","Dissertation, read only version D",YEAR,MONTH,BUFFER4,Buffer,177,179,Study,User,-,,Study/JOL,BUFFER2,3043,,,-1,-1,,,,1
5d559b344171570017abe563,0avfqw2i1x,Nick_Dissertation_EX1,1,91,2020-06-02T09:15:58-07:00,2.2830100059509,4,versionC_stim.csv,READVersionD.csv,"Read Version D","Dissertation, read only version D",SPOOKY,OCTOBER,BUFFER4,Buffer,180,181,Study,User,-,,Study/JOL,BUFFER2,1951,,,-1,-1,,,,1
5d559b344171570017abe563,0avfqw2i1x,Nick_Dissertation_EX1,1,92,2020-06-02T09:16:01-07:00,2.9971330165863,4,versionC_stim.csv,READVersionD.csv,"Read Version D","Dissertation, read only version D",,,,,,0,Instruct,User,-,"You have completed this section. Please press Enter.",Filler_Instruction,Instruct2,2710,,,-1,-1,,,,1
5d559b344171570017abe563,0avfqw2i1x,Nick_Dissertation_EX1,1,93,2020-06-02T09:18:01-07:00,120.44152402878,4,versionC_stim.csv,READVersionD.csv,"Read Version D","Dissertation, read only version D",,,,,,0,FreeRecall,120,120,"Please list the 50 US states in alphabetical order. The task will automatically advance to the next screen after two minutes.",,Filler1,120003,"Alabama Alaska Arkansas California Delaware Florida Georgia Idaho ",0,12312,107776,0,0,,0.99
5d559b344171570017abe563,0avfqw2i1x,Nick_Dissertation_EX1,1,94,2020-06-02T09:18:13-07:00,12.022951126099,4,versionC_stim.csv,READVersionD.csv,"Read Version D","Dissertation, read only version D",,,,,,0,Instruct,-,10,"You will now be presented with the first word from each of the previously studied item pairs. Please type the missing word. If you do not know the word, you may guess or press Enter to skip forward to the next pair.",,Instruct3,11620,,,-1,-1,,,,1
5d559b344171570017abe563,0avfqw2i1x,Nick_Dissertation_EX1,1,95,2020-06-02T09:18:19-07:00,5.3255250453949,4,versionC_stim.csv,READVersionD.csv,"Read Version D","Dissertation, read only version D",BANKER,MONEY,Study2,F,132,149,Test,User,-,,Recall,Recall1,4984,FUNNY,40,1854,4657,0,0,,1
5d559b344171570017abe563,0avfqw2i1x,Nick_Dissertation_EX1,1,96,2020-06-02T09:18:21-07:00,1.887503862381,4,versionC_stim.csv,READVersionD.csv,"Read Version D","Dissertation, read only version D",HATE,NAME,Study2,U,167,113,Test,User,-,,Recall,Recall1,1562,LOVE,25,1103,1422,0,0,,1
5d559b344171570017abe563,0avfqw2i1x,Nick_Dissertation_EX1,1,97,2020-06-02T09:18:27-07:00,6.0818259716034,4,versionC_stim.csv,READVersionD.csv,"Read Version D","Dissertation, read only version D",LONG,EXTENSION,Study2,B,96,143,Test,User,-,,Recall,Recall1,5754,,0,-1,-1,0,0,,1
5d559b344171570017abe563,0avfqw2i1x,Nick_Dissertation_EX1,1,98,2020-06-02T09:18:29-07:00,2.4428989887238,4,versionC_stim.csv,READVersionD.csv,"Read Version D","Dissertation, read only version D",WET,DRY,Study2,S,146,101,Test,User,-,,Recall,Recall1,2102,DRY,100,1461,1765,1,1,,1
5d559b344171570017abe563,0avfqw2i1x,Nick_Dissertation_EX1,1,99,2020-06-02T09:18:33-07:00,4.279806137085,4,versionC_stim.csv,READVersionD.csv,"Read Version D","Dissertation, read only version D",CLOTHES,CAKE,Study2,U,166,119,Test,User,-,,Recall,Recall1,3955,,0,-1,-1,0,0,,1
5d559b344171570017abe563,0avfqw2i1x,Nick_Dissertation_EX1,1,100,2020-06-02T09:18:37-07:00,3.9997398853302,4,versionC_stim.csv,READVersionD.csv,"Read Version D","Dissertation, read only version D",Morning,TEMPERATURE,Study2,U,173,168,Test,User,-,,Recall,Recall1,3660,NIGHT,12.5,3099,3550,0,0,,1
5d559b344171570017abe563,0avfqw2i1x,Nick_Dissertation_EX1,1,101,2020-06-02T09:18:39-07:00,1.7222759723663,4,versionC_stim.csv,READVersionD.csv,"Read Version D","Dissertation, read only version D",OUNCE,BOTH,Study2,U,172,125,Test,User,-,,Recall,Recall1,1404,,0,-1,-1,0,0,,1
5d559b344171570017abe563,0avfqw2i1x,Nick_Dissertation_EX1,1,102,2020-06-02T09:18:41-07:00,1.8419160842896,4,versionC_stim.csv,READVersionD.csv,"Read Version D","Dissertation, read only version D",ACTRESS,STAR,Study2,F,120,136,Test,User,-,,Recall,Recall1,1499,STAR,100,938,1313,1,1,,1
5d559b344171570017abe563,0avfqw2i1x,Nick_Dissertation_EX1,1,103,2020-06-02T09:18:43-07:00,1.7785658836365,4,versionC_stim.csv,READVersionD.csv,"Read Version D","Dissertation, read only version D",SIGN,LOAN,Study2,U,171,162,Test,User,-,,Recall,Recall1,1449,,0,-1,-1,0,0,,1
5d559b344171570017abe563,0avfqw2i1x,Nick_Dissertation_EX1,1,104,2020-06-02T09:18:48-07:00,5.7678651809692,4,versionC_stim.csv,READVersionD.csv,"Read Version D","Dissertation, read only version D",DRINK,WATER,Study2,S,143,99,Test,User,-,,Recall,Recall1,5350,,0,-1,-1,0,0,,1
5d559b344171570017abe563,0avfqw2i1x,Nick_Dissertation_EX1,1,105,2020-06-02T09:18:50-07:00,1.1609408855438,4,versionC_stim.csv,READVersionD.csv,"Read Version D","Dissertation, read only version D",CAR,DRIVER,Study2,B,106,155,Test,User,-,,Recall,Recall1,841,,0,-1,-1,0,0,,1
5d559b344171570017abe563,0avfqw2i1x,Nick_Dissertation_EX1,1,106,2020-06-02T09:18:52-07:00,2.7731521129608,4,versionC_stim.csv,READVersionD.csv,"Read Version D","Dissertation, read only version D",CLOTH,STRETCH,Study2,U,157,118,Test,User,-,,Recall,Recall1,2433,STRETCH,100,870,2189,1,1,,1
5d559b344171570017abe563,0avfqw2i1x,Nick_Dissertation_EX1,1,107,2020-06-02T09:18:59-07:00,6.3940198421478,4,versionC_stim.csv,READVersionD.csv,"Read Version D","Dissertation, read only version D",LIE,TRUTH,Study2,S,148,116,Test,User,-,,Recall,Recall1,6057,TRUTH,100,1328,5812,1,1,,1
5d559b344171570017abe563,0avfqw2i1x,Nick_Dissertation_EX1,1,108,2020-06-02T09:19:00-07:00,1.3821351528168,4,versionC_stim.csv,READVersionD.csv,"Read Version D","Dissertation, read only version D",RED,CHERRY,Study2,B,104,130,Test,User,-,,Recall,Recall1,1060,,0,-1,-1,0,0,,1
5d559b344171570017abe563,0avfqw2i1x,Nick_Dissertation_EX1,1,109,2020-06-02T09:19:01-07:00,1.1119639873505,4,versionC_stim.csv,READVersionD.csv,"Read Version D","Dissertation, read only version D",FLIP,TURN,Study2,F,116,115,Test,User,-,,Recall,Recall1,800,,0,-1,-1,0,0,,1
5d559b344171570017abe563,0avfqw2i1x,Nick_Dissertation_EX1,1,110,2020-06-02T09:19:03-07:00,1.7139029502869,4,versionC_stim.csv,READVersionD.csv,"Read Version D","Dissertation, read only version D",LOVE,AFFECTION,Study2,B,115,117,Test,User,-,,Recall,Recall1,1386,HATE,30.769230769231,969,1287,0,0,,1
5d559b344171570017abe563,0avfqw2i1x,Nick_Dissertation_EX1,1,111,2020-06-02T09:19:05-07:00,1.8535289764404,4,versionC_stim.csv,READVersionD.csv,"Read Version D","Dissertation, read only version D",HEAD,SCALP,Study2,B,105,102,Test,User,-,,Recall,Recall1,1526,,0,-1,-1,0,0,,1
5d559b344171570017abe563,0avfqw2i1x,Nick_Dissertation_EX1,1,112,2020-06-02T09:19:07-07:00,1.8645079135895,4,versionC_stim.csv,READVersionD.csv,"Read Version D","Dissertation, read only version D",JAR,MASON,Study2,S,138,112,Test,User,-,,Recall,Recall1,1528,MASON,100,928,1309,1,1,,1
5d559b344171570017abe563,0avfqw2i1x,Nick_Dissertation_EX1,1,113,2020-06-02T09:19:08-07:00,1.3568170070648,4,versionC_stim.csv,READVersionD.csv,"Read Version D","Dissertation, read only version D",TOIL,LEASE,Study2,U,170,170,Test,User,-,,Recall,Recall1,1037,,0,-1,-1,0,0,,1
5d559b344171570017abe563,0avfqw2i1x,Nick_Dissertation_EX1,1,114,2020-06-02T09:19:32-07:00,23.604748010635,4,versionC_stim.csv,READVersionD.csv,"Read Version D","Dissertation, read only version D",REVENGE,EVEN,Study2,F,122,108,Test,User,-,,Recall,Recall1,23195,,0,-1,-1,0,0,,1
5d559b344171570017abe563,0avfqw2i1x,Nick_Dissertation_EX1,1,115,2020-06-02T09:19:35-07:00,3.3825531005859,4,versionC_stim.csv,READVersionD.csv,"Read Version D","Dissertation, read only version D",END,ADJOURN,Study2,B,101,144,Test,User,-,,Recall,Recall1,2050,,0,-1,-1,0,0,,1
5d559b344171570017abe563,0avfqw2i1x,Nick_Dissertation_EX1,1,116,2020-06-02T09:19:38-07:00,2.678365945816,4,versionC_stim.csv,READVersionD.csv,"Read Version D","Dissertation, read only version D",SEATBELT,SAFETY,Study2,S,147,161,Test,User,-,,Recall,Recall1,2365,SAFTETY,92.307692307692,1043,2145,0,1,,1
5d559b344171570017abe563,0avfqw2i1x,Nick_Dissertation_EX1,1,117,2020-06-02T09:19:39-07:00,1.223904132843,4,versionC_stim.csv,READVersionD.csv,"Read Version D","Dissertation, read only version D",CHARM,VEHICLE,Study2,U,160,160,Test,User,-,,Recall,Recall1,904,,0,-1,-1,0,0,,1
5d559b344171570017abe563,0avfqw2i1x,Nick_Dissertation_EX1,1,118,2020-06-02T09:19:40-07:00,1.2425019741058,4,versionC_stim.csv,READVersionD.csv,"Read Version D","Dissertation, read only version D",CHILDREN,MIRROR,Study2,U,174,107,Test,User,-,,Recall,Recall1,909,,0,-1,-1,0,0,,1
5d559b344171570017abe563,0avfqw2i1x,Nick_Dissertation_EX1,1,119,2020-06-02T09:19:44-07:00,3.8155229091644,4,versionC_stim.csv,READVersionD.csv,"Read Version D","Dissertation, read only version D",PAPER,DOCUMENT,Study2,B,109,148,Test,User,-,,Recall,Recall1,3466,TRAIL,15.384615384615,1879,3218,0,0,,1
5d559b344171570017abe563,0avfqw2i1x,Nick_Dissertation_EX1,1,120,2020-06-02T09:19:45-07:00,1.3214190006256,4,versionC_stim.csv,READVersionD.csv,"Read Version D","Dissertation, read only version D",SCAR,MAIN,Study2,U,175,138,Test,User,-,,Recall,Recall1,980,,0,-1,-1,0,0,,1
5d559b344171570017abe563,0avfqw2i1x,Nick_Dissertation_EX1,1,121,2020-06-02T09:19:48-07:00,2.3281569480896,4,versionC_stim.csv,READVersionD.csv,"Read Version D","Dissertation, read only version D",DOG,FURRY,Study2,B,102,159,Test,User,-,,Recall,Recall1,1980,FUZZY,60,872,1731,0,0,,1
5d559b344171570017abe563,0avfqw2i1x,Nick_Dissertation_EX1,1,122,2020-06-02T09:19:49-07:00,1.2831680774689,4,versionC_stim.csv,READVersionD.csv,"Read Version D","Dissertation, read only version D",FIGHT,FEUD,Study2,B,113,137,Test,User,-,,Recall,Recall1,944,,0,-1,-1,0,0,,1
5d559b344171570017abe563,0avfqw2i1x,Nick_Dissertation_EX1,1,123,2020-06-02T09:19:50-07:00,1.0604400634766,4,versionC_stim.csv,READVersionD.csv,"Read Version D","Dissertation, read only version D",WAX,CANDLE,Study2,S,139,151,Test,User,-,,Recall,Recall1,737,,0,-1,-1,0,0,,1
5d559b344171570017abe563,0avfqw2i1x,Nick_Dissertation_EX1,1,124,2020-06-02T09:19:51-07:00,1.1291618347168,4,versionC_stim.csv,READVersionD.csv,"Read Version D","Dissertation, read only version D",EAT,DINE,Study2,B,111,120,Test,User,-,,Recall,Recall1,799,,0,-1,-1,0,0,,1
5d559b344171570017abe563,0avfqw2i1x,Nick_Dissertation_EX1,1,125,2020-06-02T09:20:13-07:00,21.38209605217,4,versionC_stim.csv,READVersionD.csv,"Read Version D","Dissertation, read only version D",FICTION,LISTEN,Study2,U,164,163,Test,User,-,,Recall,Recall1,20958,STORY,36.363636363636,14408,20729,0,0,,1
5d559b344171570017abe563,0avfqw2i1x,Nick_Dissertation_EX1,1,126,2020-06-02T09:20:14-07:00,1.8349170684814,4,versionC_stim.csv,READVersionD.csv,"Read Version D","Dissertation, read only version D",FAVORITE,BEST,Study2,F,125,139,Test,User,-,,Recall,Recall1,1521,BEST,100,1027,1323,1,1,,1
5d559b344171570017abe563,0avfqw2i1x,Nick_Dissertation_EX1,1,127,2020-06-02T09:20:16-07:00,1.1296830177307,4,versionC_stim.csv,READVersionD.csv,"Read Version D","Dissertation, read only version D",MYSTERY,DETECTIVE,Study2,B,100,145,Test,User,-,,Recall,Recall1,804,,0,-1,-1,0,0,,1
5d559b344171570017abe563,0avfqw2i1x,Nick_Dissertation_EX1,1,128,2020-06-02T09:20:19-07:00,3.2132799625397,4,versionC_stim.csv,READVersionD.csv,"Read Version D","Dissertation, read only version D",TICK,FLEA,Study2,S,151,98,Test,User,-,,Recall,Recall1,2880,FLEA,100,2262,2625,1,1,,1
5d559b344171570017abe563,0avfqw2i1x,Nick_Dissertation_EX1,1,129,2020-06-02T09:20:20-07:00,1.3048810958862,4,versionC_stim.csv,READVersionD.csv,"Read Version D","Dissertation, read only version D",COMMUNICATION,PHONE,Study2,S,149,129,Test,User,-,,Recall,Recall1,964,,0,-1,-1,0,0,,1
5d559b344171570017abe563,0avfqw2i1x,Nick_Dissertation_EX1,1,130,2020-06-02T09:20:22-07:00,2.258425951004,4,versionC_stim.csv,READVersionD.csv,"Read Version D","Dissertation, read only version D",BRACELET,WRIST,Study2,S,140,133,Test,User,-,,Recall,Recall1,1905,WRIST,100,926,1760,1,1,,1
5d559b344171570017abe563,0avfqw2i1x,Nick_Dissertation_EX1,1,131,2020-06-02T09:20:23-07:00,1.1653718948364,4,versionC_stim.csv,READVersionD.csv,"Read Version D","Dissertation, read only version D",DONKEY,MULE,Study2,B,108,103,Test,User,-,,Recall,Recall1,845,,0,-1,-1,0,0,,1
5d559b344171570017abe563,0avfqw2i1x,Nick_Dissertation_EX1,1,132,2020-06-02T09:20:25-07:00,1.1824090480804,4,versionC_stim.csv,READVersionD.csv,"Read Version D","Dissertation, read only version D",AIRCRAFT,PLANE,Study2,F,129,142,Test,User,-,,Recall,Recall1,860,,0,-1,-1,0,0,,1
5d559b344171570017abe563,0avfqw2i1x,Nick_Dissertation_EX1,1,133,2020-06-02T09:20:26-07:00,1.7169649600983,4,versionC_stim.csv,READVersionD.csv,"Read Version D","Dissertation, read only version D",LONELY,ALONE,Study2,S,145,173,Test,User,-,,Recall,Recall1,1370,,0,-1,-1,0,0,,1
5d559b344171570017abe563,0avfqw2i1x,Nick_Dissertation_EX1,1,134,2020-06-02T09:20:29-07:00,2.6185600757599,4,versionC_stim.csv,READVersionD.csv,"Read Version D","Dissertation, read only version D",STEAK,GIVE,Study2,U,158,158,Test,User,-,,Recall,Recall1,2280,,0,-1,-1,0,0,,1
5d559b344171570017abe563,0avfqw2i1x,Nick_Dissertation_EX1,1,135,2020-06-02T09:20:32-07:00,3.5314829349518,4,versionC_stim.csv,READVersionD.csv,"Read Version D","Dissertation, read only version D",AWAY,GONE,Study2,S,142,114,Test,User,-,,Recall,Recall1,3194,GONE,100,1669,3060,1,1,,1
5d559b344171570017abe563,0avfqw2i1x,Nick_Dissertation_EX1,1,136,2020-06-02T09:20:34-07:00,1.4510669708252,4,versionC_stim.csv,READVersionD.csv,"Read Version D","Dissertation, read only version D",BANG,FUZZY,Study2,U,168,105,Test,User,-,,Recall,Recall1,1111,,0,-1,-1,0,0,,1
5d559b344171570017abe563,0avfqw2i1x,Nick_Dissertation_EX1,1,137,2020-06-02T09:20:35-07:00,1.307028055191,4,versionC_stim.csv,READVersionD.csv,"Read Version D","Dissertation, read only version D",SMELL,INCENSE,Study2,B,110,156,Test,User,-,,Recall,Recall1,962,,0,-1,-1,0,0,,1
5d559b344171570017abe563,0avfqw2i1x,Nick_Dissertation_EX1,1,138,2020-06-02T09:20:36-07:00,1.2072811126709,4,versionC_stim.csv,READVersionD.csv,"Read Version D","Dissertation, read only version D",CARBON,ELEMENT,Study2,S,141,100,Test,User,-,,Recall,Recall1,887,,0,-1,-1,0,0,,1
5d559b344171570017abe563,0avfqw2i1x,Nick_Dissertation_EX1,1,139,2020-06-02T09:20:38-07:00,1.1649808883667,4,versionC_stim.csv,READVersionD.csv,"Read Version D","Dissertation, read only version D",REEL,ROD,Study2,S,150,134,Test,User,-,,Recall,Recall1,829,,0,-1,-1,0,0,,1
5d559b344171570017abe563,0avfqw2i1x,Nick_Dissertation_EX1,1,140,2020-06-02T09:20:41-07:00,3.3800129890442,4,versionC_stim.csv,READVersionD.csv,"Read Version D","Dissertation, read only version D",STRAWBERRY,FRUIT,Study2,F,124,146,Test,User,-,,Recall,Recall1,3035,FRUIT,100,974,1700,1,1,,1
5d559b344171570017abe563,0avfqw2i1x,Nick_Dissertation_EX1,1,141,2020-06-02T09:20:43-07:00,2.2642750740051,4,versionC_stim.csv,READVersionD.csv,"Read Version D","Dissertation, read only version D",SHAVE,RAZOR,Study2,S,136,166,Test,User,-,,Recall,Recall1,1855,,0,-1,-1,0,0,,1
5d559b344171570017abe563,0avfqw2i1x,Nick_Dissertation_EX1,1,142,2020-06-02T09:20:45-07:00,1.4046969413757,4,versionC_stim.csv,READVersionD.csv,"Read Version D","Dissertation, read only version D",OBTAIN,MEAT,Study2,U,161,167,Test,User,-,,Recall,Recall1,1080,,0,-1,-1,0,0,,1
5d559b344171570017abe563,0avfqw2i1x,Nick_Dissertation_EX1,1,143,2020-06-02T09:20:47-07:00,2.1430840492249,4,versionC_stim.csv,READVersionD.csv,"Read Version D","Dissertation, read only version D",NOISE,LOUD,Study2,S,152,109,Test,User,-,,Recall,Recall1,1808,LOUD,100,1045,1664,1,1,,1
5d559b344171570017abe563,0avfqw2i1x,Nick_Dissertation_EX1,1,144,2020-06-02T09:20:49-07:00,2.0980899333954,4,versionC_stim.csv,READVersionD.csv,"Read Version D","Dissertation, read only version D",COLD,CHILL,Study2,B,114,172,Test,User,-,,Recall,Recall1,1778,HOT,25,1365,1542,0,0,,1
5d559b344171570017abe563,0avfqw2i1x,Nick_Dissertation_EX1,1,145,2020-06-02T09:20:51-07:00,2.2893071174622,4,versionC_stim.csv,READVersionD.csv,"Read Version D","Dissertation, read only version D",COFFIN,DEAD,Study2,F,128,97,Test,User,-,,Recall,Recall1,1874,DEAD,100,1218,1664,1,1,,1
5d559b344171570017abe563,0avfqw2i1x,Nick_Dissertation_EX1,1,146,2020-06-02T09:20:54-07:00,2.6032259464264,4,versionC_stim.csv,READVersionD.csv,"Read Version D","Dissertation, read only version D",PENGUIN,BIRD,Study2,F,119,154,Test,User,-,,Recall,Recall1,2173,,0,1030,1030,0,0,,1
5d559b344171570017abe563,0avfqw2i1x,Nick_Dissertation_EX1,1,147,2020-06-02T09:20:55-07:00,1.2206299304962,4,versionC_stim.csv,READVersionD.csv,"Read Version D","Dissertation, read only version D",BREAKABLE,GLASS,Study2,F,127,123,Test,User,-,,Recall,Recall1,892,,0,-1,-1,0,0,,1
5d559b344171570017abe563,0avfqw2i1x,Nick_Dissertation_EX1,1,148,2020-06-02T09:20:56-07:00,1.40403008461,4,versionC_stim.csv,READVersionD.csv,"Read Version D","Dissertation, read only version D",CUT,CHOP,Study2,B,107,111,Test,User,-,,Recall,Recall1,1072,,0,-1,-1,0,0,,1
5d559b344171570017abe563,0avfqw2i1x,Nick_Dissertation_EX1,1,149,2020-06-02T09:21:00-07:00,3.2413778305054,4,versionC_stim.csv,READVersionD.csv,"Read Version D","Dissertation, read only version D",TRUTHFUL,HONEST,Study2,F,133,126,Test,User,-,,Recall,Recall1,2911,HONESTY,92.307692307692,1962,2685,0,1,,1
5d559b344171570017abe563,0avfqw2i1x,Nick_Dissertation_EX1,1,150,2020-06-02T09:21:01-07:00,1.0744771957397,4,versionC_stim.csv,READVersionD.csv,"Read Version D","Dissertation, read only version D",LEAGUE,BASEBALL,Study2,F,131,135,Test,User,-,,Recall,Recall1,730,,0,-1,-1,0,0,,1
5d559b344171570017abe563,0avfqw2i1x,Nick_Dissertation_EX1,1,151,2020-06-02T09:21:04-07:00,3.2331290245056,4,versionC_stim.csv,READVersionD.csv,"Read Version D","Dissertation, read only version D",TEMPER,TANTRUM,Study2,S,154,127,Test,User,-,,Recall,Recall1,2886,,0,-1,-1,0,0,,1
5d559b344171570017abe563,0avfqw2i1x,Nick_Dissertation_EX1,1,152,2020-06-02T09:21:05-07:00,1.1602828502655,4,versionC_stim.csv,READVersionD.csv,"Read Version D","Dissertation, read only version D",BRAWL,FIGHT,Study2,F,135,104,Test,User,-,,Recall,Recall1,815,,0,-1,-1,0,0,,1
5d559b344171570017abe563,0avfqw2i1x,Nick_Dissertation_EX1,1,153,2020-06-02T09:21:06-07:00,1.1348171234131,4,versionC_stim.csv,READVersionD.csv,"Read Version D","Dissertation, read only version D",SARDINE,FISH,Study2,F,130,174,Test,User,-,,Recall,Recall1,798,,0,-1,-1,0,0,,1
5d559b344171570017abe563,0avfqw2i1x,Nick_Dissertation_EX1,1,154,2020-06-02T09:21:07-07:00,1.075670003891,4,versionC_stim.csv,READVersionD.csv,"Read Version D","Dissertation, read only version D",ELECTION,MAZE,Study2,U,159,165,Test,User,-,,Recall,Recall1,768,,0,-1,-1,0,0,,1
5d559b344171570017abe563,0avfqw2i1x,Nick_Dissertation_EX1,1,155,2020-06-02T09:21:08-07:00,1.0766408443451,4,versionC_stim.csv,READVersionD.csv,"Read Version D","Dissertation, read only version D",JOKE,KEYS,Study2,U,165,171,Test,User,-,,Recall,Recall1,743,,0,-1,-1,0,0,,1
5d559b344171570017abe563,0avfqw2i1x,Nick_Dissertation_EX1,1,156,2020-06-02T09:21:12-07:00,3.8596470355988,4,versionC_stim.csv,READVersionD.csv,"Read Version D","Dissertation, read only version D",HAVE,OWN,Study2,S,153,164,Test,User,-,,Recall,Recall1,3529,,0,-1,-1,0,0,,1
5d559b344171570017abe563,0avfqw2i1x,Nick_Dissertation_EX1,1,157,2020-06-02T09:21:13-07:00,0.97579503059387,4,versionC_stim.csv,READVersionD.csv,"Read Version D","Dissertation, read only version D",GROUND,EARTH,Study2,S,144,157,Test,User,-,,Recall,Recall1,648,,0,-1,-1,0,0,,1
5d559b344171570017abe563,0avfqw2i1x,Nick_Dissertation_EX1,1,158,2020-06-02T09:21:14-07:00,1.1400310993195,4,versionC_stim.csv,READVersionD.csv,"Read Version D","Dissertation, read only version D",MAROON,JUSTICE,Study2,U,156,110,Test,User,-,,Recall,Recall1,789,,0,-1,-1,0,0,,1
5d559b344171570017abe563,0avfqw2i1x,Nick_Dissertation_EX1,1,159,2020-06-02T09:21:15-07:00,1.0799889564514,4,versionC_stim.csv,READVersionD.csv,"Read Version D","Dissertation, read only version D",THIMBLE,THREAD,Study2,F,121,153,Test,User,-,,Recall,Recall1,749,,0,-1,-1,0,0,,1
5d559b344171570017abe563,0avfqw2i1x,Nick_Dissertation_EX1,1,160,2020-06-02T09:21:18-07:00,2.6093699932098,4,versionC_stim.csv,READVersionD.csv,"Read Version D","Dissertation, read only version D",SCISSORS,SHEARS,Study2,B,112,141,Test,User,-,,Recall,Recall1,2295,SHEARS,100,1462,2132,1,1,,1
5d559b344171570017abe563,0avfqw2i1x,Nick_Dissertation_EX1,1,161,2020-06-02T09:21:26-07:00,8.2162308692932,4,versionC_stim.csv,READVersionD.csv,"Read Version D","Dissertation, read only version D",SHAKE,Shell,Study2,U,163,128,Test,User,-,,Recall,Recall1,7880,,0,-1,-1,0,0,,1
5d559b344171570017abe563,0avfqw2i1x,Nick_Dissertation_EX1,1,162,2020-06-02T09:21:29-07:00,2.3531851768494,4,versionC_stim.csv,READVersionD.csv,"Read Version D","Dissertation, read only version D",WINDSHIELD,CAR,Study2,F,117,150,Test,User,-,,Recall,Recall1,1007,,0,-1,-1,0,0,,1
5d559b344171570017abe563,0avfqw2i1x,Nick_Dissertation_EX1,1,163,2020-06-02T09:21:30-07:00,1.1091418266296,4,versionC_stim.csv,READVersionD.csv,"Read Version D","Dissertation, read only version D",TRASH,LITTER,Study2,B,103,175,Test,User,-,,Recall,Recall1,787,,0,-1,-1,0,0,,1
5d559b344171570017abe563,0avfqw2i1x,Nick_Dissertation_EX1,1,164,2020-06-02T09:21:32-07:00,2.6306130886078,4,versionC_stim.csv,READVersionD.csv,"Read Version D","Dissertation, read only version D",PANTHER,CAT,Study2,F,126,132,Test,User,-,,Recall,Recall1,2310,BLACK,25,1502,2099,0,0,,1
5d559b344171570017abe563,0avfqw2i1x,Nick_Dissertation_EX1,1,165,2020-06-02T09:21:35-07:00,2.6237308979034,4,versionC_stim.csv,READVersionD.csv,"Read Version D","Dissertation, read only version D",VILLAIN,BAD,Study2,F,118,131,Test,User,-,,Recall,Recall1,1282,,0,-1,-1,0,0,,1
5d559b344171570017abe563,0avfqw2i1x,Nick_Dissertation_EX1,1,166,2020-06-02T09:21:36-07:00,0.94931221008301,4,versionC_stim.csv,READVersionD.csv,"Read Version D","Dissertation, read only version D",NAP,SLEEP,Study2,F,134,122,Test,User,-,,Recall,Recall1,614,,0,-1,-1,0,0,,1
5d559b344171570017abe563,0avfqw2i1x,Nick_Dissertation_EX1,1,167,2020-06-02T09:21:38-07:00,1.7411708831787,4,versionC_stim.csv,READVersionD.csv,"Read Version D","Dissertation, read only version D",TAN,SUN,Study2,S,155,124,Test,User,-,,Recall,Recall1,1391,SUN,100,921,1188,1,1,,1
5d559b344171570017abe563,0avfqw2i1x,Nick_Dissertation_EX1,1,168,2020-06-02T09:21:39-07:00,1.1641850471497,4,versionC_stim.csv,READVersionD.csv,"Read Version D","Dissertation, read only version D",GAME,CLUE,Study2,B,97,147,Test,User,-,,Recall,Recall1,818,,0,-1,-1,0,0,,1
5d559b344171570017abe563,0avfqw2i1x,Nick_Dissertation_EX1,1,169,2020-06-02T09:21:49-07:00,9.6595299243927,4,versionC_stim.csv,READVersionD.csv,"Read Version D","Dissertation, read only version D",BALLOON,POP,Study2,F,123,121,Test,User,-,,Recall,Recall1,9242,TEMPERATURE,14.285714285714,2950,9055,0,0,,1
5d559b344171570017abe563,0avfqw2i1x,Nick_Dissertation_EX1,1,170,2020-06-02T09:21:52-07:00,3.1749761104584,4,versionC_stim.csv,READVersionD.csv,"Read Version D","Dissertation, read only version D",ABLE,CRACKLE,Study2,U,162,176,Test,User,-,,Recall,Recall1,2833,,0,-1,-1,0,0,,1
5d559b344171570017abe563,0avfqw2i1x,Nick_Dissertation_EX1,1,171,2020-06-02T09:21:53-07:00,0.98215484619141,4,versionC_stim.csv,READVersionD.csv,"Read Version D","Dissertation, read only version D",CLEAR,MOAT,Study2,U,169,169,Test,User,-,,Recall,Recall1,637,,0,-1,-1,0,0,,1
5d559b344171570017abe563,0avfqw2i1x,Nick_Dissertation_EX1,1,172,2020-06-02T09:21:54-07:00,1.6162061691284,4,versionC_stim.csv,READVersionD.csv,"Read Version D","Dissertation, read only version D",EQUAL,RIGHTS,Study2,S,137,140,Test,User,-,,Recall,Recall1,1285,,0,-1,-1,0,0,,1
5d559b344171570017abe563,0avfqw2i1x,Nick_Dissertation_EX1,1,173,2020-06-02T09:21:55-07:00,1.0012969970703,4,versionC_stim.csv,READVersionD.csv,"Read Version D","Dissertation, read only version D",TIE,SHOELACE,Study2,B,99,152,Test,User,-,,Recall,Recall1,664,,0,-1,-1,0,0,,1
5d559b344171570017abe563,0avfqw2i1x,Nick_Dissertation_EX1,1,174,2020-06-02T09:22:05-07:00,9.6275119781494,4,versionC_stim.csv,READVersionD.csv,"Read Version D","Dissertation, read only version D",PLANT,CACTUS,Study2,B,98,106,Test,User,-,,Recall,Recall1,9211,CACTUS,100,7980,9083,1,1,,1
5d559b344171570017abe563,0avfqw2i1x,Nick_Dissertation_EX1,1,175,2020-06-02T09:23:15-07:00,69.873579978943,4,versionC_stim.csv,READVersionD.csv,"Read Version D","Dissertation, read only version D",,,,,,0,Instruct,-,10,"You will now be presented with a new set of word pairs. Please study each pair. Remember that your memory will be tested! When finished, press Enter to move to the next pair.",Initial_Instruct,Instruct4,69461,,,-1,-1,,,,0.167
5d559b344171570017abe563,0avfqw2i1x,Nick_Dissertation_EX1,1,176,2020-06-02T09:23:18-07:00,3.62979388237,4,versionC_stim.csv,READVersionD.csv,"Read Version D","Dissertation, read only version D",BUTTER,PEANUT,BUFFER1,Buffer,3,4,Study,User,-,,Study/JOL,BUFFER3,3304,,,-1,-1,,,,1
5d559b344171570017abe563,0avfqw2i1x,Nick_Dissertation_EX1,1,177,2020-06-02T09:23:21-07:00,2.2575001716614,4,versionC_stim.csv,READVersionD.csv,"Read Version D","Dissertation, read only version D",HIDE,SCARE,BUFFER1,Buffer,4,2,Study,User,-,,Study/JOL,BUFFER3,1886,,,-1,-1,,,,1
5d559b344171570017abe563,0avfqw2i1x,Nick_Dissertation_EX1,1,178,2020-06-02T09:23:29-07:00,8.1000998020172,4,versionC_stim.csv,READVersionD.csv,"Read Version D","Dissertation, read only version D",GREEN,TREES,BUFFER1,Buffer,1,5,Study,User,-,,Study/JOL,BUFFER3,7609,,,-1,-1,,,,1
5d559b344171570017abe563,0avfqw2i1x,Nick_Dissertation_EX1,1,179,2020-06-02T09:23:38-07:00,8.8637590408325,4,versionC_stim.csv,READVersionD.csv,"Read Version D","Dissertation, read only version D",JAM,SPACE,BUFFER1,Buffer,5,6,Study,User,-,,Study/JOL,BUFFER3,8530,,,-1,-1,,,,1
5d559b344171570017abe563,0avfqw2i1x,Nick_Dissertation_EX1,1,180,2020-06-02T09:23:41-07:00,3.719074010849,4,versionC_stim.csv,READVersionD.csv,"Read Version D","Dissertation, read only version D",CATCHER,BASEBALL,BUFFER1,Buffer,2,3,Study,User,-,,Study/JOL,BUFFER3,3394,,,-1,-1,,,,1
5d559b344171570017abe563,0avfqw2i1x,Nick_Dissertation_EX1,1,181,2020-06-02T09:23:43-07:00,1.960725069046,4,versionC_stim.csv,READVersionD.csv,"Read Version D","Dissertation, read only version D",WATER,BRIDGE,Study1,B,18,84,Study,User,-,,Study/JOL,"Study Phase2",1639,,,-1,-1,,,,1
5d559b344171570017abe563,0avfqw2i1x,Nick_Dissertation_EX1,1,182,2020-06-02T09:23:46-07:00,2.7451040744781,4,versionC_stim.csv,READVersionD.csv,"Read Version D","Dissertation, read only version D",STENCH,SMELL,Study1,F,42,15,Study,User,-,,Study/JOL,"Study Phase2",2424,,,-1,-1,,,,1
5d559b344171570017abe563,0avfqw2i1x,Nick_Dissertation_EX1,1,183,2020-06-02T09:23:48-07:00,2.3495919704437,4,versionC_stim.csv,READVersionD.csv,"Read Version D","Dissertation, read only version D",HUNGRY,PARK,Study1,U,68,16,Study,User,-,,Study/JOL,"Study Phase2",2027,,,-1,-1,,,,1
5d559b344171570017abe563,0avfqw2i1x,Nick_Dissertation_EX1,1,184,2020-06-02T09:23:51-07:00,2.922210931778,4,versionC_stim.csv,READVersionD.csv,"Read Version D","Dissertation, read only version D",DEFINITION,MEANING,Study1,S,62,9,Study,User,-,,Study/JOL,"Study Phase2",2612,,,-1,-1,,,,1
5d559b344171570017abe563,0avfqw2i1x,Nick_Dissertation_EX1,1,185,2020-06-02T09:23:55-07:00,3.7330729961395,4,versionC_stim.csv,READVersionD.csv,"Read Version D","Dissertation, read only version D",DIVISION,MATH,Study1,F,33,62,Study,User,-,,Study/JOL,"Study Phase2",3421,,,-1,-1,,,,1
5d559b344171570017abe563,0avfqw2i1x,Nick_Dissertation_EX1,1,186,2020-06-02T09:23:59-07:00,3.8756999969482,4,versionC_stim.csv,READVersionD.csv,"Read Version D","Dissertation, read only version D",PILOT,PLANE,Study1,F,44,44,Study,User,-,,Study/JOL,"Study Phase2",3551,,,-1,-1,,,,1
5d559b344171570017abe563,0avfqw2i1x,Nick_Dissertation_EX1,1,187,2020-06-02T09:24:02-07:00,3.1797299385071,4,versionC_stim.csv,READVersionD.csv,"Read Version D","Dissertation, read only version D",ATTIRE,CLOTHES,Study1,F,43,47,Study,User,-,,Study/JOL,"Study Phase2",2875,,,-1,-1,,,,1
5d559b344171570017abe563,0avfqw2i1x,Nick_Dissertation_EX1,1,188,2020-06-02T09:24:05-07:00,2.6281549930573,4,versionC_stim.csv,READVersionD.csv,"Read Version D","Dissertation, read only version D",TUCK,ALLOW,Study1,U,78,53,Study,User,-,,Study/JOL,"Study Phase2",2294,,,-1,-1,,,,1
5d559b344171570017abe563,0avfqw2i1x,Nick_Dissertation_EX1,1,189,2020-06-02T09:24:08-07:00,3.0645661354065,4,versionC_stim.csv,READVersionD.csv,"Read Version D","Dissertation, read only version D",WORD,SENTENCE,Study1,F,31,82,Study,User,-,,Study/JOL,"Study Phase2",2727,,,-1,-1,,,,1
5d559b344171570017abe563,0avfqw2i1x,Nick_Dissertation_EX1,1,190,2020-06-02T09:24:13-07:00,4.6648139953613,4,versionC_stim.csv,READVersionD.csv,"Read Version D","Dissertation, read only version D",WOULD,CASH,Study1,U,83,28,Study,User,-,,Study/JOL,"Study Phase2",4341,,,-1,-1,,,,1
5d559b344171570017abe563,0avfqw2i1x,Nick_Dissertation_EX1,1,191,2020-06-02T09:24:16-07:00,3.620512008667,4,versionC_stim.csv,READVersionD.csv,"Read Version D","Dissertation, read only version D",CLEAN,HYGIENE,Study1,B,17,41,Study,User,-,,Study/JOL,"Study Phase2",3308,,,-1,-1,,,,1
5d559b344171570017abe563,0avfqw2i1x,Nick_Dissertation_EX1,1,192,2020-06-02T09:24:25-07:00,9.2447140216827,4,versionC_stim.csv,READVersionD.csv,"Read Version D","Dissertation, read only version D",BRONZE,ARTERY,Study1,U,74,50,Study,User,-,,Study/JOL,"Study Phase2",8921,,,-1,-1,,,,1
5d559b344171570017abe563,0avfqw2i1x,Nick_Dissertation_EX1,1,193,2020-06-02T09:24:28-07:00,2.4607439041138,4,versionC_stim.csv,READVersionD.csv,"Read Version D","Dissertation, read only version D",HAND,FIX,Study1,U,75,18,Study,User,-,,Study/JOL,"Study Phase2",2129,,,-1,-1,,,,1
5d559b344171570017abe563,0avfqw2i1x,Nick_Dissertation_EX1,1,194,2020-06-02T09:24:31-07:00,2.7508609294891,4,versionC_stim.csv,READVersionD.csv,"Read Version D","Dissertation, read only version D",ADD,VALLEY,Study1,U,82,61,Study,User,-,,Study/JOL,"Study Phase2",2438,,,-1,-1,,,,1
5d559b344171570017abe563,0avfqw2i1x,Nick_Dissertation_EX1,1,195,2020-06-02T09:24:34-07:00,3.2528681755066,4,versionC_stim.csv,READVersionD.csv,"Read Version D","Dissertation, read only version D",TOILET,BATHROOM,Study1,S,58,32,Study,User,-,,Study/JOL,"Study Phase2",2928,,,-1,-1,,,,1
5d559b344171570017abe563,0avfqw2i1x,Nick_Dissertation_EX1,1,196,2020-06-02T09:24:38-07:00,4.3364939689636,4,versionC_stim.csv,READVersionD.csv,"Read Version D","Dissertation, read only version D",SODA,POP,Study1,S,56,76,Study,User,-,,Study/JOL,"Study Phase2",4027,,,-1,-1,,,,1
5d559b344171570017abe563,0avfqw2i1x,Nick_Dissertation_EX1,1,197,2020-06-02T09:24:41-07:00,2.611930847168,4,versionC_stim.csv,READVersionD.csv,"Read Version D","Dissertation, read only version D",END,BEGIN,Study1,S,54,14,Study,User,-,,Study/JOL,"Study Phase2",2299,,,-1,-1,,,,1
5d559b344171570017abe563,0avfqw2i1x,Nick_Dissertation_EX1,1,198,2020-06-02T09:24:43-07:00,2.5446631908417,4,versionC_stim.csv,READVersionD.csv,"Read Version D","Dissertation, read only version D",CHORE,WORK,Study1,F,39,37,Study,User,-,,Study/JOL,"Study Phase2",2222,,,-1,-1,,,,1
5d559b344171570017abe563,0avfqw2i1x,Nick_Dissertation_EX1,1,199,2020-06-02T09:24:58-07:00,14.250905990601,4,versionC_stim.csv,READVersionD.csv,"Read Version D","Dissertation, read only version D",SACKING,DIETARY,Study1,U,67,81,Study,User,-,,Study/JOL,"Study Phase2",13843,,,-1,-1,,,,0.557
5d559b344171570017abe563,0avfqw2i1x,Nick_Dissertation_EX1,1,200,2020-06-02T09:25:02-07:00,4.2674548625946,4,versionC_stim.csv,READVersionD.csv,"Read Version D","Dissertation, read only version D",RACKET,BALL,Study1,F,38,13,Study,User,-,,Study/JOL,"Study Phase2",3946,,,-1,-1,,,,1
5d559b344171570017abe563,0avfqw2i1x,Nick_Dissertation_EX1,1,201,2020-06-02T09:25:05-07:00,2.9893410205841,4,versionC_stim.csv,READVersionD.csv,"Read Version D","Dissertation, read only version D",COW,HERD,Study1,B,22,27,Study,User,-,,Study/JOL,"Study Phase2",2657,,,-1,-1,,,,1
5d559b344171570017abe563,0avfqw2i1x,Nick_Dissertation_EX1,1,202,2020-06-02T09:25:09-07:00,4.1671679019928,4,versionC_stim.csv,READVersionD.csv,"Read Version D","Dissertation, read only version D",POSITION,MACHINE,Study1,U,76,42,Study,User,-,,Study/JOL,"Study Phase2",3844,,,-1,-1,,,,1
5d559b344171570017abe563,0avfqw2i1x,Nick_Dissertation_EX1,1,203,2020-06-02T09:25:13-07:00,3.6592800617218,4,versionC_stim.csv,READVersionD.csv,"Read Version D","Dissertation, read only version D",WOMAN,LIFT,Study1,U,69,19,Study,User,-,,Study/JOL,"Study Phase2",3326,,,-1,-1,,,,1
5d559b344171570017abe563,0avfqw2i1x,Nick_Dissertation_EX1,1,204,2020-06-02T09:25:25-07:00,12.226842164993,4,versionC_stim.csv,READVersionD.csv,"Read Version D","Dissertation, read only version D",ENOUGH,FULL,Study1,F,26,64,Study,User,-,,Study/JOL,"Study Phase2",11789,,,-1,-1,,,,0.492
5d559b344171570017abe563,0avfqw2i1x,Nick_Dissertation_EX1,1,205,2020-06-02T09:25:27-07:00,2.472140789032,4,versionC_stim.csv,READVersionD.csv,"Read Version D","Dissertation, read only version D",CHILD,BABY,Study1,S,64,54,Study,User,-,,Study/JOL,"Study Phase2",2113,,,-1,-1,,,,1
5d559b344171570017abe563,0avfqw2i1x,Nick_Dissertation_EX1,1,206,2020-06-02T09:25:35-07:00,8.0077180862427,4,versionC_stim.csv,READVersionD.csv,"Read Version D","Dissertation, read only version D",ATTORNEY,LAW,Study1,F,34,34,Study,User,-,,Study/JOL,"Study Phase2",7677,,,-1,-1,,,,0.41
5d559b344171570017abe563,0avfqw2i1x,Nick_Dissertation_EX1,1,207,2020-06-02T09:25:39-07:00,3.877748966217,4,versionC_stim.csv,READVersionD.csv,"Read Version D","Dissertation, read only version D",BAD,DELINQUENT,Study1,B,6,78,Study,User,-,,Study/JOL,"Study Phase2",3548,,,-1,-1,,,,1
5d559b344171570017abe563,0avfqw2i1x,Nick_Dissertation_EX1,1,208,2020-06-02T09:25:42-07:00,2.6029901504517,4,versionC_stim.csv,READVersionD.csv,"Read Version D","Dissertation, read only version D",FUTURE,PAST,Study1,S,61,72,Study,User,-,,Study/JOL,"Study Phase2",2306,,,-1,-1,,,,1
5d559b344171570017abe563,0avfqw2i1x,Nick_Dissertation_EX1,1,209,2020-06-02T09:25:45-07:00,3.0028719902039,4,versionC_stim.csv,READVersionD.csv,"Read Version D","Dissertation, read only version D",LATCH,KEY,Study1,F,36,70,Study,User,-,,Study/JOL,"Study Phase2",2663,,,-1,-1,,,,1
5d559b344171570017abe563,0avfqw2i1x,Nick_Dissertation_EX1,1,210,2020-06-02T09:25:48-07:00,3.3172318935394,4,versionC_stim.csv,READVersionD.csv,"Read Version D","Dissertation, read only version D",FOOT,SHOE,Study1,S,60,21,Study,User,-,,Study/JOL,"Study Phase2",3000,,,-1,-1,,,,1
5d559b344171570017abe563,0avfqw2i1x,Nick_Dissertation_EX1,1,211,2020-06-02T09:25:52-07:00,3.5606069564819,4,versionC_stim.csv,READVersionD.csv,"Read Version D","Dissertation, read only version D",DROWSY,SLEEP,Study1,F,41,24,Study,User,-,,Study/JOL,"Study Phase2",2190,,,-1,-1,,,,1
5d559b344171570017abe563,0avfqw2i1x,Nick_Dissertation_EX1,1,212,2020-06-02T09:25:55-07:00,3.4516041278839,4,versionC_stim.csv,READVersionD.csv,"Read Version D","Dissertation, read only version D",BIRD,SWAN,Study1,B,14,67,Study,User,-,,Study/JOL,"Study Phase2",3110,,,-1,-1,,,,1
5d559b344171570017abe563,0avfqw2i1x,Nick_Dissertation_EX1,1,213,2020-06-02T09:25:58-07:00,2.9353368282318,4,versionC_stim.csv,READVersionD.csv,"Read Version D","Dissertation, read only version D",STOMACH,DIGESTION,Study1,B,7,38,Study,User,-,,Study/JOL,"Study Phase2",1571,,,-1,-1,,,,1
5d559b344171570017abe563,0avfqw2i1x,Nick_Dissertation_EX1,1,214,2020-06-02T09:26:01-07:00,3.051295042038,4,versionC_stim.csv,READVersionD.csv,"Read Version D","Dissertation, read only version D",CHILI,HOT,Study1,F,37,52,Study,User,-,,Study/JOL,"Study Phase2",2696,,,-1,-1,,,,1
5d559b344171570017abe563,0avfqw2i1x,Nick_Dissertation_EX1,1,215,2020-06-02T09:26:04-07:00,2.3916261196136,4,versionC_stim.csv,READVersionD.csv,"Read Version D","Dissertation, read only version D",CARD,CREDIT,Study1,B,23,59,Study,User,-,,Study/JOL,"Study Phase2",2075,,,-1,-1,,,,1
5d559b344171570017abe563,0avfqw2i1x,Nick_Dissertation_EX1,1,216,2020-06-02T09:26:08-07:00,4.0017650127411,4,versionC_stim.csv,READVersionD.csv,"Read Version D","Dissertation, read only version D",BAR,GRILL,Study1,S,52,69,Study,User,-,,Study/JOL,"Study Phase2",2682,,,-1,-1,,,,1
5d559b344171570017abe563,0avfqw2i1x,Nick_Dissertation_EX1,1,217,2020-06-02T09:26:22-07:00,14.086026906967,4,versionC_stim.csv,READVersionD.csv,"Read Version D","Dissertation, read only version D",COLD,BITTER,Study1,B,12,31,Study,User,-,,Study/JOL,"Study Phase2",13665,,,-1,-1,,,,0.145
5d559b344171570017abe563,0avfqw2i1x,Nick_Dissertation_EX1,1,218,2020-06-02T09:26:27-07:00,5.025689125061,4,versionC_stim.csv,READVersionD.csv,"Read Version D","Dissertation, read only version D",FLOWER,ORCHID,Study1,B,24,45,Study,User,-,,Study/JOL,"Study Phase2",4709,,,-1,-1,,,,1
5d559b344171570017abe563,0avfqw2i1x,Nick_Dissertation_EX1,1,219,2020-06-02T09:26:29-07:00,2.0202748775482,4,versionC_stim.csv,READVersionD.csv,"Read Version D","Dissertation, read only version D",JURY,TRIAL,Study1,S,50,73,Study,User,-,,Study/JOL,"Study Phase2",1720,,,-1,-1,,,,1
5d559b344171570017abe563,0avfqw2i1x,Nick_Dissertation_EX1,1,220,2020-06-02T09:26:33-07:00,4.5982511043549,4,versionC_stim.csv,READVersionD.csv,"Read Version D","Dissertation, read only version D",AMOUNT,NUMBER,Study1,S,47,66,Study,User,-,,Study/JOL,"Study Phase2",3263,,,-1,-1,,,,1
5d559b344171570017abe563,0avfqw2i1x,Nick_Dissertation_EX1,1,221,2020-06-02T09:26:36-07:00,3.0963568687439,4,versionC_stim.csv,READVersionD.csv,"Read Version D","Dissertation, read only version D",OUT,WAY,Study1,B,16,29,Study,User,-,,Study/JOL,"Study Phase2",2752,,,-1,-1,,,,1
5d559b344171570017abe563,0avfqw2i1x,Nick_Dissertation_EX1,1,222,2020-06-02T09:26:41-07:00,4.5790040493011,4,versionC_stim.csv,READVersionD.csv,"Read Version D","Dissertation, read only version D",NEWS,EDITOR,Study1,B,10,17,Study,User,-,,Study/JOL,"Study Phase2",4244,,,-1,-1,,,,1
5d559b344171570017abe563,0avfqw2i1x,Nick_Dissertation_EX1,1,223,2020-06-02T09:26:46-07:00,4.7146201133728,4,versionC_stim.csv,READVersionD.csv,"Read Version D","Dissertation, read only version D",GROWTH,HEIGHT,Study1,F,30,74,Study,User,-,,Study/JOL,"Study Phase2",3397,,,-1,-1,,,,1
5d559b344171570017abe563,0avfqw2i1x,Nick_Dissertation_EX1,1,224,2020-06-02T09:26:50-07:00,4.1240968704224,4,versionC_stim.csv,READVersionD.csv,"Read Version D","Dissertation, read only version D",SALAD,LETTUCE,Study1,S,59,63,Study,User,-,,Study/JOL,"Study Phase2",3797,,,-1,-1,,,,1
5d559b344171570017abe563,0avfqw2i1x,Nick_Dissertation_EX1,1,225,2020-06-02T09:26:52-07:00,2.4104371070862,4,versionC_stim.csv,READVersionD.csv,"Read Version D","Dissertation, read only version D",FAMINE,HUNGER,Study1,F,40,57,Study,User,-,,Study/JOL,"Study Phase2",2058,,,-1,-1,,,,1
5d559b344171570017abe563,0avfqw2i1x,Nick_Dissertation_EX1,1,226,2020-06-02T09:26:55-07:00,3.1733419895172,4,versionC_stim.csv,READVersionD.csv,"Read Version D","Dissertation, read only version D",LIVER,KIDNEY,Study1,S,53,23,Study,User,-,,Study/JOL,"Study Phase2",2866,,,-1,-1,,,,1
5d559b344171570017abe563,0avfqw2i1x,Nick_Dissertation_EX1,1,227,2020-06-02T09:26:58-07:00,2.8099808692932,4,versionC_stim.csv,READVersionD.csv,"Read Version D","Dissertation, read only version D",BUSINESS,DEATH,Study1,U,72,49,Study,User,-,,Study/JOL,"Study Phase2",2469,,,-1,-1,,,,1
5d559b344171570017abe563,0avfqw2i1x,Nick_Dissertation_EX1,1,228,2020-06-02T09:27:01-07:00,2.5543739795685,4,versionC_stim.csv,READVersionD.csv,"Read Version D","Dissertation, read only version D",VASE,KING,Study1,U,85,68,Study,User,-,,Study/JOL,"Study Phase2",2232,,,-1,-1,,,,1
5d559b344171570017abe563,0avfqw2i1x,Nick_Dissertation_EX1,1,229,2020-06-02T09:27:05-07:00,4.2016291618347,4,versionC_stim.csv,READVersionD.csv,"Read Version D","Dissertation, read only version D",BELT,SOON,Study1,U,70,55,Study,User,-,,Study/JOL,"Study Phase2",3876,,,-1,-1,,,,1
5d559b344171570017abe563,0avfqw2i1x,Nick_Dissertation_EX1,1,230,2020-06-02T09:27:08-07:00,2.6276769638062,4,versionC_stim.csv,READVersionD.csv,"Read Version D","Dissertation, read only version D",CLUTTER,PUSHER,Study1,U,66,30,Study,User,-,,Study/JOL,"Study Phase2",2281,,,-1,-1,,,,1
5d559b344171570017abe563,0avfqw2i1x,Nick_Dissertation_EX1,1,231,2020-06-02T09:27:11-07:00,2.9291548728943,4,versionC_stim.csv,READVersionD.csv,"Read Version D","Dissertation, read only version D",SICK,HIDE,Study1,U,84,46,Study,User,-,,Study/JOL,"Study Phase2",2605,,,-1,-1,,,,1
5d559b344171570017abe563,0avfqw2i1x,Nick_Dissertation_EX1,1,232,2020-06-02T09:27:13-07:00,2.7636721134186,4,versionC_stim.csv,READVersionD.csv,"Read Version D","Dissertation, read only version D",DESIGN,ARCHITECTURE,Study1,S,51,56,Study,User,-,,Study/JOL,"Study Phase2",2426,,,-1,-1,,,,1
5d559b344171570017abe563,0avfqw2i1x,Nick_Dissertation_EX1,1,233,2020-06-02T09:27:14-07:00,0.84743094444275,4,versionC_stim.csv,READVersionD.csv,"Read Version D","Dissertation, read only version D",SITE,LOCATION,Study1,S,48,60,Study,User,-,,Study/JOL,"Study Phase2",532,,,-1,-1,,,,1
5d559b344171570017abe563,0avfqw2i1x,Nick_Dissertation_EX1,1,234,2020-06-02T09:27:18-07:00,3.9460361003876,4,versionC_stim.csv,READVersionD.csv,"Read Version D","Dissertation, read only version D",WASP,BUG,Study1,F,32,26,Study,User,-,,Study/JOL,"Study Phase2",3615,,,-1,-1,,,,1
5d559b344171570017abe563,0avfqw2i1x,Nick_Dissertation_EX1,1,235,2020-06-02T09:27:24-07:00,5.4895708560944,4,versionC_stim.csv,READVersionD.csv,"Read Version D","Dissertation, read only version D",CAVE,DARK,Study1,F,28,36,Study,User,-,,Study/JOL,"Study Phase2",5152,,,-1,-1,,,,1
5d559b344171570017abe563,0avfqw2i1x,Nick_Dissertation_EX1,1,236,2020-06-02T09:27:28-07:00,4.4206221103668,4,versionC_stim.csv,READVersionD.csv,"Read Version D","Dissertation, read only version D",HAMMER,CHISEL,Study1,B,9,86,Study,User,-,,Study/JOL,"Study Phase2",4082,,,-1,-1,,,,1
5d559b344171570017abe563,0avfqw2i1x,Nick_Dissertation_EX1,1,237,2020-06-02T09:27:34-07:00,5.6009709835052,4,versionC_stim.csv,READVersionD.csv,"Read Version D","Dissertation, read only version D",WIND,BLOW,Study1,S,55,48,Study,User,-,,Study/JOL,"Study Phase2",5267,,,-1,-1,,,,1
5d559b344171570017abe563,0avfqw2i1x,Nick_Dissertation_EX1,1,238,2020-06-02T09:27:38-07:00,4.6080610752106,4,versionC_stim.csv,READVersionD.csv,"Read Version D","Dissertation, read only version D",LION,ART,Study1,U,79,7,Study,User,-,,Study/JOL,"Study Phase2",4276,,,-1,-1,,,,1
5d559b344171570017abe563,0avfqw2i1x,Nick_Dissertation_EX1,1,239,2020-06-02T09:27:40-07:00,2.2713768482208,4,versionC_stim.csv,READVersionD.csv,"Read Version D","Dissertation, read only version D",ROCK,GEOLOGY,Study1,B,19,43,Study,User,-,,Study/JOL,"Study Phase2",1879,,,-1,-1,,,,1
5d559b344171570017abe563,0avfqw2i1x,Nick_Dissertation_EX1,1,240,2020-06-02T09:27:44-07:00,3.786092042923,4,versionC_stim.csv,READVersionD.csv,"Read Version D","Dissertation, read only version D",WAR,REVOLUTION,Study1,B,20,83,Study,User,-,,Study/JOL,"Study Phase2",3379,,,-1,-1,,,,1
5d559b344171570017abe563,0avfqw2i1x,Nick_Dissertation_EX1,1,241,2020-06-02T09:27:48-07:00,3.5365788936615,4,versionC_stim.csv,READVersionD.csv,"Read Version D","Dissertation, read only version D",BEE,HONEY,Study1,S,63,39,Study,User,-,,Study/JOL,"Study Phase2",3216,,,-1,-1,,,,1
5d559b344171570017abe563,0avfqw2i1x,Nick_Dissertation_EX1,1,242,2020-06-02T09:27:53-07:00,4.781877040863,4,versionC_stim.csv,READVersionD.csv,"Read Version D","Dissertation, read only version D",ROUND,CIRCLE,Study1,S,65,12,Study,User,-,,Study/JOL,"Study Phase2",4445,,,-1,-1,,,,1
5d559b344171570017abe563,0avfqw2i1x,Nick_Dissertation_EX1,1,243,2020-06-02T09:27:57-07:00,4.0410561561584,4,versionC_stim.csv,READVersionD.csv,"Read Version D","Dissertation, read only version D",ACCIDENT,STRONG,Study1,U,80,79,Study,User,-,,Study/JOL,"Study Phase2",3738,,,-1,-1,,,,1
5d559b344171570017abe563,0avfqw2i1x,Nick_Dissertation_EX1,1,244,2020-06-02T09:28:00-07:00,3.0683898925781,4,versionC_stim.csv,READVersionD.csv,"Read Version D","Dissertation, read only version D",STING,HORNET,Study1,B,11,77,Study,User,-,,Study/JOL,"Study Phase2",2749,,,-1,-1,,,,1
5d559b344171570017abe563,0avfqw2i1x,Nick_Dissertation_EX1,1,245,2020-06-02T09:28:02-07:00,2.4419479370117,4,versionC_stim.csv,READVersionD.csv,"Read Version D","Dissertation, read only version D",SEIZE,TAKE,Study1,F,29,58,Study,User,-,,Study/JOL,"Study Phase2",2128,,,-1,-1,,,,1
5d559b344171570017abe563,0avfqw2i1x,Nick_Dissertation_EX1,1,246,2020-06-02T09:28:05-07:00,2.5833539962769,4,versionC_stim.csv,READVersionD.csv,"Read Version D","Dissertation, read only version D",FANTASTIC,GREAT,Study1,F,35,11,Study,User,-,,Study/JOL,"Study Phase2",2261,,,-1,-1,,,,1
5d559b344171570017abe563,0avfqw2i1x,Nick_Dissertation_EX1,1,247,2020-06-02T09:28:08-07:00,3.6524331569672,4,versionC_stim.csv,READVersionD.csv,"Read Version D","Dissertation, read only version D",DOG,PAW,Study1,B,15,25,Study,User,-,,Study/JOL,"Study Phase2",3310,,,-1,-1,,,,1
5d559b344171570017abe563,0avfqw2i1x,Nick_Dissertation_EX1,1,248,2020-06-02T09:28:12-07:00,3.2445468902588,4,versionC_stim.csv,READVersionD.csv,"Read Version D","Dissertation, read only version D",BLAZE,FIRE,Study1,F,45,75,Study,User,-,,Study/JOL,"Study Phase2",2920,,,-1,-1,,,,1
5d559b344171570017abe563,0avfqw2i1x,Nick_Dissertation_EX1,1,249,2020-06-02T09:28:15-07:00,3.346764087677,4,versionC_stim.csv,READVersionD.csv,"Read Version D","Dissertation, read only version D",SIGHT,DEBATE,Study1,U,73,71,Study,User,-,,Study/JOL,"Study Phase2",3021,,,-1,-1,,,,1
5d559b344171570017abe563,0avfqw2i1x,Nick_Dissertation_EX1,1,250,2020-06-02T09:28:19-07:00,3.74702501297,4,versionC_stim.csv,READVersionD.csv,"Read Version D","Dissertation, read only version D",CHEESE,WINE,Study1,S,57,22,Study,User,-,,Study/JOL,"Study Phase2",3400,,,-1,-1,,,,1
5d559b344171570017abe563,0avfqw2i1x,Nick_Dissertation_EX1,1,251,2020-06-02T09:28:22-07:00,3.7994549274445,4,versionC_stim.csv,READVersionD.csv,"Read Version D","Dissertation, read only version D",FISH,TUNA,Study1,B,25,80,Study,User,-,,Study/JOL,"Study Phase2",1385,,,-1,-1,,,,1
5d559b344171570017abe563,0avfqw2i1x,Nick_Dissertation_EX1,1,252,2020-06-02T09:28:26-07:00,3.1237440109253,4,versionC_stim.csv,READVersionD.csv,"Read Version D","Dissertation, read only version D",ASSIGNMENT,DUE,Study1,S,46,51,Study,User,-,,Study/JOL,"Study Phase2",2806,,,-1,-1,,,,1
5d559b344171570017abe563,0avfqw2i1x,Nick_Dissertation_EX1,1,253,2020-06-02T09:28:31-07:00,5.4159369468689,4,versionC_stim.csv,READVersionD.csv,"Read Version D","Dissertation, read only version D",CAR,HAPPY,Study1,U,77,85,Study,User,-,,Study/JOL,"Study Phase2",5084,,,-1,-1,,,,0.538
5d559b344171570017abe563,0avfqw2i1x,Nick_Dissertation_EX1,1,254,2020-06-02T09:28:35-07:00,4.4007480144501,4,versionC_stim.csv,READVersionD.csv,"Read Version D","Dissertation, read only version D",TALK,DISCUSSION,Study1,B,21,20,Study,User,-,,Study/JOL,"Study Phase2",4071,,,-1,-1,,,,1
5d559b344171570017abe563,0avfqw2i1x,Nick_Dissertation_EX1,1,255,2020-06-02T09:28:39-07:00,3.4955599308014,4,versionC_stim.csv,READVersionD.csv,"Read Version D","Dissertation, read only version D",PLANT,ROOT,Study1,B,13,8,Study,User,-,,Study/JOL,"Study Phase2",3176,,,-1,-1,,,,1
5d559b344171570017abe563,0avfqw2i1x,Nick_Dissertation_EX1,1,256,2020-06-02T09:28:41-07:00,2.4127612113953,4,versionC_stim.csv,READVersionD.csv,"Read Version D","Dissertation, read only version D",FLOOR,DISCOVER,Study1,U,71,65,Study,User,-,,Study/JOL,"Study Phase2",2086,,,-1,-1,,,,1
5d559b344171570017abe563,0avfqw2i1x,Nick_Dissertation_EX1,1,257,2020-06-02T09:28:51-07:00,9.2518918514252,4,versionC_stim.csv,READVersionD.csv,"Read Version D","Dissertation, read only version D",SIP,DRINK,Study1,F,27,35,Study,User,-,,Study/JOL,"Study Phase2",8929,,,-1,-1,,,,1
5d559b344171570017abe563,0avfqw2i1x,Nick_Dissertation_EX1,1,258,2020-06-02T09:28:53-07:00,2.2701330184937,4,versionC_stim.csv,READVersionD.csv,"Read Version D","Dissertation, read only version D",RIDDLE,SUGAR,Study1,U,81,40,Study,User,-,,Study/JOL,"Study Phase2",1946,,,-1,-1,,,,1
5d559b344171570017abe563,0avfqw2i1x,Nick_Dissertation_EX1,1,259,2020-06-02T09:28:56-07:00,2.6919441223145,4,versionC_stim.csv,READVersionD.csv,"Read Version D","Dissertation, read only version D",MONEY,WAGE,Study1,B,8,33,Study,User,-,,Study/JOL,"Study Phase2",2274,,,-1,-1,,,,1
5d559b344171570017abe563,0avfqw2i1x,Nick_Dissertation_EX1,1,260,2020-06-02T09:28:57-07:00,1.2189538478851,4,versionC_stim.csv,READVersionD.csv,"Read Version D","Dissertation, read only version D",WASTE,DUMP,Study1,S,49,10,Study,User,-,,Study/JOL,"Study Phase2",912,,,-1,-1,,,,1
5d559b344171570017abe563,0avfqw2i1x,Nick_Dissertation_EX1,1,261,2020-06-02T09:29:03-07:00,6.1210751533508,4,versionC_stim.csv,READVersionD.csv,"Read Version D","Dissertation, read only version D",GOOSE,GEESE,BUFFER2,Buffer,86,91,Study,User,-,,Study/JOL,BUFFER4,5806,,,-1,-1,,,,1
5d559b344171570017abe563,0avfqw2i1x,Nick_Dissertation_EX1,1,262,2020-06-02T09:29:06-07:00,2.9146068096161,4,versionC_stim.csv,READVersionD.csv,"Read Version D","Dissertation, read only version D",SPACE,MOON,BUFFER2,Buffer,89,90,Study,User,-,,Study/JOL,BUFFER4,2602,,,-1,-1,,,,1
5d559b344171570017abe563,0avfqw2i1x,Nick_Dissertation_EX1,1,263,2020-06-02T09:29:10-07:00,4.0857620239258,4,versionC_stim.csv,READVersionD.csv,"Read Version D","Dissertation, read only version D",STUFF,THING,BUFFER2,Buffer,90,87,Study,User,-,,Study/JOL,BUFFER4,2771,,,-1,-1,,,,1
5d559b344171570017abe563,0avfqw2i1x,Nick_Dissertation_EX1,1,264,2020-06-02T09:29:36-07:00,25.79804110527,4,versionC_stim.csv,READVersionD.csv,"Read Version D","Dissertation, read only version D",CHOCOLATE,MALT,BUFFER2,Buffer,88,88,Study,User,-,,Study/JOL,BUFFER4,3005,,,-1,-1,,,,1
5d559b344171570017abe563,0avfqw2i1x,Nick_Dissertation_EX1,1,265,2020-06-02T09:29:40-07:00,3.9994170665741,4,versionC_stim.csv,READVersionD.csv,"Read Version D","Dissertation, read only version D",POLICE,SHERRIF,BUFFER2,Buffer,87,89,Study,User,-,,Study/JOL,BUFFER4,2674,,,-1,-1,,,,1
5d559b344171570017abe563,0avfqw2i1x,Nick_Dissertation_EX1,1,266,2020-06-02T09:29:42-07:00,1.9213919639587,4,versionC_stim.csv,READVersionD.csv,"Read Version D","Dissertation, read only version D",,,,,,0,Instruct,User,-,"You have completed this section. Please press Enter.",Filler_Instruction,Instruct5,1597,,,-1,-1,,,,1
5d559b344171570017abe563,0avfqw2i1x,Nick_Dissertation_EX1,1,267,2020-06-02T09:31:42-07:00,120.43533492088,4,versionC_stim.csv,READVersionD.csv,"Read Version D","Dissertation, read only version D",,,,,,0,FreeRecall,120,120,"Please list the 50 US states in reverse alphabetical order (z - a). The task will automatically advance to the next screen after two minutes.",,Filler2,120003,"Alabama Alaska Arkansas California Colorado Delaware Florida Georgia Idaho Indiana Montana North Carolina Texas ",0,3062,117379,0,0,,1
5d559b344171570017abe563,0avfqw2i1x,Nick_Dissertation_EX1,1,268,2020-06-02T09:31:58-07:00,15.937766075134,4,versionC_stim.csv,READVersionD.csv,"Read Version D","Dissertation, read only version D",,,,,,0,Instruct,-,10,"You will now be presented with the first word from each of the previously studied item pairs. Please type the missing word. If you do not know the word, you may guess or press Enter to skip forward to the next pair.",,Instruct6,15510,,,-1,-1,,,,1
5d559b344171570017abe563,0avfqw2i1x,Nick_Dissertation_EX1,1,269,2020-06-02T09:32:02-07:00,3.5807249546051,4,versionC_stim.csv,READVersionD.csv,"Read Version D","Dissertation, read only version D",WASP,BUG,Study1,F,32,26,Test,User,-,,Recall,Recall2,3255,BUG,100,2454,2733,1,1,,1
5d559b344171570017abe563,0avfqw2i1x,Nick_Dissertation_EX1,1,270,2020-06-02T09:32:04-07:00,2.5306899547577,4,versionC_stim.csv,READVersionD.csv,"Read Version D","Dissertation, read only version D",END,BEGIN,Study1,S,54,14,Test,User,-,,Recall,Recall2,2199,BEGIN,100,1533,1966,1,1,,1
5d559b344171570017abe563,0avfqw2i1x,Nick_Dissertation_EX1,1,271,2020-06-02T09:32:06-07:00,1.9749019145966,4,versionC_stim.csv,READVersionD.csv,"Read Version D","Dissertation, read only version D",CLEAN,HYGIENE,Study1,B,17,41,Test,User,-,,Recall,Recall2,1650,,0,-1,-1,0,0,,1
5d559b344171570017abe563,0avfqw2i1x,Nick_Dissertation_EX1,1,272,2020-06-02T09:32:12-07:00,6.1651041507721,4,versionC_stim.csv,READVersionD.csv,"Read Version D","Dissertation, read only version D",DESIGN,ARCHITECTURE,Study1,S,51,56,Test,User,-,,Recall,Recall2,5823,ARCHITECTURE,100,1101,5696,1,1,,1
5d559b344171570017abe563,0avfqw2i1x,Nick_Dissertation_EX1,1,273,2020-06-02T09:32:16-07:00,3.5435400009155,4,versionC_stim.csv,READVersionD.csv,"Read Version D","Dissertation, read only version D",ATTORNEY,LAW,Study1,F,34,34,Test,User,-,,Recall,Recall2,3216,LAW,100,2077,2352,1,1,,1
5d559b344171570017abe563,0avfqw2i1x,Nick_Dissertation_EX1,1,274,2020-06-02T09:32:18-07:00,2.5467710494995,4,versionC_stim.csv,READVersionD.csv,"Read Version D","Dissertation, read only version D",POSITION,MACHINE,Study1,U,76,42,Test,User,-,,Recall,Recall2,2208,,0,-1,-1,0,0,,1
5d559b344171570017abe563,0avfqw2i1x,Nick_Dissertation_EX1,1,275,2020-06-02T09:32:20-07:00,1.4047429561615,4,versionC_stim.csv,READVersionD.csv,"Read Version D","Dissertation, read only version D",AMOUNT,NUMBER,Study1,S,47,66,Test,User,-,,Recall,Recall2,1066,,0,-1,-1,0,0,,1
5d559b344171570017abe563,0avfqw2i1x,Nick_Dissertation_EX1,1,276,2020-06-02T09:32:22-07:00,2.6444389820099,4,versionC_stim.csv,READVersionD.csv,"Read Version D","Dissertation, read only version D",ADD,VALLEY,Study1,U,82,61,Test,User,-,,Recall,Recall2,2299,,0,-1,-1,0,0,,1
5d559b344171570017abe563,0avfqw2i1x,Nick_Dissertation_EX1,1,277,2020-06-02T09:32:24-07:00,1.3461880683899,4,versionC_stim.csv,READVersionD.csv,"Read Version D","Dissertation, read only version D",TALK,DISCUSSION,Study1,B,21,20,Test,User,-,,Recall,Recall2,990,,0,-1,-1,0,0,,1
5d559b344171570017abe563,0avfqw2i1x,Nick_Dissertation_EX1,1,278,2020-06-02T09:32:26-07:00,1.787556886673,4,versionC_stim.csv,READVersionD.csv,"Read Version D","Dissertation, read only version D",FLOWER,ORCHID,Study1,B,24,45,Test,User,-,,Recall,Recall2,1439,,0,-1,-1,0,0,,1
5d559b344171570017abe563,0avfqw2i1x,Nick_Dissertation_EX1,1,279,2020-06-02T09:32:28-07:00,2.2709701061249,4,versionC_stim.csv,READVersionD.csv,"Read Version D","Dissertation, read only version D",FAMINE,HUNGER,Study1,F,40,57,Test,User,-,,Recall,Recall2,1925,HUNGRY,83.333333333333,989,1725,0,1,,1
5d559b344171570017abe563,0avfqw2i1x,Nick_Dissertation_EX1,1,280,2020-06-02T09:32:30-07:00,1.8996689319611,4,versionC_stim.csv,READVersionD.csv,"Read Version D","Dissertation, read only version D",TUCK,ALLOW,Study1,U,78,53,Test,User,-,,Recall,Recall2,1580,,0,-1,-1,0,0,,1
5d559b344171570017abe563,0avfqw2i1x,Nick_Dissertation_EX1,1,281,2020-06-02T09:32:31-07:00,1.508898973465,4,versionC_stim.csv,READVersionD.csv,"Read Version D","Dissertation, read only version D",STOMACH,DIGESTION,Study1,B,7,38,Test,User,-,,Recall,Recall2,1160,,0,-1,-1,0,0,,1
5d559b344171570017abe563,0avfqw2i1x,Nick_Dissertation_EX1,1,282,2020-06-02T09:32:33-07:00,2.166307926178,4,versionC_stim.csv,READVersionD.csv,"Read Version D","Dissertation, read only version D",DOG,PAW,Study1,B,15,25,Test,User,-,,Recall,Recall2,1844,FUZZY,0,1090,1639,0,0,,1
5d559b344171570017abe563,0avfqw2i1x,Nick_Dissertation_EX1,1,283,2020-06-02T09:32:42-07:00,8.835235118866,4,versionC_stim.csv,READVersionD.csv,"Read Version D","Dissertation, read only version D",HAMMER,CHISEL,Study1,B,9,86,Test,User,-,,Recall,Recall2,8421,CHISEL,100,997,8141,1,1,,1
5d559b344171570017abe563,0avfqw2i1x,Nick_Dissertation_EX1,1,284,2020-06-02T09:32:44-07:00,2.2702920436859,4,versionC_stim.csv,READVersionD.csv,"Read Version D","Dissertation, read only version D",GROWTH,HEIGHT,Study1,F,30,74,Test,User,-,,Recall,Recall2,1891,,0,-1,-1,0,0,,1
5d559b344171570017abe563,0avfqw2i1x,Nick_Dissertation_EX1,1,285,2020-06-02T09:32:47-07:00,2.8358578681946,4,versionC_stim.csv,READVersionD.csv,"Read Version D","Dissertation, read only version D",WORD,SENTENCE,Study1,F,31,82,Test,User,-,,Recall,Recall2,2403,SENTENCE,100,1449,2305,1,1,,1
5d559b344171570017abe563,0avfqw2i1x,Nick_Dissertation_EX1,1,286,2020-06-02T09:32:52-07:00,4.4439539909363,4,versionC_stim.csv,READVersionD.csv,"Read Version D","Dissertation, read only version D",ACCIDENT,STRONG,Study1,U,80,79,Test,User,-,,Recall,Recall2,4106,STRONG,100,2119,3939,1,1,,1
5d559b344171570017abe563,0avfqw2i1x,Nick_Dissertation_EX1,1,287,2020-06-02T09:32:55-07:00,3.4118790626526,4,versionC_stim.csv,READVersionD.csv,"Read Version D","Dissertation, read only version D",BAD,DELINQUENT,Study1,B,6,78,Test,User,-,,Recall,Recall2,3071,,0,-1,-1,0,0,,1
5d559b344171570017abe563,0avfqw2i1x,Nick_Dissertation_EX1,1,288,2020-06-02T09:32:58-07:00,3.1712529659271,4,versionC_stim.csv,READVersionD.csv,"Read Version D","Dissertation, read only version D",LIVER,KIDNEY,Study1,S,53,23,Test,User,-,,Recall,Recall2,1772,KIDNEY,100,948,1579,1,1,,1
5d559b344171570017abe563,0avfqw2i1x,Nick_Dissertation_EX1,1,289,2020-06-02T09:33:00-07:00,1.5095620155334,4,versionC_stim.csv,READVersionD.csv,"Read Version D","Dissertation, read only version D",CHILI,HOT,Study1,F,37,52,Test,User,-,,Recall,Recall2,1191,HOT,100,830,1047,1,1,,1
5d559b344171570017abe563,0avfqw2i1x,Nick_Dissertation_EX1,1,290,2020-06-02T09:33:04-07:00,3.9945828914642,4,versionC_stim.csv,READVersionD.csv,"Read Version D","Dissertation, read only version D",HUNGRY,PARK,Study1,U,68,16,Test,User,-,,Recall,Recall2,3637,,0,-1,-1,0,0,,1
5d559b344171570017abe563,0avfqw2i1x,Nick_Dissertation_EX1,1,291,2020-06-02T09:33:08-07:00,3.7086541652679,4,versionC_stim.csv,READVersionD.csv,"Read Version D","Dissertation, read only version D",SEIZE,TAKE,Study1,F,29,58,Test,User,-,,Recall,Recall2,3314,,0,-1,-1,0,0,,1
5d559b344171570017abe563,0avfqw2i1x,Nick_Dissertation_EX1,1,292,2020-06-02T09:33:09-07:00,1.2752339839935,4,versionC_stim.csv,READVersionD.csv,"Read Version D","Dissertation, read only version D",SIGHT,DEBATE,Study1,U,73,71,Test,User,-,,Recall,Recall2,911,,0,-1,-1,0,0,,1
5d559b344171570017abe563,0avfqw2i1x,Nick_Dissertation_EX1,1,293,2020-06-02T09:33:11-07:00,1.9422240257263,4,versionC_stim.csv,READVersionD.csv,"Read Version D","Dissertation, read only version D",SIP,DRINK,Study1,F,27,35,Test,User,-,,Recall,Recall2,1597,DRINK,100,870,1386,1,1,,1
5d559b344171570017abe563,0avfqw2i1x,Nick_Dissertation_EX1,1,294,2020-06-02T09:33:12-07:00,1.395712852478,4,versionC_stim.csv,READVersionD.csv,"Read Version D","Dissertation, read only version D",FISH,TUNA,Study1,B,25,80,Test,User,-,,Recall,Recall2,1060,,0,-1,-1,0,0,,1
5d559b344171570017abe563,0avfqw2i1x,Nick_Dissertation_EX1,1,295,2020-06-02T09:33:13-07:00,1.2568821907043,4,versionC_stim.csv,READVersionD.csv,"Read Version D","Dissertation, read only version D",FANTASTIC,GREAT,Study1,F,35,11,Test,User,-,,Recall,Recall2,924,,0,-1,-1,0,0,,1
5d559b344171570017abe563,0avfqw2i1x,Nick_Dissertation_EX1,1,296,2020-06-02T09:33:16-07:00,2.7276339530945,4,versionC_stim.csv,READVersionD.csv,"Read Version D","Dissertation, read only version D",FOOT,SHOE,Study1,S,60,21,Test,User,-,,Recall,Recall2,2391,SHOE,100,1820,2147,1,1,,1
5d559b344171570017abe563,0avfqw2i1x,Nick_Dissertation_EX1,1,297,2020-06-02T09:33:19-07:00,2.6717429161072,4,versionC_stim.csv,READVersionD.csv,"Read Version D","Dissertation, read only version D",DROWSY,SLEEP,Study1,F,41,24,Test,User,-,,Recall,Recall2,2308,SLEEP,100,1582,2070,1,1,,1
5d559b344171570017abe563,0avfqw2i1x,Nick_Dissertation_EX1,1,298,2020-06-02T09:33:21-07:00,1.9779119491577,4,versionC_stim.csv,READVersionD.csv,"Read Version D","Dissertation, read only version D",WIND,BLOW,Study1,S,55,48,Test,User,-,,Recall,Recall2,1637,BLOW,100,926,1542,1,1,,1
5d559b344171570017abe563,0avfqw2i1x,Nick_Dissertation_EX1,1,299,2020-06-02T09:33:23-07:00,2.3061370849609,4,versionC_stim.csv,READVersionD.csv,"Read Version D","Dissertation, read only version D",VASE,KING,Study1,U,85,68,Test,User,-,,Recall,Recall2,1987,KING,100,1411,1848,1,1,,1
5d559b344171570017abe563,0avfqw2i1x,Nick_Dissertation_EX1,1,300,2020-06-02T09:33:24-07:00,1.2750389575958,4,versionC_stim.csv,READVersionD.csv,"Read Version D","Dissertation, read only version D",RACKET,BALL,Study1,F,38,13,Test,User,-,,Recall,Recall2,962,,0,-1,-1,0,0,,1
5d559b344171570017abe563,0avfqw2i1x,Nick_Dissertation_EX1,1,301,2020-06-02T09:33:25-07:00,1.0579481124878,4,versionC_stim.csv,READVersionD.csv,"Read Version D","Dissertation, read only version D",CHORE,WORK,Study1,F,39,37,Test,User,-,,Recall,Recall2,721,,0,-1,-1,0,0,,1
5d559b344171570017abe563,0avfqw2i1x,Nick_Dissertation_EX1,1,302,2020-06-02T09:33:26-07:00,1.0443358421326,4,versionC_stim.csv,READVersionD.csv,"Read Version D","Dissertation, read only version D",WASTE,DUMP,Study1,S,49,10,Test,User,-,,Recall,Recall2,716,,0,-1,-1,0,0,,1
5d559b344171570017abe563,0avfqw2i1x,Nick_Dissertation_EX1,1,303,2020-06-02T09:33:29-07:00,2.5938801765442,4,versionC_stim.csv,READVersionD.csv,"Read Version D","Dissertation, read only version D",BIRD,SWAN,Study1,B,14,67,Test,User,-,,Recall,Recall2,2253,SWAN,100,1627,2041,1,1,,1
5d559b344171570017abe563,0avfqw2i1x,Nick_Dissertation_EX1,1,304,2020-06-02T09:33:31-07:00,1.758936882019,4,versionC_stim.csv,READVersionD.csv,"Read Version D","Dissertation, read only version D",FUTURE,PAST,Study1,S,61,72,Test,User,-,,Recall,Recall2,1424,,0,-1,-1,0,0,,1
5d559b344171570017abe563,0avfqw2i1x,Nick_Dissertation_EX1,1,305,2020-06-02T09:33:33-07:00,1.8081331253052,4,versionC_stim.csv,READVersionD.csv,"Read Version D","Dissertation, read only version D",BLAZE,FIRE,Study1,F,45,75,Test,User,-,,Recall,Recall2,1474,FIRE,100,1008,1321,1,1,,1
5d559b344171570017abe563,0avfqw2i1x,Nick_Dissertation_EX1,1,306,2020-06-02T09:33:35-07:00,2.0590648651123,4,versionC_stim.csv,READVersionD.csv,"Read Version D","Dissertation, read only version D",JURY,TRIAL,Study1,S,50,73,Test,User,-,,Recall,Recall2,1703,,0,-1,-1,0,0,,1
5d559b344171570017abe563,0avfqw2i1x,Nick_Dissertation_EX1,1,307,2020-06-02T09:33:38-07:00,3.1018691062927,4,versionC_stim.csv,READVersionD.csv,"Read Version D","Dissertation, read only version D",LION,ART,Study1,U,79,7,Test,User,-,,Recall,Recall2,2773,ART,100,2278,2599,1,1,,1
5d559b344171570017abe563,0avfqw2i1x,Nick_Dissertation_EX1,1,308,2020-06-02T09:33:39-07:00,1.1135380268097,4,versionC_stim.csv,READVersionD.csv,"Read Version D","Dissertation, read only version D",WOULD,CASH,Study1,U,83,28,Test,User,-,,Recall,Recall2,743,,0,-1,-1,0,0,,1
5d559b344171570017abe563,0avfqw2i1x,Nick_Dissertation_EX1,1,309,2020-06-02T09:33:42-07:00,3.0414090156555,4,versionC_stim.csv,READVersionD.csv,"Read Version D","Dissertation, read only version D",LATCH,KEY,Study1,F,36,70,Test,User,-,,Recall,Recall2,2648,DOOR,0,2062,2471,0,0,,1
5d559b344171570017abe563,0avfqw2i1x,Nick_Dissertation_EX1,1,310,2020-06-02T09:33:43-07:00,1.2799768447876,4,versionC_stim.csv,READVersionD.csv,"Read Version D","Dissertation, read only version D",WATER,BRIDGE,Study1,B,18,84,Test,User,-,,Recall,Recall2,953,,0,-1,-1,0,0,,1
5d559b344171570017abe563,0avfqw2i1x,Nick_Dissertation_EX1,1,311,2020-06-02T09:33:45-07:00,2.126179933548,4,versionC_stim.csv,READVersionD.csv,"Read Version D","Dissertation, read only version D",STENCH,SMELL,Study1,F,42,15,Test,User,-,,Recall,Recall2,1817,SMELL,100,1082,1598,1,1,,1
5d559b344171570017abe563,0avfqw2i1x,Nick_Dissertation_EX1,1,312,2020-06-02T09:33:48-07:00,2.3866810798645,4,versionC_stim.csv,READVersionD.csv,"Read Version D","Dissertation, read only version D",BAR,GRILL,Study1,S,52,69,Test,User,-,,Recall,Recall2,1073,,0,-1,-1,0,0,,1
5d559b344171570017abe563,0avfqw2i1x,Nick_Dissertation_EX1,1,313,2020-06-02T09:33:52-07:00,4.4901480674744,4,versionC_stim.csv,READVersionD.csv,"Read Version D","Dissertation, read only version D",TOILET,BATHROOM,Study1,S,58,32,Test,User,-,,Recall,Recall2,4070,BATHROOM,100,2889,3832,1,1,,1
5d559b344171570017abe563,0avfqw2i1x,Nick_Dissertation_EX1,1,314,2020-06-02T09:33:54-07:00,2.0943348407745,4,versionC_stim.csv,READVersionD.csv,"Read Version D","Dissertation, read only version D",BUSINESS,DEATH,Study1,U,72,49,Test,User,-,,Recall,Recall2,1782,,0,-1,-1,0,0,,1
5d559b344171570017abe563,0avfqw2i1x,Nick_Dissertation_EX1,1,315,2020-06-02T09:33:58-07:00,4.128662109375,4,versionC_stim.csv,READVersionD.csv,"Read Version D","Dissertation, read only version D",CHILD,BABY,Study1,S,64,54,Test,User,-,,Recall,Recall2,2798,BABY,100,2019,2420,1,1,,1
5d559b344171570017abe563,0avfqw2i1x,Nick_Dissertation_EX1,1,316,2020-06-02T09:34:00-07:00,1.3951210975647,4,versionC_stim.csv,READVersionD.csv,"Read Version D","Dissertation, read only version D",SICK,HIDE,Study1,U,84,46,Test,User,-,,Recall,Recall2,1086,,0,-1,-1,0,0,,1
5d559b344171570017abe563,0avfqw2i1x,Nick_Dissertation_EX1,1,317,2020-06-02T09:34:03-07:00,2.7719039916992,4,versionC_stim.csv,READVersionD.csv,"Read Version D","Dissertation, read only version D",DIVISION,MATH,Study1,F,33,62,Test,User,-,,Recall,Recall2,2440,,0,-1,-1,0,0,,1
5d559b344171570017abe563,0avfqw2i1x,Nick_Dissertation_EX1,1,318,2020-06-02T09:34:04-07:00,1.3605599403381,4,versionC_stim.csv,READVersionD.csv,"Read Version D","Dissertation, read only version D",RIDDLE,SUGAR,Study1,U,81,40,Test,User,-,,Recall,Recall2,1029,,0,-1,-1,0,0,,1
5d559b344171570017abe563,0avfqw2i1x,Nick_Dissertation_EX1,1,319,2020-06-02T09:34:07-07:00,3.145437002182,4,versionC_stim.csv,READVersionD.csv,"Read Version D","Dissertation, read only version D",ROUND,CIRCLE,Study1,S,65,12,Test,User,-,,Recall,Recall2,2804,CIRCLE,100,1251,2171,1,1,,1
5d559b344171570017abe563,0avfqw2i1x,Nick_Dissertation_EX1,1,320,2020-06-02T09:34:09-07:00,1.6645519733429,4,versionC_stim.csv,READVersionD.csv,"Read Version D","Dissertation, read only version D",FLOOR,DISCOVER,Study1,U,71,65,Test,User,-,,Recall,Recall2,1344,,0,-1,-1,0,0,,1
5d559b344171570017abe563,0avfqw2i1x,Nick_Dissertation_EX1,1,321,2020-06-02T09:34:12-07:00,2.8484740257263,4,versionC_stim.csv,READVersionD.csv,"Read Version D","Dissertation, read only version D",PILOT,PLANE,Study1,F,44,44,Test,User,-,,Recall,Recall2,2495,PLANE,100,1833,2336,1,1,,1
5d559b344171570017abe563,0avfqw2i1x,Nick_Dissertation_EX1,1,322,2020-06-02T09:34:13-07:00,1.8223030567169,4,versionC_stim.csv,READVersionD.csv,"Read Version D","Dissertation, read only version D",SODA,POP,Study1,S,56,76,Test,User,-,,Recall,Recall2,1506,POP,100,853,1174,1,1,,1
5d559b344171570017abe563,0avfqw2i1x,Nick_Dissertation_EX1,1,323,2020-06-02T09:34:17-07:00,3.1119859218597,4,versionC_stim.csv,READVersionD.csv,"Read Version D","Dissertation, read only version D",MONEY,WAGE,Study1,B,8,33,Test,User,-,,Recall,Recall2,1774,,0,-1,-1,0,0,,1
5d559b344171570017abe563,0avfqw2i1x,Nick_Dissertation_EX1,1,324,2020-06-02T09:34:19-07:00,1.9847590923309,4,versionC_stim.csv,READVersionD.csv,"Read Version D","Dissertation, read only version D",HAND,FIX,Study1,U,75,18,Test,User,-,,Recall,Recall2,1658,,0,-1,-1,0,0,,1
5d559b344171570017abe563,0avfqw2i1x,Nick_Dissertation_EX1,1,325,2020-06-02T09:34:20-07:00,1.5664308071136,4,versionC_stim.csv,READVersionD.csv,"Read Version D","Dissertation, read only version D",NEWS,EDITOR,Study1,B,10,17,Test,User,-,,Recall,Recall2,1224,,0,-1,-1,0,0,,1
5d559b344171570017abe563,0avfqw2i1x,Nick_Dissertation_EX1,1,326,2020-06-02T09:34:38-07:00,18.053620100021,4,versionC_stim.csv,READVersionD.csv,"Read Version D","Dissertation, read only version D",BRONZE,ARTERY,Study1,U,74,50,Test,User,-,,Recall,Recall2,17603,,0,-1,-1,0,0,,1
5d559b344171570017abe563,0avfqw2i1x,Nick_Dissertation_EX1,1,327,2020-06-02T09:34:39-07:00,1.1693739891052,4,versionC_stim.csv,READVersionD.csv,"Read Version D","Dissertation, read only version D",ATTIRE,CLOTHES,Study1,F,43,47,Test,User,-,,Recall,Recall2,823,,0,-1,-1,0,0,,1
5d559b344171570017abe563,0avfqw2i1x,Nick_Dissertation_EX1,1,328,2020-06-02T09:34:41-07:00,1.5584321022034,4,versionC_stim.csv,READVersionD.csv,"Read Version D","Dissertation, read only version D",STING,HORNET,Study1,B,11,77,Test,User,-,,Recall,Recall2,1226,,0,-1,-1,0,0,,1
5d559b344171570017abe563,0avfqw2i1x,Nick_Dissertation_EX1,1,329,2020-06-02T09:34:43-07:00,2.1053779125214,4,versionC_stim.csv,READVersionD.csv,"Read Version D","Dissertation, read only version D",CAVE,DARK,Study1,F,28,36,Test,User,-,,Recall,Recall2,1769,,0,-1,-1,0,0,,1
5d559b344171570017abe563,0avfqw2i1x,Nick_Dissertation_EX1,1,330,2020-06-02T09:34:44-07:00,1.4111819267273,4,versionC_stim.csv,READVersionD.csv,"Read Version D","Dissertation, read only version D",ASSIGNMENT,DUE,Study1,S,46,51,Test,User,-,,Recall,Recall2,1080,,0,-1,-1,0,0,,1
5d559b344171570017abe563,0avfqw2i1x,Nick_Dissertation_EX1,1,331,2020-06-02T09:34:46-07:00,1.2284440994263,4,versionC_stim.csv,READVersionD.csv,"Read Version D","Dissertation, read only version D",CLUTTER,PUSHER,Study1,U,66,30,Test,User,-,,Recall,Recall2,892,,0,-1,-1,0,0,,1
5d559b344171570017abe563,0avfqw2i1x,Nick_Dissertation_EX1,1,332,2020-06-02T09:34:47-07:00,1.41126704216,4,versionC_stim.csv,READVersionD.csv,"Read Version D","Dissertation, read only version D",ENOUGH,FULL,Study1,F,26,64,Test,User,-,,Recall,Recall2,1082,,0,-1,-1,0,0,,1
5d559b344171570017abe563,0avfqw2i1x,Nick_Dissertation_EX1,1,333,2020-06-02T09:34:50-07:00,2.8972659111023,4,versionC_stim.csv,READVersionD.csv,"Read Version D","Dissertation, read only version D",CHEESE,WINE,Study1,S,57,22,Test,User,-,,Recall,Recall2,2473,MILK,25,1593,2123,0,0,,1
5d559b344171570017abe563,0avfqw2i1x,Nick_Dissertation_EX1,1,334,2020-06-02T09:34:51-07:00,1.1820819377899,4,versionC_stim.csv,READVersionD.csv,"Read Version D","Dissertation, read only version D",SACKING,DIETARY,Study1,U,67,81,Test,User,-,,Recall,Recall2,842,,0,-1,-1,0,0,,1
5d559b344171570017abe563,0avfqw2i1x,Nick_Dissertation_EX1,1,335,2020-06-02T09:34:54-07:00,2.5446469783783,4,versionC_stim.csv,READVersionD.csv,"Read Version D","Dissertation, read only version D",PLANT,ROOT,Study1,B,13,8,Test,User,-,,Recall,Recall2,2213,GREEN,22.222222222222,1399,1978,0,0,,1
5d559b344171570017abe563,0avfqw2i1x,Nick_Dissertation_EX1,1,336,2020-06-02T09:34:56-07:00,2.1282730102539,4,versionC_stim.csv,READVersionD.csv,"Read Version D","Dissertation, read only version D",OUT,WAY,Study1,B,16,29,Test,User,-,,Recall,Recall2,810,,0,-1,-1,0,0,,1
5d559b344171570017abe563,0avfqw2i1x,Nick_Dissertation_EX1,1,337,2020-06-02T09:34:58-07:00,2.3275401592255,4,versionC_stim.csv,READVersionD.csv,"Read Version D","Dissertation, read only version D",BEE,HONEY,Study1,S,63,39,Test,User,-,,Recall,Recall2,1986,HONEY,100,1325,1764,1,1,,1
5d559b344171570017abe563,0avfqw2i1x,Nick_Dissertation_EX1,1,338,2020-06-02T09:35:01-07:00,2.8881528377533,4,versionC_stim.csv,READVersionD.csv,"Read Version D","Dissertation, read only version D",BELT,SOON,Study1,U,70,55,Test,User,-,,Recall,Recall2,2560,SOON,100,1572,2018,1,1,,1
5d559b344171570017abe563,0avfqw2i1x,Nick_Dissertation_EX1,1,339,2020-06-02T09:35:03-07:00,1.9381861686707,4,versionC_stim.csv,READVersionD.csv,"Read Version D","Dissertation, read only version D",COLD,BITTER,Study1,B,12,31,Test,User,-,,Recall,Recall2,1597,HOT,22.222222222222,1228,1442,0,0,,1
5d559b344171570017abe563,0avfqw2i1x,Nick_Dissertation_EX1,1,340,2020-06-02T09:35:05-07:00,1.9173498153687,4,versionC_stim.csv,READVersionD.csv,"Read Version D","Dissertation, read only version D",DEFINITION,MEANING,Study1,S,62,9,Test,User,-,,Recall,Recall2,1571,,0,-1,-1,0,0,,1
5d559b344171570017abe563,0avfqw2i1x,Nick_Dissertation_EX1,1,341,2020-06-02T09:35:06-07:00,1.6098492145538,4,versionC_stim.csv,READVersionD.csv,"Read Version D","Dissertation, read only version D",SITE,LOCATION,Study1,S,48,60,Test,User,-,,Recall,Recall2,1290,,0,-1,-1,0,0,,1
5d559b344171570017abe563,0avfqw2i1x,Nick_Dissertation_EX1,1,342,2020-06-02T09:35:09-07:00,2.1356599330902,4,versionC_stim.csv,READVersionD.csv,"Read Version D","Dissertation, read only version D",COW,HERD,Study1,B,22,27,Test,User,-,,Recall,Recall2,1823,MILK,0,1125,1581,0,0,,1
5d559b344171570017abe563,0avfqw2i1x,Nick_Dissertation_EX1,1,343,2020-06-02T09:35:12-07:00,3.6685230731964,4,versionC_stim.csv,READVersionD.csv,"Read Version D","Dissertation, read only version D",WAR,REVOLUTION,Study1,B,20,83,Test,User,-,,Recall,Recall2,3255,REVOLUTION,100,1076,3026,1,1,,1
5d559b344171570017abe563,0avfqw2i1x,Nick_Dissertation_EX1,1,344,2020-06-02T09:35:14-07:00,1.3138217926025,4,versionC_stim.csv,READVersionD.csv,"Read Version D","Dissertation, read only version D",CAR,HAPPY,Study1,U,77,85,Test,User,-,,Recall,Recall2,988,,0,-1,-1,0,0,,1
5d559b344171570017abe563,0avfqw2i1x,Nick_Dissertation_EX1,1,345,2020-06-02T09:35:16-07:00,2.6389350891113,4,versionC_stim.csv,READVersionD.csv,"Read Version D","Dissertation, read only version D",CARD,CREDIT,Study1,B,23,59,Test,User,-,,Recall,Recall2,2295,CREDIT,100,1312,2171,1,1,,1
5d559b344171570017abe563,0avfqw2i1x,Nick_Dissertation_EX1,1,346,2020-06-02T09:35:18-07:00,1.7293999195099,4,versionC_stim.csv,READVersionD.csv,"Read Version D","Dissertation, read only version D",WOMAN,LIFT,Study1,U,69,19,Test,User,-,,Recall,Recall2,1396,MAN,0,1022,1170,0,0,,1
5d559b344171570017abe563,0avfqw2i1x,Nick_Dissertation_EX1,1,347,2020-06-02T09:35:25-07:00,7.1195240020752,4,versionC_stim.csv,READVersionD.csv,"Read Version D","Dissertation, read only version D",SALAD,LETTUCE,Study1,S,59,63,Test,User,-,,Recall,Recall2,6794,COLD,18.181818181818,6211,6625,0,0,,1
5d559b344171570017abe563,0avfqw2i1x,Nick_Dissertation_EX1,1,348,2020-06-02T09:35:26-07:00,1.2947280406952,4,versionC_stim.csv,READVersionD.csv,"Read Version D","Dissertation, read only version D",ROCK,GEOLOGY,Study1,B,19,43,Test,User,-,,Recall,Recall2,957,,0,-1,-1,0,0,,1
5d559b344171570017abe563,0avfqw2i1x,Nick_Dissertation_EX1,1,349,2020-06-02T09:35:28-07:00,1.2495789527893,4,versionC_stim.csv,READVersionD.csv,"Read Version D","Dissertation, read only version D",,,,,,0,Instruct,User,-,"You have completed this section. Please press Enter.",,Instruct7,903,,,-1,-1,,,,1
5d559b344171570017abe563,0avfqw2i1x,Nick_Dissertation_EX1,1,350,2020-06-02T09:35:32-07:00,4.1034121513367,4,versionC_stim.csv,READVersionD.csv,"Read Version D","Dissertation, read only version D",,,,,,0,Instruct,User,-,"The following screen will ask you a few questions abour your experience today. You must complete these questions to receive credit.",,Instruct8,3801,,,-1,-1,,,,1
