Username,ID,ExperimentName,Session,Trial,Date,TimeDif,"Condition Number","Stimuli File","Order File","Condition Description","Condition Notes",Stimuli*Cue,Stimuli*Answer,Stimuli*Shuffle,"Stimuli*Stimuli Notes",Stimuli*Value,Procedure*Item,"Procedure*Trial Type","Procedure*Max Time","Procedure*Min Time",Procedure*Text,"Procedure*Procedure Notes",Procedure*Shuffle,Response*RT,Response*Response,Response*Accuracy,Response*RTfirst,Response*RTlast,Response*strictAcc,Response*lenientAcc,Response*focus,Response*Focus
5eab00d45a85f509b69b78c2,cx565vc6ry,Nick_Dissertation_EX1,1,1,2020-06-02T09:04:59-07:00,19.236392974854,1,versionA_stim.csv,READVersionA.csv,"Read Version A","Dissertation, read only version A",,,,,,0,Instruct,-,10,"Please study each of the following word pairs. Remember that your memory will be tested! When finished, press Enter to move to the next pair.",Initial_Instruct,Instruct1,18638,,,-1,-1,,,,1
5eab00d45a85f509b69b78c2,cx565vc6ry,Nick_Dissertation_EX1,1,2,2020-06-02T09:05:07-07:00,7.481663942337,1,versionA_stim.csv,READVersionA.csv,"Read Version A","Dissertation, read only version A",TREES,GREEN,BUFFER1,Buffer,1,6,Study,User,-,,Study/JOL,BUFFER,6781,,,-1,-1,,,,1
5eab00d45a85f509b69b78c2,cx565vc6ry,Nick_Dissertation_EX1,1,3,2020-06-02T09:05:11-07:00,4.0786061286926,1,versionA_stim.csv,READVersionA.csv,"Read Version A","Dissertation, read only version A",SCARE,HIDE,BUFFER1,Buffer,4,3,Study,User,-,,Study/JOL,BUFFER,3451,,,-1,-1,,,,1
5eab00d45a85f509b69b78c2,cx565vc6ry,Nick_Dissertation_EX1,1,4,2020-06-02T09:05:14-07:00,2.7948598861694,1,versionA_stim.csv,READVersionA.csv,"Read Version A","Dissertation, read only version A",BASEBALL,CATCHER,BUFFER1,Buffer,2,5,Study,User,-,,Study/JOL,BUFFER,2195,,,-1,-1,,,,1
5eab00d45a85f509b69b78c2,cx565vc6ry,Nick_Dissertation_EX1,1,5,2020-06-02T09:05:19-07:00,4.8079841136932,1,versionA_stim.csv,READVersionA.csv,"Read Version A","Dissertation, read only version A",PEANUT,BUTTER,BUFFER1,Buffer,3,4,Study,User,-,,Study/JOL,BUFFER,3211,,,-1,-1,,,,1
5eab00d45a85f509b69b78c2,cx565vc6ry,Nick_Dissertation_EX1,1,6,2020-06-02T09:05:22-07:00,3.2466039657593,1,versionA_stim.csv,READVersionA.csv,"Read Version A","Dissertation, read only version A",SPACE,JAM,BUFFER1,Buffer,5,2,Study,User,-,,Study/JOL,BUFFER,2710,,,-1,-1,,,,1
5eab00d45a85f509b69b78c2,cx565vc6ry,Nick_Dissertation_EX1,1,7,2020-06-02T09:05:24-07:00,2.2925310134888,1,versionA_stim.csv,READVersionA.csv,"Read Version A","Dissertation, read only version A",GEOLOGY,ROCK,Study1,F,19,79,Study,User,-,,Study/JOL,"Study Phase",1691,,,-1,-1,,,,1
5eab00d45a85f509b69b78c2,cx565vc6ry,Nick_Dissertation_EX1,1,8,2020-06-02T09:05:27-07:00,3.0959830284119,1,versionA_stim.csv,READVersionA.csv,"Read Version A","Dissertation, read only version A",PAW,DOG,Study1,F,15,19,Study,User,-,,Study/JOL,"Study Phase",2523,,,-1,-1,,,,1
5eab00d45a85f509b69b78c2,cx565vc6ry,Nick_Dissertation_EX1,1,9,2020-06-02T09:05:30-07:00,2.3279159069061,1,versionA_stim.csv,READVersionA.csv,"Read Version A","Dissertation, read only version A",CLOTHES,ATTIRE,Study1,B,43,67,Study,User,-,,Study/JOL,"Study Phase",1693,,,-1,-1,,,,1
5eab00d45a85f509b69b78c2,cx565vc6ry,Nick_Dissertation_EX1,1,10,2020-06-02T09:05:36-07:00,6.2509450912476,1,versionA_stim.csv,READVersionA.csv,"Read Version A","Dissertation, read only version A",KING,VASE,Study1,U,85,56,Study,User,-,,Study/JOL,"Study Phase",5628,,,-1,-1,,,,1
5eab00d45a85f509b69b78c2,cx565vc6ry,Nick_Dissertation_EX1,1,11,2020-06-02T09:05:43-07:00,7.3074359893799,1,versionA_stim.csv,READVersionA.csv,"Read Version A","Dissertation, read only version A",DIETARY,SACKING,Study1,U,67,48,Study,User,-,,Study/JOL,"Study Phase",6709,,,-1,-1,,,,1
5eab00d45a85f509b69b78c2,cx565vc6ry,Nick_Dissertation_EX1,1,12,2020-06-02T09:05:48-07:00,4.7458260059357,1,versionA_stim.csv,READVersionA.csv,"Read Version A","Dissertation, read only version A",EDITOR,NEWS,Study1,F,10,21,Study,User,-,,Study/JOL,"Study Phase",4062,,,-1,-1,,,,1
5eab00d45a85f509b69b78c2,cx565vc6ry,Nick_Dissertation_EX1,1,13,2020-06-02T09:05:52-07:00,4.248368024826,1,versionA_stim.csv,READVersionA.csv,"Read Version A","Dissertation, read only version A",CREDIT,CARD,Study1,F,23,54,Study,User,-,,Study/JOL,"Study Phase",3643,,,-1,-1,,,,1
5eab00d45a85f509b69b78c2,cx565vc6ry,Nick_Dissertation_EX1,1,14,2020-06-02T09:05:56-07:00,4.2427268028259,1,versionA_stim.csv,READVersionA.csv,"Read Version A","Dissertation, read only version A",BITTER,COLD,Study1,F,12,81,Study,User,-,,Study/JOL,"Study Phase",3727,,,-1,-1,,,,1
5eab00d45a85f509b69b78c2,cx565vc6ry,Nick_Dissertation_EX1,1,15,2020-06-02T09:06:01-07:00,4.6194310188293,1,versionA_stim.csv,READVersionA.csv,"Read Version A","Dissertation, read only version A",BLOW,WIND,Study1,S,55,65,Study,User,-,,Study/JOL,"Study Phase",3992,,,-1,-1,,,,1
5eab00d45a85f509b69b78c2,cx565vc6ry,Nick_Dissertation_EX1,1,16,2020-06-02T09:06:03-07:00,1.9774770736694,1,versionA_stim.csv,READVersionA.csv,"Read Version A","Dissertation, read only version A",TUNA,FISH,Study1,F,25,42,Study,User,-,,Study/JOL,"Study Phase",1417,,,-1,-1,,,,1
5eab00d45a85f509b69b78c2,cx565vc6ry,Nick_Dissertation_EX1,1,17,2020-06-02T09:06:08-07:00,5.4419250488281,1,versionA_stim.csv,READVersionA.csv,"Read Version A","Dissertation, read only version A",SMELL,STENCH,Study1,B,42,40,Study,User,-,,Study/JOL,"Study Phase",4631,,,-1,-1,,,,1
5eab00d45a85f509b69b78c2,cx565vc6ry,Nick_Dissertation_EX1,1,18,2020-06-02T09:06:12-07:00,3.3221578598022,1,versionA_stim.csv,READVersionA.csv,"Read Version A","Dissertation, read only version A",FIX,HAND,Study1,U,75,22,Study,User,-,,Study/JOL,"Study Phase",2721,,,-1,-1,,,,1
5eab00d45a85f509b69b78c2,cx565vc6ry,Nick_Dissertation_EX1,1,19,2020-06-02T09:06:16-07:00,4.670047044754,1,versionA_stim.csv,READVersionA.csv,"Read Version A","Dissertation, read only version A",PUSHER,CLUTTER,Study1,U,66,73,Study,User,-,,Study/JOL,"Study Phase",4108,,,-1,-1,,,,1
5eab00d45a85f509b69b78c2,cx565vc6ry,Nick_Dissertation_EX1,1,20,2020-06-02T09:06:22-07:00,5.1939580440521,1,versionA_stim.csv,READVersionA.csv,"Read Version A","Dissertation, read only version A",CHISEL,HAMMER,Study1,F,9,38,Study,User,-,,Study/JOL,"Study Phase",4631,,,-1,-1,,,,1
5eab00d45a85f509b69b78c2,cx565vc6ry,Nick_Dissertation_EX1,1,21,2020-06-02T09:06:24-07:00,2.3590550422668,1,versionA_stim.csv,READVersionA.csv,"Read Version A","Dissertation, read only version A",MATH,DIVISION,Study1,B,33,66,Study,User,-,,Study/JOL,"Study Phase",1842,,,-1,-1,,,,1
5eab00d45a85f509b69b78c2,cx565vc6ry,Nick_Dissertation_EX1,1,22,2020-06-02T09:06:26-07:00,2.3673050403595,1,versionA_stim.csv,READVersionA.csv,"Read Version A","Dissertation, read only version A",HAPPY,CAR,Study1,U,77,53,Study,User,-,,Study/JOL,"Study Phase",1810,,,-1,-1,,,,1
5eab00d45a85f509b69b78c2,cx565vc6ry,Nick_Dissertation_EX1,1,23,2020-06-02T09:06:30-07:00,3.217257976532,1,versionA_stim.csv,READVersionA.csv,"Read Version A","Dissertation, read only version A",GRILL,BAR,Study1,S,52,83,Study,User,-,,Study/JOL,"Study Phase",2641,,,-1,-1,,,,1
5eab00d45a85f509b69b78c2,cx565vc6ry,Nick_Dissertation_EX1,1,24,2020-06-02T09:06:32-07:00,2.6202030181885,1,versionA_stim.csv,READVersionA.csv,"Read Version A","Dissertation, read only version A",DARK,CAVE,Study1,B,28,58,Study,User,-,,Study/JOL,"Study Phase",2044,,,-1,-1,,,,1
5eab00d45a85f509b69b78c2,cx565vc6ry,Nick_Dissertation_EX1,1,25,2020-06-02T09:06:37-07:00,4.4231948852539,1,versionA_stim.csv,READVersionA.csv,"Read Version A","Dissertation, read only version A",DEATH,BUSINESS,Study1,U,72,31,Study,User,-,,Study/JOL,"Study Phase",3865,,,-1,-1,,,,1
5eab00d45a85f509b69b78c2,cx565vc6ry,Nick_Dissertation_EX1,1,26,2020-06-02T09:06:42-07:00,4.9300940036774,1,versionA_stim.csv,READVersionA.csv,"Read Version A","Dissertation, read only version A",VALLEY,ADD,Study1,U,82,76,Study,User,-,,Study/JOL,"Study Phase",4304,,,-1,-1,,,,1
5eab00d45a85f509b69b78c2,cx565vc6ry,Nick_Dissertation_EX1,1,27,2020-06-02T09:06:45-07:00,3.3596720695496,1,versionA_stim.csv,READVersionA.csv,"Read Version A","Dissertation, read only version A",DRINK,SIP,Study1,B,27,32,Study,User,-,,Study/JOL,"Study Phase",2737,,,-1,-1,,,,1
5eab00d45a85f509b69b78c2,cx565vc6ry,Nick_Dissertation_EX1,1,28,2020-06-02T09:06:49-07:00,4.229218006134,1,versionA_stim.csv,READVersionA.csv,"Read Version A","Dissertation, read only version A",FULL,ENOUGH,Study1,B,26,80,Study,User,-,,Study/JOL,"Study Phase",3610,,,-1,-1,,,,1
5eab00d45a85f509b69b78c2,cx565vc6ry,Nick_Dissertation_EX1,1,29,2020-06-02T09:06:52-07:00,2.8510460853577,1,versionA_stim.csv,READVersionA.csv,"Read Version A","Dissertation, read only version A",CASH,WOULD,Study1,U,83,60,Study,User,-,,Study/JOL,"Study Phase",2251,,,-1,-1,,,,1
5eab00d45a85f509b69b78c2,cx565vc6ry,Nick_Dissertation_EX1,1,30,2020-06-02T09:06:56-07:00,3.7188627719879,1,versionA_stim.csv,READVersionA.csv,"Read Version A","Dissertation, read only version A",ALLOW,TUCK,Study1,U,78,77,Study,User,-,,Study/JOL,"Study Phase",3122,,,-1,-1,,,,1
5eab00d45a85f509b69b78c2,cx565vc6ry,Nick_Dissertation_EX1,1,31,2020-06-02T09:07:00-07:00,3.8995721340179,1,versionA_stim.csv,READVersionA.csv,"Read Version A","Dissertation, read only version A",LOCATION,SITE,Study1,S,48,13,Study,User,-,,Study/JOL,"Study Phase",3250,,,-1,-1,,,,1
5eab00d45a85f509b69b78c2,cx565vc6ry,Nick_Dissertation_EX1,1,32,2020-06-02T09:07:02-07:00,2.8023409843445,1,versionA_stim.csv,READVersionA.csv,"Read Version A","Dissertation, read only version A",DISCUSSION,TALK,Study1,F,21,47,Study,User,-,,Study/JOL,"Study Phase",2240,,,-1,-1,,,,1
5eab00d45a85f509b69b78c2,cx565vc6ry,Nick_Dissertation_EX1,1,33,2020-06-02T09:07:08-07:00,5.6129179000854,1,versionA_stim.csv,READVersionA.csv,"Read Version A","Dissertation, read only version A",PLANE,PILOT,Study1,B,44,57,Study,User,-,,Study/JOL,"Study Phase",5100,,,-1,-1,,,,1
5eab00d45a85f509b69b78c2,cx565vc6ry,Nick_Dissertation_EX1,1,34,2020-06-02T09:07:11-07:00,2.9810540676117,1,versionA_stim.csv,READVersionA.csv,"Read Version A","Dissertation, read only version A",ART,LION,Study1,U,79,69,Study,User,-,,Study/JOL,"Study Phase",2362,,,-1,-1,,,,1
5eab00d45a85f509b69b78c2,cx565vc6ry,Nick_Dissertation_EX1,1,35,2020-06-02T09:07:15-07:00,3.6323659420013,1,versionA_stim.csv,READVersionA.csv,"Read Version A","Dissertation, read only version A",FIRE,BLAZE,Study1,B,45,30,Study,User,-,,Study/JOL,"Study Phase",3026,,,-1,-1,,,,1
5eab00d45a85f509b69b78c2,cx565vc6ry,Nick_Dissertation_EX1,1,36,2020-06-02T09:07:17-07:00,2.1581649780273,1,versionA_stim.csv,READVersionA.csv,"Read Version A","Dissertation, read only version A",GREAT,FANTASTIC,Study1,B,35,86,Study,User,-,,Study/JOL,"Study Phase",1592,,,-1,-1,,,,1
5eab00d45a85f509b69b78c2,cx565vc6ry,Nick_Dissertation_EX1,1,37,2020-06-02T09:07:19-07:00,2.5121011734009,1,versionA_stim.csv,READVersionA.csv,"Read Version A","Dissertation, read only version A",BATHROOM,TOILET,Study1,S,58,7,Study,User,-,,Study/JOL,"Study Phase",1927,,,-1,-1,,,,1
5eab00d45a85f509b69b78c2,cx565vc6ry,Nick_Dissertation_EX1,1,38,2020-06-02T09:07:22-07:00,2.6322100162506,1,versionA_stim.csv,READVersionA.csv,"Read Version A","Dissertation, read only version A",SWAN,BIRD,Study1,F,14,26,Study,User,-,,Study/JOL,"Study Phase",1963,,,-1,-1,,,,1
5eab00d45a85f509b69b78c2,cx565vc6ry,Nick_Dissertation_EX1,1,39,2020-06-02T09:07:26-07:00,3.6532309055328,1,versionA_stim.csv,READVersionA.csv,"Read Version A","Dissertation, read only version A",WAY,OUT,Study1,F,16,12,Study,User,-,,Study/JOL,"Study Phase",2986,,,-1,-1,,,,1
5eab00d45a85f509b69b78c2,cx565vc6ry,Nick_Dissertation_EX1,1,40,2020-06-02T09:07:28-07:00,2.7623400688171,1,versionA_stim.csv,READVersionA.csv,"Read Version A","Dissertation, read only version A",WORK,CHORE,Study1,B,39,82,Study,User,-,,Study/JOL,"Study Phase",2216,,,-1,-1,,,,1
5eab00d45a85f509b69b78c2,cx565vc6ry,Nick_Dissertation_EX1,1,41,2020-06-02T09:07:31-07:00,2.9535598754883,1,versionA_stim.csv,READVersionA.csv,"Read Version A","Dissertation, read only version A",DUMP,WASTE,Study1,S,49,18,Study,User,-,,Study/JOL,"Study Phase",2281,,,-1,-1,,,,1
5eab00d45a85f509b69b78c2,cx565vc6ry,Nick_Dissertation_EX1,1,42,2020-06-02T09:07:34-07:00,2.7611601352692,1,versionA_stim.csv,READVersionA.csv,"Read Version A","Dissertation, read only version A",BEGIN,END,Study1,S,54,11,Study,User,-,,Study/JOL,"Study Phase",2140,,,-1,-1,,,,1
5eab00d45a85f509b69b78c2,cx565vc6ry,Nick_Dissertation_EX1,1,43,2020-06-02T09:07:38-07:00,4.06085896492,1,versionA_stim.csv,READVersionA.csv,"Read Version A","Dissertation, read only version A",DEBATE,SIGHT,Study1,U,73,63,Study,User,-,,Study/JOL,"Study Phase",3464,,,-1,-1,,,,1
5eab00d45a85f509b69b78c2,cx565vc6ry,Nick_Dissertation_EX1,1,44,2020-06-02T09:07:42-07:00,3.4676380157471,1,versionA_stim.csv,READVersionA.csv,"Read Version A","Dissertation, read only version A",SUGAR,RIDDLE,Study1,U,81,27,Study,User,-,,Study/JOL,"Study Phase",2780,,,-1,-1,,,,1
5eab00d45a85f509b69b78c2,cx565vc6ry,Nick_Dissertation_EX1,1,45,2020-06-02T09:07:46-07:00,4.0161640644073,1,versionA_stim.csv,READVersionA.csv,"Read Version A","Dissertation, read only version A",HYGIENE,CLEAN,Study1,F,17,50,Study,User,-,,Study/JOL,"Study Phase",3210,,,-1,-1,,,,1
5eab00d45a85f509b69b78c2,cx565vc6ry,Nick_Dissertation_EX1,1,46,2020-06-02T09:07:48-07:00,2.5621519088745,1,versionA_stim.csv,READVersionA.csv,"Read Version A","Dissertation, read only version A",MACHINE,POSITION,Study1,U,76,23,Study,User,-,,Study/JOL,"Study Phase",2000,,,-1,-1,,,,1
5eab00d45a85f509b69b78c2,cx565vc6ry,Nick_Dissertation_EX1,1,47,2020-06-02T09:07:55-07:00,6.4811279773712,1,versionA_stim.csv,READVersionA.csv,"Read Version A","Dissertation, read only version A",WINE,CHEESE,Study1,S,57,37,Study,User,-,,Study/JOL,"Study Phase",5778,,,-1,-1,,,,1
5eab00d45a85f509b69b78c2,cx565vc6ry,Nick_Dissertation_EX1,1,48,2020-06-02T09:07:58-07:00,3.0629329681396,1,versionA_stim.csv,READVersionA.csv,"Read Version A","Dissertation, read only version A",ARTERY,BRONZE,Study1,U,74,62,Study,User,-,,Study/JOL,"Study Phase",2465,,,-1,-1,,,,1
5eab00d45a85f509b69b78c2,cx565vc6ry,Nick_Dissertation_EX1,1,49,2020-06-02T09:08:02-07:00,4.1115300655365,1,versionA_stim.csv,READVersionA.csv,"Read Version A","Dissertation, read only version A",LIFT,WOMAN,Study1,U,69,72,Study,User,-,,Study/JOL,"Study Phase",3538,,,-1,-1,,,,1
5eab00d45a85f509b69b78c2,cx565vc6ry,Nick_Dissertation_EX1,1,50,2020-06-02T09:08:05-07:00,3.6464960575104,1,versionA_stim.csv,READVersionA.csv,"Read Version A","Dissertation, read only version A",BUG,WASP,Study1,B,32,15,Study,User,-,,Study/JOL,"Study Phase",2950,,,-1,-1,,,,1
5eab00d45a85f509b69b78c2,cx565vc6ry,Nick_Dissertation_EX1,1,51,2020-06-02T09:08:10-07:00,4.7982869148254,1,versionA_stim.csv,READVersionA.csv,"Read Version A","Dissertation, read only version A",BABY,CHILD,Study1,S,64,49,Study,User,-,,Study/JOL,"Study Phase",4119,,,-1,-1,,,,1
5eab00d45a85f509b69b78c2,cx565vc6ry,Nick_Dissertation_EX1,1,52,2020-06-02T09:08:15-07:00,4.2540531158447,1,versionA_stim.csv,READVersionA.csv,"Read Version A","Dissertation, read only version A",HERD,COW,Study1,F,22,35,Study,User,-,,Study/JOL,"Study Phase",3500,,,-1,-1,,,,1
5eab00d45a85f509b69b78c2,cx565vc6ry,Nick_Dissertation_EX1,1,53,2020-06-02T09:08:20-07:00,5.3930399417877,1,versionA_stim.csv,READVersionA.csv,"Read Version A","Dissertation, read only version A",BRIDGE,WATER,Study1,F,18,14,Study,User,-,,Study/JOL,"Study Phase",4769,,,-1,-1,,,,1
5eab00d45a85f509b69b78c2,cx565vc6ry,Nick_Dissertation_EX1,1,54,2020-06-02T09:08:24-07:00,4.2142078876495,1,versionA_stim.csv,READVersionA.csv,"Read Version A","Dissertation, read only version A",HIDE,SICK,Study1,U,84,33,Study,User,-,,Study/JOL,"Study Phase",3560,,,-1,-1,,,,1
5eab00d45a85f509b69b78c2,cx565vc6ry,Nick_Dissertation_EX1,1,55,2020-06-02T09:08:27-07:00,2.3923170566559,1,versionA_stim.csv,READVersionA.csv,"Read Version A","Dissertation, read only version A",REVOLUTION,WAR,Study1,F,20,74,Study,User,-,,Study/JOL,"Study Phase",1720,,,-1,-1,,,,1
5eab00d45a85f509b69b78c2,cx565vc6ry,Nick_Dissertation_EX1,1,56,2020-06-02T09:08:30-07:00,3.4034180641174,1,versionA_stim.csv,READVersionA.csv,"Read Version A","Dissertation, read only version A",SENTENCE,WORD,Study1,B,31,24,Study,User,-,,Study/JOL,"Study Phase",2569,,,-1,-1,,,,1
5eab00d45a85f509b69b78c2,cx565vc6ry,Nick_Dissertation_EX1,1,57,2020-06-02T09:08:32-07:00,2.3585050106049,1,versionA_stim.csv,READVersionA.csv,"Read Version A","Dissertation, read only version A",DIGESTION,STOMACH,Study1,F,7,64,Study,User,-,,Study/JOL,"Study Phase",1709,,,-1,-1,,,,1
5eab00d45a85f509b69b78c2,cx565vc6ry,Nick_Dissertation_EX1,1,58,2020-06-02T09:08:35-07:00,2.6849098205566,1,versionA_stim.csv,READVersionA.csv,"Read Version A","Dissertation, read only version A",MEANING,DEFINITION,Study1,S,62,29,Study,User,-,,Study/JOL,"Study Phase",1993,,,-1,-1,,,,1
5eab00d45a85f509b69b78c2,cx565vc6ry,Nick_Dissertation_EX1,1,59,2020-06-02T09:08:39-07:00,3.5689141750336,1,versionA_stim.csv,READVersionA.csv,"Read Version A","Dissertation, read only version A",HEIGHT,GROWTH,Study1,B,30,45,Study,User,-,,Study/JOL,"Study Phase",1985,,,-1,-1,,,,1
5eab00d45a85f509b69b78c2,cx565vc6ry,Nick_Dissertation_EX1,1,60,2020-06-02T09:08:43-07:00,4.2350218296051,1,versionA_stim.csv,READVersionA.csv,"Read Version A","Dissertation, read only version A",TRIAL,JURY,Study1,S,50,8,Study,User,-,,Study/JOL,"Study Phase",3565,,,-1,-1,,,,1
5eab00d45a85f509b69b78c2,cx565vc6ry,Nick_Dissertation_EX1,1,61,2020-06-02T09:08:49-07:00,5.794084072113,1,versionA_stim.csv,READVersionA.csv,"Read Version A","Dissertation, read only version A",ROOT,PLANT,Study1,F,13,78,Study,User,-,,Study/JOL,"Study Phase",5228,,,-1,-1,,,,1
5eab00d45a85f509b69b78c2,cx565vc6ry,Nick_Dissertation_EX1,1,62,2020-06-02T09:08:52-07:00,3.1723580360413,1,versionA_stim.csv,READVersionA.csv,"Read Version A","Dissertation, read only version A",CIRCLE,ROUND,Study1,S,65,41,Study,User,-,,Study/JOL,"Study Phase",2542,,,-1,-1,,,,1
5eab00d45a85f509b69b78c2,cx565vc6ry,Nick_Dissertation_EX1,1,63,2020-06-02T09:08:55-07:00,2.9416539669037,1,versionA_stim.csv,READVersionA.csv,"Read Version A","Dissertation, read only version A",DUE,ASSIGNMENT,Study1,S,46,20,Study,User,-,,Study/JOL,"Study Phase",2165,,,-1,-1,,,,1
5eab00d45a85f509b69b78c2,cx565vc6ry,Nick_Dissertation_EX1,1,64,2020-06-02T09:08:59-07:00,4.8141779899597,1,versionA_stim.csv,READVersionA.csv,"Read Version A","Dissertation, read only version A",ORCHID,FLOWER,Study1,F,24,52,Study,User,-,,Study/JOL,"Study Phase",4271,,,-1,-1,,,,1
5eab00d45a85f509b69b78c2,cx565vc6ry,Nick_Dissertation_EX1,1,65,2020-06-02T09:09:02-07:00,2.8677899837494,1,versionA_stim.csv,READVersionA.csv,"Read Version A","Dissertation, read only version A",PAST,FUTURE,Study1,S,61,44,Study,User,-,,Study/JOL,"Study Phase",2224,,,-1,-1,,,,1
5eab00d45a85f509b69b78c2,cx565vc6ry,Nick_Dissertation_EX1,1,66,2020-06-02T09:09:05-07:00,2.8286530971527,1,versionA_stim.csv,READVersionA.csv,"Read Version A","Dissertation, read only version A",HORNET,STING,Study1,F,11,17,Study,User,-,,Study/JOL,"Study Phase",2109,,,-1,-1,,,,1
5eab00d45a85f509b69b78c2,cx565vc6ry,Nick_Dissertation_EX1,1,67,2020-06-02T09:09:08-07:00,2.9977269172668,1,versionA_stim.csv,READVersionA.csv,"Read Version A","Dissertation, read only version A",HOT,CHILI,Study1,B,37,75,Study,User,-,,Study/JOL,"Study Phase",2419,,,-1,-1,,,,1
5eab00d45a85f509b69b78c2,cx565vc6ry,Nick_Dissertation_EX1,1,68,2020-06-02T09:09:11-07:00,2.3282430171967,1,versionA_stim.csv,READVersionA.csv,"Read Version A","Dissertation, read only version A",SHOE,FOOT,Study1,S,60,16,Study,User,-,,Study/JOL,"Study Phase",1755,,,-1,-1,,,,1
5eab00d45a85f509b69b78c2,cx565vc6ry,Nick_Dissertation_EX1,1,69,2020-06-02T09:09:14-07:00,3.0346989631653,1,versionA_stim.csv,READVersionA.csv,"Read Version A","Dissertation, read only version A",STRONG,ACCIDENT,Study1,U,80,25,Study,User,-,,Study/JOL,"Study Phase",2223,,,-1,-1,,,,1
5eab00d45a85f509b69b78c2,cx565vc6ry,Nick_Dissertation_EX1,1,70,2020-06-02T09:09:15-07:00,1.7300591468811,1,versionA_stim.csv,READVersionA.csv,"Read Version A","Dissertation, read only version A",DISCOVER,FLOOR,Study1,U,71,9,Study,User,-,,Study/JOL,"Study Phase",1131,,,-1,-1,,,,1
5eab00d45a85f509b69b78c2,cx565vc6ry,Nick_Dissertation_EX1,1,71,2020-06-02T09:09:18-07:00,3.0938148498535,1,versionA_stim.csv,READVersionA.csv,"Read Version A","Dissertation, read only version A",DELINQUENT,BAD,Study1,F,6,39,Study,User,-,,Study/JOL,"Study Phase",2396,,,-1,-1,,,,1
5eab00d45a85f509b69b78c2,cx565vc6ry,Nick_Dissertation_EX1,1,72,2020-06-02T09:09:21-07:00,2.4352340698242,1,versionA_stim.csv,READVersionA.csv,"Read Version A","Dissertation, read only version A",KIDNEY,LIVER,Study1,S,53,85,Study,User,-,,Study/JOL,"Study Phase",1881,,,-1,-1,,,,1
5eab00d45a85f509b69b78c2,cx565vc6ry,Nick_Dissertation_EX1,1,73,2020-06-02T09:09:24-07:00,2.8143229484558,1,versionA_stim.csv,READVersionA.csv,"Read Version A","Dissertation, read only version A",ARCHITECTURE,DESIGN,Study1,S,51,84,Study,User,-,,Study/JOL,"Study Phase",2172,,,-1,-1,,,,1
5eab00d45a85f509b69b78c2,cx565vc6ry,Nick_Dissertation_EX1,1,74,2020-06-02T09:09:27-07:00,3.8651371002197,1,versionA_stim.csv,READVersionA.csv,"Read Version A","Dissertation, read only version A",KEY,LATCH,Study1,B,36,70,Study,User,-,,Study/JOL,"Study Phase",3286,,,-1,-1,,,,1
5eab00d45a85f509b69b78c2,cx565vc6ry,Nick_Dissertation_EX1,1,75,2020-06-02T09:09:30-07:00,2.5013689994812,1,versionA_stim.csv,READVersionA.csv,"Read Version A","Dissertation, read only version A",HONEY,BEE,Study1,S,63,61,Study,User,-,,Study/JOL,"Study Phase",1847,,,-1,-1,,,,1
5eab00d45a85f509b69b78c2,cx565vc6ry,Nick_Dissertation_EX1,1,76,2020-06-02T09:09:34-07:00,3.5680818557739,1,versionA_stim.csv,READVersionA.csv,"Read Version A","Dissertation, read only version A",LAW,ATTORNEY,Study1,B,34,34,Study,User,-,,Study/JOL,"Study Phase",2943,,,-1,-1,,,,1
5eab00d45a85f509b69b78c2,cx565vc6ry,Nick_Dissertation_EX1,1,77,2020-06-02T09:09:36-07:00,2.2474980354309,1,versionA_stim.csv,READVersionA.csv,"Read Version A","Dissertation, read only version A",WAGE,MONEY,Study1,F,8,43,Study,User,-,,Study/JOL,"Study Phase",1562,,,-1,-1,,,,1
5eab00d45a85f509b69b78c2,cx565vc6ry,Nick_Dissertation_EX1,1,78,2020-06-02T09:09:39-07:00,3.302768945694,1,versionA_stim.csv,READVersionA.csv,"Read Version A","Dissertation, read only version A",HUNGER,FAMINE,Study1,B,40,46,Study,User,-,,Study/JOL,"Study Phase",2679,,,-1,-1,,,,1
5eab00d45a85f509b69b78c2,cx565vc6ry,Nick_Dissertation_EX1,1,79,2020-06-02T09:09:44-07:00,5.3324241638184,1,versionA_stim.csv,READVersionA.csv,"Read Version A","Dissertation, read only version A",SOON,BELT,Study1,U,70,71,Study,User,-,,Study/JOL,"Study Phase",4632,,,-1,-1,,,,1
5eab00d45a85f509b69b78c2,cx565vc6ry,Nick_Dissertation_EX1,1,80,2020-06-02T09:09:47-07:00,2.7841508388519,1,versionA_stim.csv,READVersionA.csv,"Read Version A","Dissertation, read only version A",TAKE,SEIZE,Study1,B,29,28,Study,User,-,,Study/JOL,"Study Phase",2173,,,-1,-1,,,,1
5eab00d45a85f509b69b78c2,cx565vc6ry,Nick_Dissertation_EX1,1,81,2020-06-02T09:09:51-07:00,3.3991761207581,1,versionA_stim.csv,READVersionA.csv,"Read Version A","Dissertation, read only version A",PARK,HUNGRY,Study1,U,68,10,Study,User,-,,Study/JOL,"Study Phase",2812,,,-1,-1,,,,1
5eab00d45a85f509b69b78c2,cx565vc6ry,Nick_Dissertation_EX1,1,82,2020-06-02T09:09:53-07:00,2.408075094223,1,versionA_stim.csv,READVersionA.csv,"Read Version A","Dissertation, read only version A",LETTUCE,SALAD,Study1,S,59,36,Study,User,-,,Study/JOL,"Study Phase",1772,,,-1,-1,,,,1
5eab00d45a85f509b69b78c2,cx565vc6ry,Nick_Dissertation_EX1,1,83,2020-06-02T09:09:58-07:00,5.1744568347931,1,versionA_stim.csv,READVersionA.csv,"Read Version A","Dissertation, read only version A",SLEEP,DROWSY,Study1,B,41,51,Study,User,-,,Study/JOL,"Study Phase",4578,,,-1,-1,,,,1
5eab00d45a85f509b69b78c2,cx565vc6ry,Nick_Dissertation_EX1,1,84,2020-06-02T09:10:01-07:00,2.6071529388428,1,versionA_stim.csv,READVersionA.csv,"Read Version A","Dissertation, read only version A",NUMBER,AMOUNT,Study1,S,47,68,Study,User,-,,Study/JOL,"Study Phase",1995,,,-1,-1,,,,1
5eab00d45a85f509b69b78c2,cx565vc6ry,Nick_Dissertation_EX1,1,85,2020-06-02T09:10:04-07:00,2.8092050552368,1,versionA_stim.csv,READVersionA.csv,"Read Version A","Dissertation, read only version A",BALL,RACKET,Study1,B,38,59,Study,User,-,,Study/JOL,"Study Phase",2148,,,-1,-1,,,,1
5eab00d45a85f509b69b78c2,cx565vc6ry,Nick_Dissertation_EX1,1,86,2020-06-02T09:10:06-07:00,2.8357820510864,1,versionA_stim.csv,READVersionA.csv,"Read Version A","Dissertation, read only version A",POP,SODA,Study1,S,56,55,Study,User,-,,Study/JOL,"Study Phase",2254,,,-1,-1,,,,1
5eab00d45a85f509b69b78c2,cx565vc6ry,Nick_Dissertation_EX1,1,87,2020-06-02T09:10:10-07:00,3.7870740890503,1,versionA_stim.csv,READVersionA.csv,"Read Version A","Dissertation, read only version A",MOON,SPACE,BUFFER2,Buffer,89,87,Study,User,-,,Study/JOL,BUFFER2,2076,,,-1,-1,,,,1
5eab00d45a85f509b69b78c2,cx565vc6ry,Nick_Dissertation_EX1,1,88,2020-06-02T09:10:16-07:00,5.3259339332581,1,versionA_stim.csv,READVersionA.csv,"Read Version A","Dissertation, read only version A",MALT,CHOCOLATE,BUFFER2,Buffer,88,90,Study,User,-,,Study/JOL,BUFFER2,4676,,,-1,-1,,,,1
5eab00d45a85f509b69b78c2,cx565vc6ry,Nick_Dissertation_EX1,1,89,2020-06-02T09:10:20-07:00,4.8427259922028,1,versionA_stim.csv,READVersionA.csv,"Read Version A","Dissertation, read only version A",SHERRIF,POLICE,BUFFER2,Buffer,87,89,Study,User,-,,Study/JOL,BUFFER2,4198,,,-1,-1,,,,1
5eab00d45a85f509b69b78c2,cx565vc6ry,Nick_Dissertation_EX1,1,90,2020-06-02T09:10:23-07:00,2.5303308963776,1,versionA_stim.csv,READVersionA.csv,"Read Version A","Dissertation, read only version A",GEESE,GOOSE,BUFFER2,Buffer,86,88,Study,User,-,,Study/JOL,BUFFER2,1863,,,-1,-1,,,,1
5eab00d45a85f509b69b78c2,cx565vc6ry,Nick_Dissertation_EX1,1,91,2020-06-02T09:10:27-07:00,3.986750125885,1,versionA_stim.csv,READVersionA.csv,"Read Version A","Dissertation, read only version A",THING,STUFF,BUFFER2,Buffer,90,91,Study,User,-,,Study/JOL,BUFFER2,2329,,,-1,-1,,,,1
5eab00d45a85f509b69b78c2,cx565vc6ry,Nick_Dissertation_EX1,1,92,2020-06-02T09:10:30-07:00,2.6838099956512,1,versionA_stim.csv,READVersionA.csv,"Read Version A","Dissertation, read only version A",,,,,,0,Instruct,User,-,"You have completed this section. Please press Enter.",Filler_Instruction,Instruct2,2088,,,-1,-1,,,,1
5eab00d45a85f509b69b78c2,cx565vc6ry,Nick_Dissertation_EX1,1,93,2020-06-02T09:12:30-07:00,120.77271986008,1,versionA_stim.csv,READVersionA.csv,"Read Version A","Dissertation, read only version A",,,,,,0,FreeRecall,120,120,"Please list the 50 US states in alphabetical order. The task will automatically advance to the next screen after two minutes.",,Filler1,120007,"Alabama, Utah, California, Conneticut, New Jersey, New Mexico, New York,",0,20504,119789,0,0,,1
5eab00d45a85f509b69b78c2,cx565vc6ry,Nick_Dissertation_EX1,1,94,2020-06-02T09:12:58-07:00,27.687977075577,1,versionA_stim.csv,READVersionA.csv,"Read Version A","Dissertation, read only version A",,,,,,0,Instruct,-,10,"You will now be presented with the first word from each of the previously studied item pairs. Please type the missing word. If you do not know the word, you may guess or press Enter to skip forward to the next pair.",,Instruct3,26888,,,-1,-1,,,,1
5eab00d45a85f509b69b78c2,cx565vc6ry,Nick_Dissertation_EX1,1,95,2020-06-02T09:13:04-07:00,5.5473220348358,1,versionA_stim.csv,READVersionA.csv,"Read Version A","Dissertation, read only version A",EDITOR,NEWS,Study1,F,10,21,Test,User,-,,Recall,Recall1,4659,NEWS,100,3173,3651,1,1,,1
5eab00d45a85f509b69b78c2,cx565vc6ry,Nick_Dissertation_EX1,1,96,2020-06-02T09:13:13-07:00,9.5787599086761,1,versionA_stim.csv,READVersionA.csv,"Read Version A","Dissertation, read only version A",ALLOW,TUCK,Study1,U,78,77,Test,User,-,,Recall,Recall1,8978,,0,-1,-1,0,0,,1
5eab00d45a85f509b69b78c2,cx565vc6ry,Nick_Dissertation_EX1,1,97,2020-06-02T09:13:18-07:00,4.4836201667786,1,versionA_stim.csv,READVersionA.csv,"Read Version A","Dissertation, read only version A",PAST,FUTURE,Study1,S,61,44,Test,User,-,,Recall,Recall1,3781,FUTURE,100,2078,2841,1,1,,1
5eab00d45a85f509b69b78c2,cx565vc6ry,Nick_Dissertation_EX1,1,98,2020-06-02T09:13:28-07:00,10.099401950836,1,versionA_stim.csv,READVersionA.csv,"Read Version A","Dissertation, read only version A",BITTER,COLD,Study1,F,12,81,Test,User,-,,Recall,Recall1,9425,,0,-1,-1,0,0,,1
5eab00d45a85f509b69b78c2,cx565vc6ry,Nick_Dissertation_EX1,1,99,2020-06-02T09:13:37-07:00,9.0478339195251,1,versionA_stim.csv,READVersionA.csv,"Read Version A","Dissertation, read only version A",DEATH,BUSINESS,Study1,U,72,31,Test,User,-,,Recall,Recall1,8247,BUSINESS,100,4497,7289,1,1,,1
5eab00d45a85f509b69b78c2,cx565vc6ry,Nick_Dissertation_EX1,1,100,2020-06-02T09:13:42-07:00,5.086678981781,1,versionA_stim.csv,READVersionA.csv,"Read Version A","Dissertation, read only version A",DEBATE,SIGHT,Study1,U,73,63,Test,User,-,,Recall,Recall1,4509,,0,-1,-1,0,0,,1
5eab00d45a85f509b69b78c2,cx565vc6ry,Nick_Dissertation_EX1,1,101,2020-06-02T09:13:55-07:00,13.551097154617,1,versionA_stim.csv,READVersionA.csv,"Read Version A","Dissertation, read only version A",NUMBER,AMOUNT,Study1,S,47,68,Test,User,-,,Recall,Recall1,12817,,0,9472,9897,0,0,,1
5eab00d45a85f509b69b78c2,cx565vc6ry,Nick_Dissertation_EX1,1,102,2020-06-02T09:14:05-07:00,9.1328639984131,1,versionA_stim.csv,READVersionA.csv,"Read Version A","Dissertation, read only version A",POP,SODA,Study1,S,56,55,Test,User,-,,Recall,Recall1,8389,,0,-1,-1,0,0,,1
5eab00d45a85f509b69b78c2,cx565vc6ry,Nick_Dissertation_EX1,1,103,2020-06-02T09:14:17-07:00,12.73371386528,1,versionA_stim.csv,READVersionA.csv,"Read Version A","Dissertation, read only version A",KING,VASE,Study1,U,85,56,Test,User,-,,Recall,Recall1,12060,SUGAR,22.222222222222,6374,11251,0,0,,1
5eab00d45a85f509b69b78c2,cx565vc6ry,Nick_Dissertation_EX1,1,104,2020-06-02T09:14:24-07:00,6.993371963501,1,versionA_stim.csv,READVersionA.csv,"Read Version A","Dissertation, read only version A",DISCUSSION,TALK,Study1,F,21,47,Test,User,-,,Recall,Recall1,6312,DEBATE,20,3422,4232,0,0,,1
5eab00d45a85f509b69b78c2,cx565vc6ry,Nick_Dissertation_EX1,1,105,2020-06-02T09:14:35-07:00,10.748543977737,1,versionA_stim.csv,READVersionA.csv,"Read Version A","Dissertation, read only version A",ARCHITECTURE,DESIGN,Study1,S,51,84,Test,User,-,,Recall,Recall1,10035,BUILDING,28.571428571429,7164,9080,0,0,,1
5eab00d45a85f509b69b78c2,cx565vc6ry,Nick_Dissertation_EX1,1,106,2020-06-02T09:14:43-07:00,7.970192193985,1,versionA_stim.csv,READVersionA.csv,"Read Version A","Dissertation, read only version A",HORNET,STING,Study1,F,11,17,Test,User,-,,Recall,Recall1,7207,BEE,0,6006,6330,0,0,,1
5eab00d45a85f509b69b78c2,cx565vc6ry,Nick_Dissertation_EX1,1,107,2020-06-02T09:15:01-07:00,18.176455020905,1,versionA_stim.csv,READVersionA.csv,"Read Version A","Dissertation, read only version A",DIETARY,SACKING,Study1,U,67,48,Test,User,-,,Recall,Recall1,17524,,0,-1,-1,0,0,,1
5eab00d45a85f509b69b78c2,cx565vc6ry,Nick_Dissertation_EX1,1,108,2020-06-02T09:15:26-07:00,24.926285982132,1,versionA_stim.csv,READVersionA.csv,"Read Version A","Dissertation, read only version A",KEY,LATCH,Study1,B,36,70,Test,User,-,,Recall,Recall1,24093,VALID,20,8439,21796,0,0,,1
5eab00d45a85f509b69b78c2,cx565vc6ry,Nick_Dissertation_EX1,1,109,2020-06-02T09:15:32-07:00,6.2590320110321,1,versionA_stim.csv,READVersionA.csv,"Read Version A","Dissertation, read only version A",SLEEP,DROWSY,Study1,B,41,51,Test,User,-,,Recall,Recall1,5479,BED,22.222222222222,4350,4618,0,0,,1
5eab00d45a85f509b69b78c2,cx565vc6ry,Nick_Dissertation_EX1,1,110,2020-06-02T09:15:35-07:00,2.5148639678955,1,versionA_stim.csv,READVersionA.csv,"Read Version A","Dissertation, read only version A",BALL,RACKET,Study1,B,38,59,Test,User,-,,Recall,Recall1,1856,,0,-1,-1,0,0,,1
5eab00d45a85f509b69b78c2,cx565vc6ry,Nick_Dissertation_EX1,1,111,2020-06-02T09:15:39-07:00,4.5668678283691,1,versionA_stim.csv,READVersionA.csv,"Read Version A","Dissertation, read only version A",HAPPY,CAR,Study1,U,77,53,Test,User,-,,Recall,Recall1,3858,,0,-1,-1,0,0,,1
5eab00d45a85f509b69b78c2,cx565vc6ry,Nick_Dissertation_EX1,1,112,2020-06-02T09:15:43-07:00,3.2544929981232,1,versionA_stim.csv,READVersionA.csv,"Read Version A","Dissertation, read only version A",CASH,WOULD,Study1,U,83,60,Test,User,-,,Recall,Recall1,2626,,0,-1,-1,0,0,,1
5eab00d45a85f509b69b78c2,cx565vc6ry,Nick_Dissertation_EX1,1,113,2020-06-02T09:15:47-07:00,3.9354932308197,1,versionA_stim.csv,READVersionA.csv,"Read Version A","Dissertation, read only version A",CREDIT,CARD,Study1,F,23,54,Test,User,-,,Recall,Recall1,3260,CARD,100,1785,2262,1,1,,1
5eab00d45a85f509b69b78c2,cx565vc6ry,Nick_Dissertation_EX1,1,114,2020-06-02T09:15:53-07:00,6.7743668556213,1,versionA_stim.csv,READVersionA.csv,"Read Version A","Dissertation, read only version A",DARK,CAVE,Study1,B,28,58,Test,User,-,,Recall,Recall1,6231,,0,-1,-1,0,0,,1
5eab00d45a85f509b69b78c2,cx565vc6ry,Nick_Dissertation_EX1,1,115,2020-06-02T09:15:57-07:00,3.4943640232086,1,versionA_stim.csv,READVersionA.csv,"Read Version A","Dissertation, read only version A",HERD,COW,Study1,F,22,35,Test,User,-,,Recall,Recall1,2814,,0,-1,-1,0,0,,1
5eab00d45a85f509b69b78c2,cx565vc6ry,Nick_Dissertation_EX1,1,116,2020-06-02T09:16:09-07:00,12.087289094925,1,versionA_stim.csv,READVersionA.csv,"Read Version A","Dissertation, read only version A",SUGAR,RIDDLE,Study1,U,81,27,Test,User,-,,Recall,Recall1,11293,,0,-1,-1,0,0,,1
5eab00d45a85f509b69b78c2,cx565vc6ry,Nick_Dissertation_EX1,1,117,2020-06-02T09:16:12-07:00,3.4325358867645,1,versionA_stim.csv,READVersionA.csv,"Read Version A","Dissertation, read only version A",HUNGER,FAMINE,Study1,B,40,46,Test,User,-,,Recall,Recall1,2743,,0,-1,-1,0,0,,1
5eab00d45a85f509b69b78c2,cx565vc6ry,Nick_Dissertation_EX1,1,118,2020-06-02T09:16:23-07:00,10.722831964493,1,versionA_stim.csv,READVersionA.csv,"Read Version A","Dissertation, read only version A",DELINQUENT,BAD,Study1,F,6,39,Test,User,-,,Recall,Recall1,10049,BAD,100,5499,5810,1,1,,1
5eab00d45a85f509b69b78c2,cx565vc6ry,Nick_Dissertation_EX1,1,119,2020-06-02T09:16:27-07:00,3.3107810020447,1,versionA_stim.csv,READVersionA.csv,"Read Version A","Dissertation, read only version A",FIX,HAND,Study1,U,75,22,Test,User,-,,Recall,Recall1,2667,,0,-1,-1,0,0,,1
5eab00d45a85f509b69b78c2,cx565vc6ry,Nick_Dissertation_EX1,1,120,2020-06-02T09:16:31-07:00,4.9256210327148,1,versionA_stim.csv,READVersionA.csv,"Read Version A","Dissertation, read only version A",ROOT,PLANT,Study1,F,13,78,Test,User,-,,Recall,Recall1,4324,TREE,22.222222222222,2582,3073,0,0,,1
5eab00d45a85f509b69b78c2,cx565vc6ry,Nick_Dissertation_EX1,1,121,2020-06-02T09:16:50-07:00,18.811720132828,1,versionA_stim.csv,READVersionA.csv,"Read Version A","Dissertation, read only version A",HIDE,SICK,Study1,U,84,33,Test,User,-,,Recall,Recall1,17526,SCARY,44.444444444444,2721,16028,0,0,,1
5eab00d45a85f509b69b78c2,cx565vc6ry,Nick_Dissertation_EX1,1,122,2020-06-02T09:16:54-07:00,4.1349248886108,1,versionA_stim.csv,READVersionA.csv,"Read Version A","Dissertation, read only version A",CHISEL,HAMMER,Study1,F,9,38,Test,User,-,,Recall,Recall1,3388,HAMMER,100,1855,2459,1,1,,1
5eab00d45a85f509b69b78c2,cx565vc6ry,Nick_Dissertation_EX1,1,123,2020-06-02T09:16:57-07:00,2.9642739295959,1,versionA_stim.csv,READVersionA.csv,"Read Version A","Dissertation, read only version A",HEIGHT,GROWTH,Study1,B,30,45,Test,User,-,,Recall,Recall1,2369,,0,-1,-1,0,0,,1
5eab00d45a85f509b69b78c2,cx565vc6ry,Nick_Dissertation_EX1,1,124,2020-06-02T09:17:04-07:00,6.9320740699768,1,versionA_stim.csv,READVersionA.csv,"Read Version A","Dissertation, read only version A",VALLEY,ADD,Study1,U,82,76,Test,User,-,,Recall,Recall1,6402,,0,-1,-1,0,0,,1
5eab00d45a85f509b69b78c2,cx565vc6ry,Nick_Dissertation_EX1,1,125,2020-06-02T09:17:07-07:00,2.6019489765167,1,versionA_stim.csv,READVersionA.csv,"Read Version A","Dissertation, read only version A",KIDNEY,LIVER,Study1,S,53,85,Test,User,-,,Recall,Recall1,1924,,0,-1,-1,0,0,,1
5eab00d45a85f509b69b78c2,cx565vc6ry,Nick_Dissertation_EX1,1,126,2020-06-02T09:17:12-07:00,4.9247241020203,1,versionA_stim.csv,READVersionA.csv,"Read Version A","Dissertation, read only version A",LOCATION,SITE,Study1,S,48,13,Test,User,-,,Recall,Recall1,4335,PLACE,22.222222222222,2827,3488,0,0,,1
5eab00d45a85f509b69b78c2,cx565vc6ry,Nick_Dissertation_EX1,1,127,2020-06-02T09:17:16-07:00,4.2863149642944,1,versionA_stim.csv,READVersionA.csv,"Read Version A","Dissertation, read only version A",BRIDGE,WATER,Study1,F,18,14,Test,User,-,,Recall,Recall1,3530,WATER,100,1830,2580,1,1,,1
5eab00d45a85f509b69b78c2,cx565vc6ry,Nick_Dissertation_EX1,1,128,2020-06-02T09:17:20-07:00,4.2934830188751,1,versionA_stim.csv,READVersionA.csv,"Read Version A","Dissertation, read only version A",REVOLUTION,WAR,Study1,F,20,74,Test,User,-,,Recall,Recall1,3649,,0,-1,-1,0,0,,1
5eab00d45a85f509b69b78c2,cx565vc6ry,Nick_Dissertation_EX1,1,129,2020-06-02T09:17:27-07:00,6.7791459560394,1,versionA_stim.csv,READVersionA.csv,"Read Version A","Dissertation, read only version A",SHOE,FOOT,Study1,S,60,16,Test,User,-,,Recall,Recall1,6194,,0,-1,-1,0,0,,1
5eab00d45a85f509b69b78c2,cx565vc6ry,Nick_Dissertation_EX1,1,130,2020-06-02T09:17:38-07:00,10.53312087059,1,versionA_stim.csv,READVersionA.csv,"Read Version A","Dissertation, read only version A",SWAN,BIRD,Study1,F,14,26,Test,User,-,,Recall,Recall1,9861,LAKE,0,7586,7956,0,0,,1
5eab00d45a85f509b69b78c2,cx565vc6ry,Nick_Dissertation_EX1,1,131,2020-06-02T09:17:40-07:00,2.3893270492554,1,versionA_stim.csv,READVersionA.csv,"Read Version A","Dissertation, read only version A",FULL,ENOUGH,Study1,B,26,80,Test,User,-,,Recall,Recall1,1682,,0,-1,-1,0,0,,1
5eab00d45a85f509b69b78c2,cx565vc6ry,Nick_Dissertation_EX1,1,132,2020-06-02T09:17:49-07:00,8.9859280586243,1,versionA_stim.csv,READVersionA.csv,"Read Version A","Dissertation, read only version A",MEANING,DEFINITION,Study1,S,62,29,Test,User,-,,Recall,Recall1,8344,WORD,14.285714285714,3215,4403,0,0,,1
5eab00d45a85f509b69b78c2,cx565vc6ry,Nick_Dissertation_EX1,1,133,2020-06-02T09:17:55-07:00,6.3807079792023,1,versionA_stim.csv,READVersionA.csv,"Read Version A","Dissertation, read only version A",STRONG,ACCIDENT,Study1,U,80,25,Test,User,-,,Recall,Recall1,5714,,0,2556,2614,0,0,,1
5eab00d45a85f509b69b78c2,cx565vc6ry,Nick_Dissertation_EX1,1,134,2020-06-02T09:18:04-07:00,8.5064649581909,1,versionA_stim.csv,READVersionA.csv,"Read Version A","Dissertation, read only version A",GRILL,BAR,Study1,S,52,83,Test,User,-,,Recall,Recall1,7847,STEAK,25,3897,4714,0,0,,1
5eab00d45a85f509b69b78c2,cx565vc6ry,Nick_Dissertation_EX1,1,135,2020-06-02T09:18:08-07:00,3.6481120586395,1,versionA_stim.csv,READVersionA.csv,"Read Version A","Dissertation, read only version A",DUE,ASSIGNMENT,Study1,S,46,20,Test,User,-,,Recall,Recall1,3090,DATE,28.571428571429,1476,1925,0,0,,1
5eab00d45a85f509b69b78c2,cx565vc6ry,Nick_Dissertation_EX1,1,136,2020-06-02T09:18:11-07:00,3.1815121173859,1,versionA_stim.csv,READVersionA.csv,"Read Version A","Dissertation, read only version A",PARK,HUNGRY,Study1,U,68,10,Test,User,-,,Recall,Recall1,2519,,0,-1,-1,0,0,,1
5eab00d45a85f509b69b78c2,cx565vc6ry,Nick_Dissertation_EX1,1,137,2020-06-02T09:18:17-07:00,5.7195057868958,1,versionA_stim.csv,READVersionA.csv,"Read Version A","Dissertation, read only version A",CIRCLE,ROUND,Study1,S,65,41,Test,User,-,,Recall,Recall1,5125,ROUND,100,3724,4184,1,1,,1
5eab00d45a85f509b69b78c2,cx565vc6ry,Nick_Dissertation_EX1,1,138,2020-06-02T09:18:19-07:00,2.4616031646729,1,versionA_stim.csv,READVersionA.csv,"Read Version A","Dissertation, read only version A",ART,LION,Study1,U,79,69,Test,User,-,,Recall,Recall1,1816,,0,-1,-1,0,0,,1
5eab00d45a85f509b69b78c2,cx565vc6ry,Nick_Dissertation_EX1,1,139,2020-06-02T09:18:53-07:00,33.930404901505,1,versionA_stim.csv,READVersionA.csv,"Read Version A","Dissertation, read only version A",SMELL,STENCH,Study1,B,42,40,Test,User,-,,Recall,Recall1,33264,ODOUR,0,3376,18327,0,0,,0.958
5eab00d45a85f509b69b78c2,cx565vc6ry,Nick_Dissertation_EX1,1,140,2020-06-02T09:19:02-07:00,9.1183030605316,1,versionA_stim.csv,READVersionA.csv,"Read Version A","Dissertation, read only version A",LETTUCE,SALAD,Study1,S,59,36,Test,User,-,,Recall,Recall1,8468,LEAF,44.444444444444,2342,7383,0,0,,1
5eab00d45a85f509b69b78c2,cx565vc6ry,Nick_Dissertation_EX1,1,141,2020-06-02T09:19:14-07:00,12.102835893631,1,versionA_stim.csv,READVersionA.csv,"Read Version A","Dissertation, read only version A",PLANE,PILOT,Study1,B,44,57,Test,User,-,,Recall,Recall1,11293,FLIGHT,36.363636363636,8537,9100,0,0,,1
5eab00d45a85f509b69b78c2,cx565vc6ry,Nick_Dissertation_EX1,1,142,2020-06-02T09:19:19-07:00,5.0086829662323,1,versionA_stim.csv,READVersionA.csv,"Read Version A","Dissertation, read only version A",ARTERY,BRONZE,Study1,U,74,62,Test,User,-,,Recall,Recall1,4346,VEIN,20,2682,3148,0,0,,1
5eab00d45a85f509b69b78c2,cx565vc6ry,Nick_Dissertation_EX1,1,143,2020-06-02T09:19:24-07:00,4.7434391975403,1,versionA_stim.csv,READVersionA.csv,"Read Version A","Dissertation, read only version A",GREAT,FANTASTIC,Study1,B,35,86,Test,User,-,,Recall,Recall1,4188,,0,-1,-1,0,0,,1
5eab00d45a85f509b69b78c2,cx565vc6ry,Nick_Dissertation_EX1,1,144,2020-06-02T09:19:30-07:00,5.7526898384094,1,versionA_stim.csv,READVersionA.csv,"Read Version A","Dissertation, read only version A",TRIAL,JURY,Study1,S,50,8,Test,User,-,,Recall,Recall1,5114,JURY,100,2002,2638,1,1,,1
5eab00d45a85f509b69b78c2,cx565vc6ry,Nick_Dissertation_EX1,1,145,2020-06-02T09:19:34-07:00,4.1269040107727,1,versionA_stim.csv,READVersionA.csv,"Read Version A","Dissertation, read only version A",WAGE,MONEY,Study1,F,8,43,Test,User,-,,Recall,Recall1,3534,,0,-1,-1,0,0,,1
5eab00d45a85f509b69b78c2,cx565vc6ry,Nick_Dissertation_EX1,1,146,2020-06-02T09:19:41-07:00,7.546079158783,1,versionA_stim.csv,READVersionA.csv,"Read Version A","Dissertation, read only version A",WINE,CHEESE,Study1,S,57,37,Test,User,-,,Recall,Recall1,6948,RED,22.222222222222,4924,6195,0,0,,1
5eab00d45a85f509b69b78c2,cx565vc6ry,Nick_Dissertation_EX1,1,147,2020-06-02T09:19:44-07:00,2.9829440116882,1,versionA_stim.csv,READVersionA.csv,"Read Version A","Dissertation, read only version A",MACHINE,POSITION,Study1,U,76,23,Test,User,-,,Recall,Recall1,2204,,0,-1,-1,0,0,,1
5eab00d45a85f509b69b78c2,cx565vc6ry,Nick_Dissertation_EX1,1,148,2020-06-02T09:19:49-07:00,4.948737859726,1,versionA_stim.csv,READVersionA.csv,"Read Version A","Dissertation, read only version A",SOON,BELT,Study1,U,70,71,Test,User,-,,Recall,Recall1,4325,,0,-1,-1,0,0,,1
5eab00d45a85f509b69b78c2,cx565vc6ry,Nick_Dissertation_EX1,1,149,2020-06-02T09:19:53-07:00,3.3910150527954,1,versionA_stim.csv,READVersionA.csv,"Read Version A","Dissertation, read only version A",HOT,CHILI,Study1,B,37,75,Test,User,-,,Recall,Recall1,2647,,0,-1,-1,0,0,,1
5eab00d45a85f509b69b78c2,cx565vc6ry,Nick_Dissertation_EX1,1,150,2020-06-02T09:20:00-07:00,7.7578980922699,1,versionA_stim.csv,READVersionA.csv,"Read Version A","Dissertation, read only version A",TAKE,SEIZE,Study1,B,29,28,Test,User,-,,Recall,Recall1,7208,,0,-1,-1,0,0,,1
5eab00d45a85f509b69b78c2,cx565vc6ry,Nick_Dissertation_EX1,1,151,2020-06-02T09:20:04-07:00,3.1690788269043,1,versionA_stim.csv,READVersionA.csv,"Read Version A","Dissertation, read only version A",DISCOVER,FLOOR,Study1,U,71,9,Test,User,-,,Recall,Recall1,2480,,0,-1,-1,0,0,,1
5eab00d45a85f509b69b78c2,cx565vc6ry,Nick_Dissertation_EX1,1,152,2020-06-02T09:20:07-07:00,3.0174481868744,1,versionA_stim.csv,READVersionA.csv,"Read Version A","Dissertation, read only version A",BEGIN,END,Study1,S,54,11,Test,User,-,,Recall,Recall1,2387,,0,-1,-1,0,0,,1
5eab00d45a85f509b69b78c2,cx565vc6ry,Nick_Dissertation_EX1,1,153,2020-06-02T09:20:15-07:00,8.5184428691864,1,versionA_stim.csv,READVersionA.csv,"Read Version A","Dissertation, read only version A",PUSHER,CLUTTER,Study1,U,66,73,Test,User,-,,Recall,Recall1,7884,FALL,18.181818181818,5641,6184,0,0,,1
5eab00d45a85f509b69b78c2,cx565vc6ry,Nick_Dissertation_EX1,1,154,2020-06-02T09:20:18-07:00,3.3398849964142,1,versionA_stim.csv,READVersionA.csv,"Read Version A","Dissertation, read only version A",DRINK,SIP,Study1,B,27,32,Test,User,-,,Recall,Recall1,2673,,0,-1,-1,0,0,,1
5eab00d45a85f509b69b78c2,cx565vc6ry,Nick_Dissertation_EX1,1,155,2020-06-02T09:20:21-07:00,2.7507309913635,1,versionA_stim.csv,READVersionA.csv,"Read Version A","Dissertation, read only version A",BABY,CHILD,Study1,S,64,49,Test,User,-,,Recall,Recall1,1702,,0,-1,-1,0,0,,1
5eab00d45a85f509b69b78c2,cx565vc6ry,Nick_Dissertation_EX1,1,156,2020-06-02T09:20:32-07:00,10.937423944473,1,versionA_stim.csv,READVersionA.csv,"Read Version A","Dissertation, read only version A",BUG,WASP,Study1,B,32,15,Test,User,-,,Recall,Recall1,10281,HORNET,0,3109,4489,0,0,,1
5eab00d45a85f509b69b78c2,cx565vc6ry,Nick_Dissertation_EX1,1,157,2020-06-02T09:20:38-07:00,5.4916169643402,1,versionA_stim.csv,READVersionA.csv,"Read Version A","Dissertation, read only version A",MATH,DIVISION,Study1,B,33,66,Test,User,-,,Recall,Recall1,4708,DIVISION,100,2073,3649,1,1,,1
5eab00d45a85f509b69b78c2,cx565vc6ry,Nick_Dissertation_EX1,1,158,2020-06-02T09:20:44-07:00,6.5647120475769,1,versionA_stim.csv,READVersionA.csv,"Read Version A","Dissertation, read only version A",HYGIENE,CLEAN,Study1,F,17,50,Test,User,-,,Recall,Recall1,6004,COLD,44.444444444444,2897,3267,0,0,,1
5eab00d45a85f509b69b78c2,cx565vc6ry,Nick_Dissertation_EX1,1,159,2020-06-02T09:20:58-07:00,13.436870098114,1,versionA_stim.csv,READVersionA.csv,"Read Version A","Dissertation, read only version A",LIFT,WOMAN,Study1,U,69,72,Test,User,-,,Recall,Recall1,12694,WOMAN,100,3739,4217,1,1,,1
5eab00d45a85f509b69b78c2,cx565vc6ry,Nick_Dissertation_EX1,1,160,2020-06-02T09:21:03-07:00,5.0502240657806,1,versionA_stim.csv,READVersionA.csv,"Read Version A","Dissertation, read only version A",ORCHID,FLOWER,Study1,F,24,52,Test,User,-,,Recall,Recall1,4414,FLOWER,100,2852,3614,1,1,,1
5eab00d45a85f509b69b78c2,cx565vc6ry,Nick_Dissertation_EX1,1,161,2020-06-02T09:21:07-07:00,4.3988058567047,1,versionA_stim.csv,READVersionA.csv,"Read Version A","Dissertation, read only version A",WAY,OUT,Study1,F,16,12,Test,User,-,,Recall,Recall1,3806,,0,-1,-1,0,0,,1
5eab00d45a85f509b69b78c2,cx565vc6ry,Nick_Dissertation_EX1,1,162,2020-06-02T09:21:11-07:00,3.7227230072021,1,versionA_stim.csv,READVersionA.csv,"Read Version A","Dissertation, read only version A",BATHROOM,TOILET,Study1,S,58,7,Test,User,-,,Recall,Recall1,3148,,0,-1,-1,0,0,,1
5eab00d45a85f509b69b78c2,cx565vc6ry,Nick_Dissertation_EX1,1,163,2020-06-02T09:21:19-07:00,8.6010210514069,1,versionA_stim.csv,READVersionA.csv,"Read Version A","Dissertation, read only version A",SENTENCE,WORD,Study1,B,31,24,Test,User,-,,Recall,Recall1,7930,PHRASE,20,5170,7008,0,0,,1
5eab00d45a85f509b69b78c2,cx565vc6ry,Nick_Dissertation_EX1,1,164,2020-06-02T09:21:30-07:00,10.959271907806,1,versionA_stim.csv,READVersionA.csv,"Read Version A","Dissertation, read only version A",LAW,ATTORNEY,Study1,B,34,34,Test,User,-,,Recall,Recall1,10250,,0,2449,3345,0,0,,1
5eab00d45a85f509b69b78c2,cx565vc6ry,Nick_Dissertation_EX1,1,165,2020-06-02T09:21:34-07:00,4.1057960987091,1,versionA_stim.csv,READVersionA.csv,"Read Version A","Dissertation, read only version A",TUNA,FISH,Study1,F,25,42,Test,User,-,,Recall,Recall1,3302,FISH,100,1674,2285,1,1,,1
5eab00d45a85f509b69b78c2,cx565vc6ry,Nick_Dissertation_EX1,1,166,2020-06-02T09:21:41-07:00,6.4556930065155,1,versionA_stim.csv,READVersionA.csv,"Read Version A","Dissertation, read only version A",HONEY,BEE,Study1,S,63,61,Test,User,-,,Recall,Recall1,5802,MILK,0,4108,4614,0,0,,1
5eab00d45a85f509b69b78c2,cx565vc6ry,Nick_Dissertation_EX1,1,167,2020-06-02T09:21:44-07:00,3.0962688922882,1,versionA_stim.csv,READVersionA.csv,"Read Version A","Dissertation, read only version A",WORK,CHORE,Study1,B,39,82,Test,User,-,,Recall,Recall1,2541,,0,-1,-1,0,0,,1
5eab00d45a85f509b69b78c2,cx565vc6ry,Nick_Dissertation_EX1,1,168,2020-06-02T09:22:04-07:00,20.285682201385,1,versionA_stim.csv,READVersionA.csv,"Read Version A","Dissertation, read only version A",DUMP,WASTE,Study1,S,49,18,Test,User,-,,Recall,Recall1,19579,,0,-1,-1,0,0,,0.625
5eab00d45a85f509b69b78c2,cx565vc6ry,Nick_Dissertation_EX1,1,169,2020-06-02T09:22:18-07:00,14.208959817886,1,versionA_stim.csv,READVersionA.csv,"Read Version A","Dissertation, read only version A",CLOTHES,ATTIRE,Study1,B,43,67,Test,User,-,,Recall,Recall1,13266,SHOES,18.181818181818,11541,12066,0,0,,0.925
5eab00d45a85f509b69b78c2,cx565vc6ry,Nick_Dissertation_EX1,1,170,2020-06-02T09:22:23-07:00,4.5204131603241,1,versionA_stim.csv,READVersionA.csv,"Read Version A","Dissertation, read only version A",FIRE,BLAZE,Study1,B,45,30,Test,User,-,,Recall,Recall1,3630,,0,-1,-1,0,0,,1
5eab00d45a85f509b69b78c2,cx565vc6ry,Nick_Dissertation_EX1,1,171,2020-06-02T09:22:25-07:00,2.2736618518829,1,versionA_stim.csv,READVersionA.csv,"Read Version A","Dissertation, read only version A",PAW,DOG,Study1,F,15,19,Test,User,-,,Recall,Recall1,1616,,0,-1,-1,0,0,,1
5eab00d45a85f509b69b78c2,cx565vc6ry,Nick_Dissertation_EX1,1,172,2020-06-02T09:22:29-07:00,3.7257659435272,1,versionA_stim.csv,READVersionA.csv,"Read Version A","Dissertation, read only version A",BLOW,WIND,Study1,S,55,65,Test,User,-,,Recall,Recall1,3044,,0,-1,-1,0,0,,1
5eab00d45a85f509b69b78c2,cx565vc6ry,Nick_Dissertation_EX1,1,173,2020-06-02T09:22:33-07:00,4.0512452125549,1,versionA_stim.csv,READVersionA.csv,"Read Version A","Dissertation, read only version A",DIGESTION,STOMACH,Study1,F,7,64,Test,User,-,,Recall,Recall1,3382,FOOD,18.181818181818,2277,2672,0,0,,1
5eab00d45a85f509b69b78c2,cx565vc6ry,Nick_Dissertation_EX1,1,174,2020-06-02T09:22:37-07:00,3.7473537921906,1,versionA_stim.csv,READVersionA.csv,"Read Version A","Dissertation, read only version A",GEOLOGY,ROCK,Study1,F,19,79,Test,User,-,,Recall,Recall1,3145,ROCK,100,1727,2078,1,1,,1
5eab00d45a85f509b69b78c2,cx565vc6ry,Nick_Dissertation_EX1,1,175,2020-06-02T09:22:48-07:00,11.63578414917,1,versionA_stim.csv,READVersionA.csv,"Read Version A","Dissertation, read only version A",,,,,,0,Instruct,-,10,"You will now be presented with a new set of word pairs. Please study each pair. Remember that your memory will be tested! When finished, press Enter to move to the next pair.",Initial_Instruct,Instruct4,10813,,,-1,-1,,,,1
5eab00d45a85f509b69b78c2,cx565vc6ry,Nick_Dissertation_EX1,1,176,2020-06-02T09:22:54-07:00,5.9679749011993,1,versionA_stim.csv,READVersionA.csv,"Read Version A","Dissertation, read only version A",SHRIMP,FISH,BUFFER3,Buffer,93,93,Study,User,-,,Study/JOL,BUFFER3,5396,,,-1,-1,,,,1
5eab00d45a85f509b69b78c2,cx565vc6ry,Nick_Dissertation_EX1,1,177,2020-06-02T09:22:57-07:00,2.4762830734253,1,versionA_stim.csv,READVersionA.csv,"Read Version A","Dissertation, read only version A",CAMP,ADVENTURE,BUFFER3,Buffer,95,92,Study,User,-,,Study/JOL,BUFFER3,1853,,,-1,-1,,,,1
5eab00d45a85f509b69b78c2,cx565vc6ry,Nick_Dissertation_EX1,1,178,2020-06-02T09:22:59-07:00,2.4737520217896,1,versionA_stim.csv,READVersionA.csv,"Read Version A","Dissertation, read only version A",NOODLE,STRING,BUFFER3,Buffer,92,96,Study,User,-,,Study/JOL,BUFFER3,1876,,,-1,-1,,,,1
5eab00d45a85f509b69b78c2,cx565vc6ry,Nick_Dissertation_EX1,1,179,2020-06-02T09:23:03-07:00,3.2713530063629,1,versionA_stim.csv,READVersionA.csv,"Read Version A","Dissertation, read only version A",CARROT,POTATO,BUFFER3,Buffer,91,94,Study,User,-,,Study/JOL,BUFFER3,2470,,,-1,-1,,,,1
5eab00d45a85f509b69b78c2,cx565vc6ry,Nick_Dissertation_EX1,1,180,2020-06-02T09:23:07-07:00,4.7405860424042,1,versionA_stim.csv,READVersionA.csv,"Read Version A","Dissertation, read only version A",ICE,FROZEN,BUFFER3,Buffer,94,95,Study,User,-,,Study/JOL,BUFFER3,4156,,,-1,-1,,,,1
5eab00d45a85f509b69b78c2,cx565vc6ry,Nick_Dissertation_EX1,1,181,2020-06-02T09:23:11-07:00,3.9125559329987,1,versionA_stim.csv,READVersionA.csv,"Read Version A","Dissertation, read only version A",LEASE,TOIL,Study2,U,170,109,Study,User,-,,Study/JOL,"Study Phase2",3307,,,-1,-1,,,,1
5eab00d45a85f509b69b78c2,cx565vc6ry,Nick_Dissertation_EX1,1,182,2020-06-02T09:23:14-07:00,2.9854578971863,1,versionA_stim.csv,READVersionA.csv,"Read Version A","Dissertation, read only version A",EARTH,GROUND,Study2,S,144,144,Study,User,-,,Study/JOL,"Study Phase2",2392,,,-1,-1,,,,1
5eab00d45a85f509b69b78c2,cx565vc6ry,Nick_Dissertation_EX1,1,183,2020-06-02T09:23:23-07:00,8.6082310676575,1,versionA_stim.csv,READVersionA.csv,"Read Version A","Dissertation, read only version A",FUZZY,BANG,Study2,U,168,141,Study,User,-,,Study/JOL,"Study Phase2",7951,,,-1,-1,,,,1
5eab00d45a85f509b69b78c2,cx565vc6ry,Nick_Dissertation_EX1,1,184,2020-06-02T09:23:27-07:00,4.3539350032806,1,versionA_stim.csv,READVersionA.csv,"Read Version A","Dissertation, read only version A",BAD,VILLAIN,Study2,B,118,101,Study,User,-,,Study/JOL,"Study Phase2",3824,,,-1,-1,,,,1
5eab00d45a85f509b69b78c2,cx565vc6ry,Nick_Dissertation_EX1,1,185,2020-06-02T09:23:35-07:00,7.6381249427795,1,versionA_stim.csv,READVersionA.csv,"Read Version A","Dissertation, read only version A",KEYS,JOKE,Study2,U,165,110,Study,User,-,,Study/JOL,"Study Phase2",6923,,,-1,-1,,,,1
5eab00d45a85f509b69b78c2,cx565vc6ry,Nick_Dissertation_EX1,1,186,2020-06-02T09:23:40-07:00,5.5566821098328,1,versionA_stim.csv,READVersionA.csv,"Read Version A","Dissertation, read only version A",THREAD,THIMBLE,Study2,B,121,104,Study,User,-,,Study/JOL,"Study Phase2",4862,,,-1,-1,,,,1
5eab00d45a85f509b69b78c2,cx565vc6ry,Nick_Dissertation_EX1,1,187,2020-06-02T09:23:44-07:00,3.2705638408661,1,versionA_stim.csv,READVersionA.csv,"Read Version A","Dissertation, read only version A",HONEST,TRUTHFUL,Study2,B,133,171,Study,User,-,,Study/JOL,"Study Phase2",2527,,,-1,-1,,,,1
5eab00d45a85f509b69b78c2,cx565vc6ry,Nick_Dissertation_EX1,1,188,2020-06-02T09:23:50-07:00,5.9171941280365,1,versionA_stim.csv,READVersionA.csv,"Read Version A","Dissertation, read only version A",GONE,AWAY,Study2,S,142,107,Study,User,-,,Study/JOL,"Study Phase2",5370,,,-1,-1,,,,1
5eab00d45a85f509b69b78c2,cx565vc6ry,Nick_Dissertation_EX1,1,189,2020-06-02T09:23:54-07:00,3.9545378684998,1,versionA_stim.csv,READVersionA.csv,"Read Version A","Dissertation, read only version A",GIVE,STEAK,Study2,U,158,146,Study,User,-,,Study/JOL,"Study Phase2",3361,,,-1,-1,,,,1
5eab00d45a85f509b69b78c2,cx565vc6ry,Nick_Dissertation_EX1,1,190,2020-06-02T09:23:57-07:00,3.7389140129089,1,versionA_stim.csv,READVersionA.csv,"Read Version A","Dissertation, read only version A",PLANE,AIRCRAFT,Study2,B,129,140,Study,User,-,,Study/JOL,"Study Phase2",3138,,,-1,-1,,,,1
5eab00d45a85f509b69b78c2,cx565vc6ry,Nick_Dissertation_EX1,1,191,2020-06-02T09:24:03-07:00,5.3925960063934,1,versionA_stim.csv,READVersionA.csv,"Read Version A","Dissertation, read only version A",JUSTICE,MAROON,Study2,U,156,126,Study,User,-,,Study/JOL,"Study Phase2",4694,,,-1,-1,,,,1
5eab00d45a85f509b69b78c2,cx565vc6ry,Nick_Dissertation_EX1,1,192,2020-06-02T09:24:13-07:00,10.326248168945,1,versionA_stim.csv,READVersionA.csv,"Read Version A","Dissertation, read only version A",POP,BALLOON,Study2,B,123,118,Study,User,-,,Study/JOL,"Study Phase2",9650,,,-1,-1,,,,1
5eab00d45a85f509b69b78c2,cx565vc6ry,Nick_Dissertation_EX1,1,193,2020-06-02T09:24:20-07:00,6.6285538673401,1,versionA_stim.csv,READVersionA.csv,"Read Version A","Dissertation, read only version A",DINE,EAT,Study2,F,111,127,Study,User,-,,Study/JOL,"Study Phase2",5838,,,-1,-1,,,,1
5eab00d45a85f509b69b78c2,cx565vc6ry,Nick_Dissertation_EX1,1,194,2020-06-02T09:24:26-07:00,6.5428140163422,1,versionA_stim.csv,READVersionA.csv,"Read Version A","Dissertation, read only version A",CRACKLE,ABLE,Study2,U,162,175,Study,User,-,,Study/JOL,"Study Phase2",5959,,,-1,-1,,,,1
5eab00d45a85f509b69b78c2,cx565vc6ry,Nick_Dissertation_EX1,1,195,2020-06-02T09:24:35-07:00,8.9721291065216,1,versionA_stim.csv,READVersionA.csv,"Read Version A","Dissertation, read only version A",STAR,ACTRESS,Study2,B,120,114,Study,User,-,,Study/JOL,"Study Phase2",8247,,,-1,-1,,,,1
5eab00d45a85f509b69b78c2,cx565vc6ry,Nick_Dissertation_EX1,1,196,2020-06-02T09:24:41-07:00,5.4836249351501,1,versionA_stim.csv,READVersionA.csv,"Read Version A","Dissertation, read only version A",STRETCH,CLOTH,Study2,U,157,129,Study,User,-,,Study/JOL,"Study Phase2",4853,,,-1,-1,,,,1
5eab00d45a85f509b69b78c2,cx565vc6ry,Nick_Dissertation_EX1,1,197,2020-06-02T09:24:44-07:00,3.7448179721832,1,versionA_stim.csv,READVersionA.csv,"Read Version A","Dissertation, read only version A",FISH,SARDINE,Study2,B,130,149,Study,User,-,,Study/JOL,"Study Phase2",3030,,,-1,-1,,,,1
5eab00d45a85f509b69b78c2,cx565vc6ry,Nick_Dissertation_EX1,1,198,2020-06-02T09:24:52-07:00,7.7894599437714,1,versionA_stim.csv,READVersionA.csv,"Read Version A","Dissertation, read only version A",MULE,DONKEY,Study2,F,108,121,Study,User,-,,Study/JOL,"Study Phase2",7146,,,-1,-1,,,,1
5eab00d45a85f509b69b78c2,cx565vc6ry,Nick_Dissertation_EX1,1,199,2020-06-02T09:24:59-07:00,6.4995460510254,1,versionA_stim.csv,READVersionA.csv,"Read Version A","Dissertation, read only version A",LOUD,NOISE,Study2,S,152,152,Study,User,-,,Study/JOL,"Study Phase2",5805,,,-1,-1,,,,1
5eab00d45a85f509b69b78c2,cx565vc6ry,Nick_Dissertation_EX1,1,200,2020-06-02T09:25:08-07:00,8.9479351043701,1,versionA_stim.csv,READVersionA.csv,"Read Version A","Dissertation, read only version A",GLASS,BREAKABLE,Study2,B,127,156,Study,User,-,,Study/JOL,"Study Phase2",8411,,,-1,-1,,,,1
5eab00d45a85f509b69b78c2,cx565vc6ry,Nick_Dissertation_EX1,1,201,2020-06-02T09:25:15-07:00,7.0695199966431,1,versionA_stim.csv,READVersionA.csv,"Read Version A","Dissertation, read only version A",FLEA,TICK,Study2,S,151,125,Study,User,-,,Study/JOL,"Study Phase2",6416,,,-1,-1,,,,1
5eab00d45a85f509b69b78c2,cx565vc6ry,Nick_Dissertation_EX1,1,202,2020-06-02T09:25:20-07:00,4.9409718513489,1,versionA_stim.csv,READVersionA.csv,"Read Version A","Dissertation, read only version A",CAT,PANTHER,Study2,B,126,137,Study,User,-,,Study/JOL,"Study Phase2",4377,,,-1,-1,,,,1
5eab00d45a85f509b69b78c2,cx565vc6ry,Nick_Dissertation_EX1,1,203,2020-06-02T09:25:25-07:00,5.7719841003418,1,versionA_stim.csv,READVersionA.csv,"Read Version A","Dissertation, read only version A",SAFETY,SEATBELT,Study2,S,147,165,Study,User,-,,Study/JOL,"Study Phase2",5197,,,-1,-1,,,,1
5eab00d45a85f509b69b78c2,cx565vc6ry,Nick_Dissertation_EX1,1,204,2020-06-02T09:25:33-07:00,7.704628944397,1,versionA_stim.csv,READVersionA.csv,"Read Version A","Dissertation, read only version A",TEMPERATURE,Morning,Study2,U,173,131,Study,User,-,,Study/JOL,"Study Phase2",7109,,,-1,-1,,,,1
5eab00d45a85f509b69b78c2,cx565vc6ry,Nick_Dissertation_EX1,1,205,2020-06-02T09:25:38-07:00,5.3780059814453,1,versionA_stim.csv,READVersionA.csv,"Read Version A","Dissertation, read only version A",EXTENSION,LONG,Study2,F,96,169,Study,User,-,,Study/JOL,"Study Phase2",4744,,,-1,-1,,,,1
5eab00d45a85f509b69b78c2,cx565vc6ry,Nick_Dissertation_EX1,1,206,2020-06-02T09:25:49-07:00,10.064877033234,1,versionA_stim.csv,READVersionA.csv,"Read Version A","Dissertation, read only version A",TURN,FLIP,Study2,B,116,153,Study,User,-,,Study/JOL,"Study Phase2",8413,,,-1,-1,,,,1
5eab00d45a85f509b69b78c2,cx565vc6ry,Nick_Dissertation_EX1,1,207,2020-06-02T09:25:56-07:00,7.0665650367737,1,versionA_stim.csv,READVersionA.csv,"Read Version A","Dissertation, read only version A",RIGHTS,EQUAL,Study2,S,137,158,Study,User,-,,Study/JOL,"Study Phase2",6390,,,-1,-1,,,,1
5eab00d45a85f509b69b78c2,cx565vc6ry,Nick_Dissertation_EX1,1,208,2020-06-02T09:26:00-07:00,4.6885919570923,1,versionA_stim.csv,READVersionA.csv,"Read Version A","Dissertation, read only version A",FEUD,FIGHT,Study2,F,113,103,Study,User,-,,Study/JOL,"Study Phase2",4071,,,-1,-1,,,,1
5eab00d45a85f509b69b78c2,cx565vc6ry,Nick_Dissertation_EX1,1,209,2020-06-02T09:26:04-07:00,3.8019590377808,1,versionA_stim.csv,READVersionA.csv,"Read Version A","Dissertation, read only version A",SLEEP,NAP,Study2,B,134,155,Study,User,-,,Study/JOL,"Study Phase2",3119,,,-1,-1,,,,1
5eab00d45a85f509b69b78c2,cx565vc6ry,Nick_Dissertation_EX1,1,210,2020-06-02T09:26:10-07:00,6.1586139202118,1,versionA_stim.csv,READVersionA.csv,"Read Version A","Dissertation, read only version A",NAME,HATE,Study2,U,167,168,Study,User,-,,Study/JOL,"Study Phase2",5529,,,-1,-1,,,,1
5eab00d45a85f509b69b78c2,cx565vc6ry,Nick_Dissertation_EX1,1,211,2020-06-02T09:26:15-07:00,4.8008849620819,1,versionA_stim.csv,READVersionA.csv,"Read Version A","Dissertation, read only version A",SCALP,HEAD,Study2,F,105,97,Study,User,-,,Study/JOL,"Study Phase2",4134,,,-1,-1,,,,1
5eab00d45a85f509b69b78c2,cx565vc6ry,Nick_Dissertation_EX1,1,212,2020-06-02T09:26:20-07:00,4.543713092804,1,versionA_stim.csv,READVersionA.csv,"Read Version A","Dissertation, read only version A",FURRY,DOG,Study2,F,102,128,Study,User,-,,Study/JOL,"Study Phase2",3926,,,-1,-1,,,,1
5eab00d45a85f509b69b78c2,cx565vc6ry,Nick_Dissertation_EX1,1,213,2020-06-02T09:26:24-07:00,4.1489391326904,1,versionA_stim.csv,READVersionA.csv,"Read Version A","Dissertation, read only version A",WATER,DRINK,Study2,S,143,147,Study,User,-,,Study/JOL,"Study Phase2",3591,,,-1,-1,,,,1
5eab00d45a85f509b69b78c2,cx565vc6ry,Nick_Dissertation_EX1,1,214,2020-06-02T09:26:27-07:00,3.5671389102936,1,versionA_stim.csv,READVersionA.csv,"Read Version A","Dissertation, read only version A",DRY,WET,Study2,S,146,98,Study,User,-,,Study/JOL,"Study Phase2",3029,,,-1,-1,,,,1
5eab00d45a85f509b69b78c2,cx565vc6ry,Nick_Dissertation_EX1,1,215,2020-06-02T09:26:34-07:00,6.1631739139557,1,versionA_stim.csv,READVersionA.csv,"Read Version A","Dissertation, read only version A",CHOP,CUT,Study2,F,107,143,Study,User,-,,Study/JOL,"Study Phase2",5523,,,-1,-1,,,,1
5eab00d45a85f509b69b78c2,cx565vc6ry,Nick_Dissertation_EX1,1,216,2020-06-02T09:26:38-07:00,4.9004101753235,1,versionA_stim.csv,READVersionA.csv,"Read Version A","Dissertation, read only version A",RAZOR,SHAVE,Study2,S,136,166,Study,User,-,,Study/JOL,"Study Phase2",4258,,,-1,-1,,,,1
5eab00d45a85f509b69b78c2,cx565vc6ry,Nick_Dissertation_EX1,1,217,2020-06-02T09:26:45-07:00,6.5311169624329,1,versionA_stim.csv,READVersionA.csv,"Read Version A","Dissertation, read only version A",ALONE,LONELY,Study2,S,145,170,Study,User,-,,Study/JOL,"Study Phase2",5846,,,-1,-1,,,,1
5eab00d45a85f509b69b78c2,cx565vc6ry,Nick_Dissertation_EX1,1,218,2020-06-02T09:26:52-07:00,7.0911569595337,1,versionA_stim.csv,READVersionA.csv,"Read Version A","Dissertation, read only version A",BASEBALL,LEAGUE,Study2,B,131,120,Study,User,-,,Study/JOL,"Study Phase2",6524,,,-1,-1,,,,1
5eab00d45a85f509b69b78c2,cx565vc6ry,Nick_Dissertation_EX1,1,219,2020-06-02T09:26:57-07:00,5.4376928806305,1,versionA_stim.csv,READVersionA.csv,"Read Version A","Dissertation, read only version A",AFFECTION,LOVE,Study2,F,115,160,Study,User,-,,Study/JOL,"Study Phase2",4758,,,-1,-1,,,,1
5eab00d45a85f509b69b78c2,cx565vc6ry,Nick_Dissertation_EX1,1,220,2020-06-02T09:27:02-07:00,4.3670651912689,1,versionA_stim.csv,READVersionA.csv,"Read Version A","Dissertation, read only version A",MONEY,BANKER,Study2,B,132,145,Study,User,-,,Study/JOL,"Study Phase2",3718,,,-1,-1,,,,1
5eab00d45a85f509b69b78c2,cx565vc6ry,Nick_Dissertation_EX1,1,221,2020-06-02T09:27:13-07:00,10.851172924042,1,versionA_stim.csv,READVersionA.csv,"Read Version A","Dissertation, read only version A",BOTH,OUNCE,Study2,U,172,102,Study,User,-,,Study/JOL,"Study Phase2",10208,,,-1,-1,,,,1
5eab00d45a85f509b69b78c2,cx565vc6ry,Nick_Dissertation_EX1,1,222,2020-06-02T09:27:17-07:00,4.0853190422058,1,versionA_stim.csv,READVersionA.csv,"Read Version A","Dissertation, read only version A",ROD,REEL,Study2,S,150,148,Study,User,-,,Study/JOL,"Study Phase2",3410,,,-1,-1,,,,1
5eab00d45a85f509b69b78c2,cx565vc6ry,Nick_Dissertation_EX1,1,223,2020-06-02T09:27:21-07:00,4.039657831192,1,versionA_stim.csv,READVersionA.csv,"Read Version A","Dissertation, read only version A",LITTER,TRASH,Study2,F,103,112,Study,User,-,,Study/JOL,"Study Phase2",3483,,,-1,-1,,,,1
5eab00d45a85f509b69b78c2,cx565vc6ry,Nick_Dissertation_EX1,1,224,2020-06-02T09:27:26-07:00,5.3511571884155,1,versionA_stim.csv,READVersionA.csv,"Read Version A","Dissertation, read only version A",TANTRUM,TEMPER,Study2,S,154,111,Study,User,-,,Study/JOL,"Study Phase2",4718,,,-1,-1,,,,1
5eab00d45a85f509b69b78c2,cx565vc6ry,Nick_Dissertation_EX1,1,225,2020-06-02T09:27:31-07:00,4.7871508598328,1,versionA_stim.csv,READVersionA.csv,"Read Version A","Dissertation, read only version A",MAZE,ELECTION,Study2,U,159,164,Study,User,-,,Study/JOL,"Study Phase2",4122,,,-1,-1,,,,1
5eab00d45a85f509b69b78c2,cx565vc6ry,Nick_Dissertation_EX1,1,226,2020-06-02T09:27:38-07:00,6.8845059871674,1,versionA_stim.csv,READVersionA.csv,"Read Version A","Dissertation, read only version A",BIRD,PENGUIN,Study2,B,119,142,Study,User,-,,Study/JOL,"Study Phase2",6293,,,-1,-1,,,,1
5eab00d45a85f509b69b78c2,cx565vc6ry,Nick_Dissertation_EX1,1,227,2020-06-02T09:27:42-07:00,4.0626380443573,1,versionA_stim.csv,READVersionA.csv,"Read Version A","Dissertation, read only version A",EVEN,REVENGE,Study2,B,122,132,Study,User,-,,Study/JOL,"Study Phase2",3401,,,-1,-1,,,,1
5eab00d45a85f509b69b78c2,cx565vc6ry,Nick_Dissertation_EX1,1,228,2020-06-02T09:27:46-07:00,4.2017650604248,1,versionA_stim.csv,READVersionA.csv,"Read Version A","Dissertation, read only version A",SHEARS,SCISSORS,Study2,F,112,100,Study,User,-,,Study/JOL,"Study Phase2",3624,,,-1,-1,,,,1
5eab00d45a85f509b69b78c2,cx565vc6ry,Nick_Dissertation_EX1,1,229,2020-06-02T09:27:50-07:00,4.3157489299774,1,versionA_stim.csv,READVersionA.csv,"Read Version A","Dissertation, read only version A",CAKE,CLOTHES,Study2,U,166,159,Study,User,-,,Study/JOL,"Study Phase2",3731,,,-1,-1,,,,1
5eab00d45a85f509b69b78c2,cx565vc6ry,Nick_Dissertation_EX1,1,230,2020-06-02T09:27:54-07:00,3.5112171173096,1,versionA_stim.csv,READVersionA.csv,"Read Version A","Dissertation, read only version A",CACTUS,PLANT,Study2,F,98,133,Study,User,-,,Study/JOL,"Study Phase2",2865,,,-1,-1,,,,1
5eab00d45a85f509b69b78c2,cx565vc6ry,Nick_Dissertation_EX1,1,231,2020-06-02T09:27:59-07:00,5.4157907962799,1,versionA_stim.csv,READVersionA.csv,"Read Version A","Dissertation, read only version A",MEAT,OBTAIN,Study2,U,161,117,Study,User,-,,Study/JOL,"Study Phase2",4733,,,-1,-1,,,,1
5eab00d45a85f509b69b78c2,cx565vc6ry,Nick_Dissertation_EX1,1,232,2020-06-02T09:28:03-07:00,4.1154470443726,1,versionA_stim.csv,READVersionA.csv,"Read Version A","Dissertation, read only version A",ADJOURN,END,Study2,F,101,136,Study,User,-,,Study/JOL,"Study Phase2",3457,,,-1,-1,,,,1
5eab00d45a85f509b69b78c2,cx565vc6ry,Nick_Dissertation_EX1,1,233,2020-06-02T09:28:07-07:00,3.0853559970856,1,versionA_stim.csv,READVersionA.csv,"Read Version A","Dissertation, read only version A",CHERRY,RED,Study2,F,104,163,Study,User,-,,Study/JOL,"Study Phase2",2457,,,-1,-1,,,,1
5eab00d45a85f509b69b78c2,cx565vc6ry,Nick_Dissertation_EX1,1,234,2020-06-02T09:28:11-07:00,4.0201239585876,1,versionA_stim.csv,READVersionA.csv,"Read Version A","Dissertation, read only version A",ELEMENT,CARBON,Study2,S,141,135,Study,User,-,,Study/JOL,"Study Phase2",3440,,,-1,-1,,,,1
5eab00d45a85f509b69b78c2,cx565vc6ry,Nick_Dissertation_EX1,1,235,2020-06-02T09:28:14-07:00,3.8701891899109,1,versionA_stim.csv,READVersionA.csv,"Read Version A","Dissertation, read only version A",DEAD,COFFIN,Study2,B,128,106,Study,User,-,,Study/JOL,"Study Phase2",3240,,,-1,-1,,,,1
5eab00d45a85f509b69b78c2,cx565vc6ry,Nick_Dissertation_EX1,1,236,2020-06-02T09:28:18-07:00,3.7328050136566,1,versionA_stim.csv,READVersionA.csv,"Read Version A","Dissertation, read only version A",Shell,SHAKE,Study2,U,163,134,Study,User,-,,Study/JOL,"Study Phase2",3150,,,-1,-1,,,,1
5eab00d45a85f509b69b78c2,cx565vc6ry,Nick_Dissertation_EX1,1,237,2020-06-02T09:28:23-07:00,4.3413109779358,1,versionA_stim.csv,READVersionA.csv,"Read Version A","Dissertation, read only version A",DETECTIVE,MYSTERY,Study2,F,100,151,Study,User,-,,Study/JOL,"Study Phase2",3677,,,-1,-1,,,,1
5eab00d45a85f509b69b78c2,cx565vc6ry,Nick_Dissertation_EX1,1,238,2020-06-02T09:28:26-07:00,3.8667829036713,1,versionA_stim.csv,READVersionA.csv,"Read Version A","Dissertation, read only version A",WRIST,BRACELET,Study2,S,140,138,Study,User,-,,Study/JOL,"Study Phase2",3223,,,-1,-1,,,,1
5eab00d45a85f509b69b78c2,cx565vc6ry,Nick_Dissertation_EX1,1,239,2020-06-02T09:28:28-07:00,2.051295042038,1,versionA_stim.csv,READVersionA.csv,"Read Version A","Dissertation, read only version A",MAIN,SCAR,Study2,U,175,108,Study,User,-,,Study/JOL,"Study Phase2",1418,,,-1,-1,,,,1
5eab00d45a85f509b69b78c2,cx565vc6ry,Nick_Dissertation_EX1,1,240,2020-06-02T09:28:33-07:00,4.2619268894196,1,versionA_stim.csv,READVersionA.csv,"Read Version A","Dissertation, read only version A",BEST,FAVORITE,Study2,B,125,122,Study,User,-,,Study/JOL,"Study Phase2",3520,,,-1,-1,,,,1
5eab00d45a85f509b69b78c2,cx565vc6ry,Nick_Dissertation_EX1,1,241,2020-06-02T09:28:37-07:00,4.2088370323181,1,versionA_stim.csv,READVersionA.csv,"Read Version A","Dissertation, read only version A",MASON,JAR,Study2,S,138,113,Study,User,-,,Study/JOL,"Study Phase2",3625,,,-1,-1,,,,1
5eab00d45a85f509b69b78c2,cx565vc6ry,Nick_Dissertation_EX1,1,242,2020-06-02T09:28:41-07:00,4.1113710403442,1,versionA_stim.csv,READVersionA.csv,"Read Version A","Dissertation, read only version A",OWN,HAVE,Study2,S,153,162,Study,User,-,,Study/JOL,"Study Phase2",3563,,,-1,-1,,,,1
5eab00d45a85f509b69b78c2,cx565vc6ry,Nick_Dissertation_EX1,1,243,2020-06-02T09:28:48-07:00,7.2991609573364,1,versionA_stim.csv,READVersionA.csv,"Read Version A","Dissertation, read only version A",SHOELACE,TIE,Study2,F,99,124,Study,User,-,,Study/JOL,"Study Phase2",6669,,,-1,-1,,,,1
5eab00d45a85f509b69b78c2,cx565vc6ry,Nick_Dissertation_EX1,1,244,2020-06-02T09:28:53-07:00,4.7760469913483,1,versionA_stim.csv,READVersionA.csv,"Read Version A","Dissertation, read only version A",DRIVER,CAR,Study2,F,106,105,Study,User,-,,Study/JOL,"Study Phase2",4164,,,-1,-1,,,,1
5eab00d45a85f509b69b78c2,cx565vc6ry,Nick_Dissertation_EX1,1,245,2020-06-02T09:28:58-07:00,5.2389161586761,1,versionA_stim.csv,READVersionA.csv,"Read Version A","Dissertation, read only version A",LISTEN,FICTION,Study2,U,164,167,Study,User,-,,Study/JOL,"Study Phase2",4501,,,-1,-1,,,,1
5eab00d45a85f509b69b78c2,cx565vc6ry,Nick_Dissertation_EX1,1,246,2020-06-02T09:29:02-07:00,3.769003868103,1,versionA_stim.csv,READVersionA.csv,"Read Version A","Dissertation, read only version A",CLUE,GAME,Study2,F,97,157,Study,User,-,,Study/JOL,"Study Phase2",3097,,,-1,-1,,,,1
5eab00d45a85f509b69b78c2,cx565vc6ry,Nick_Dissertation_EX1,1,247,2020-06-02T09:29:06-07:00,4.3717701435089,1,versionA_stim.csv,READVersionA.csv,"Read Version A","Dissertation, read only version A",INCENSE,SMELL,Study2,F,110,116,Study,User,-,,Study/JOL,"Study Phase2",3656,,,-1,-1,,,,1
5eab00d45a85f509b69b78c2,cx565vc6ry,Nick_Dissertation_EX1,1,248,2020-06-02T09:29:11-07:00,5.0306239128113,1,versionA_stim.csv,READVersionA.csv,"Read Version A","Dissertation, read only version A",DOCUMENT,PAPER,Study2,F,109,174,Study,User,-,,Study/JOL,"Study Phase2",4404,,,-1,-1,,,,1
5eab00d45a85f509b69b78c2,cx565vc6ry,Nick_Dissertation_EX1,1,249,2020-06-02T09:29:16-07:00,4.0166599750519,1,versionA_stim.csv,READVersionA.csv,"Read Version A","Dissertation, read only version A",SUN,TAN,Study2,S,155,173,Study,User,-,,Study/JOL,"Study Phase2",3354,,,-1,-1,,,,1
5eab00d45a85f509b69b78c2,cx565vc6ry,Nick_Dissertation_EX1,1,250,2020-06-02T09:29:20-07:00,4.3254270553589,1,versionA_stim.csv,READVersionA.csv,"Read Version A","Dissertation, read only version A",VEHICLE,CHARM,Study2,U,160,115,Study,User,-,,Study/JOL,"Study Phase2",3736,,,-1,-1,,,,1
5eab00d45a85f509b69b78c2,cx565vc6ry,Nick_Dissertation_EX1,1,251,2020-06-02T09:29:25-07:00,5.5770828723907,1,versionA_stim.csv,READVersionA.csv,"Read Version A","Dissertation, read only version A",LOAN,SIGN,Study2,U,171,119,Study,User,-,,Study/JOL,"Study Phase2",4947,,,-1,-1,,,,1
5eab00d45a85f509b69b78c2,cx565vc6ry,Nick_Dissertation_EX1,1,252,2020-06-02T09:29:31-07:00,5.8832671642303,1,versionA_stim.csv,READVersionA.csv,"Read Version A","Dissertation, read only version A",CANDLE,WAX,Study2,S,139,154,Study,User,-,,Study/JOL,"Study Phase2",5323,,,-1,-1,,,,1
5eab00d45a85f509b69b78c2,cx565vc6ry,Nick_Dissertation_EX1,1,253,2020-06-02T09:29:35-07:00,4.1265919208527,1,versionA_stim.csv,READVersionA.csv,"Read Version A","Dissertation, read only version A",PHONE,COMMUNICATION,Study2,S,149,176,Study,User,-,,Study/JOL,"Study Phase2",3421,,,-1,-1,,,,1
5eab00d45a85f509b69b78c2,cx565vc6ry,Nick_Dissertation_EX1,1,254,2020-06-02T09:29:39-07:00,3.5181109905243,1,versionA_stim.csv,READVersionA.csv,"Read Version A","Dissertation, read only version A",CAR,WINDSHIELD,Study2,B,117,123,Study,User,-,,Study/JOL,"Study Phase2",2886,,,-1,-1,,,,1
5eab00d45a85f509b69b78c2,cx565vc6ry,Nick_Dissertation_EX1,1,255,2020-06-02T09:29:44-07:00,5.4869470596313,1,versionA_stim.csv,READVersionA.csv,"Read Version A","Dissertation, read only version A",MIRROR,CHILDREN,Study2,U,174,139,Study,User,-,,Study/JOL,"Study Phase2",4788,,,-1,-1,,,,1
5eab00d45a85f509b69b78c2,cx565vc6ry,Nick_Dissertation_EX1,1,256,2020-06-02T09:29:50-07:00,5.8980319499969,1,versionA_stim.csv,READVersionA.csv,"Read Version A","Dissertation, read only version A",CHILL,COLD,Study2,F,114,172,Study,User,-,,Study/JOL,"Study Phase2",5318,,,-1,-1,,,,1
5eab00d45a85f509b69b78c2,cx565vc6ry,Nick_Dissertation_EX1,1,257,2020-06-02T09:29:55-07:00,4.9216899871826,1,versionA_stim.csv,READVersionA.csv,"Read Version A","Dissertation, read only version A",FRUIT,STRAWBERRY,Study2,B,124,130,Study,User,-,,Study/JOL,"Study Phase2",4313,,,-1,-1,,,,1
5eab00d45a85f509b69b78c2,cx565vc6ry,Nick_Dissertation_EX1,1,258,2020-06-02T09:30:00-07:00,4.3858001232147,1,versionA_stim.csv,READVersionA.csv,"Read Version A","Dissertation, read only version A",TRUTH,LIE,Study2,S,148,99,Study,User,-,,Study/JOL,"Study Phase2",3776,,,-1,-1,,,,1
5eab00d45a85f509b69b78c2,cx565vc6ry,Nick_Dissertation_EX1,1,259,2020-06-02T09:30:05-07:00,4.9469468593597,1,versionA_stim.csv,READVersionA.csv,"Read Version A","Dissertation, read only version A",FIGHT,BRAWL,Study2,B,135,150,Study,User,-,,Study/JOL,"Study Phase2",4388,,,-1,-1,,,,1
5eab00d45a85f509b69b78c2,cx565vc6ry,Nick_Dissertation_EX1,1,260,2020-06-02T09:30:09-07:00,4.3708329200745,1,versionA_stim.csv,READVersionA.csv,"Read Version A","Dissertation, read only version A",MOAT,CLEAR,Study2,U,169,161,Study,User,-,,Study/JOL,"Study Phase2",3749,,,-1,-1,,,,1
5eab00d45a85f509b69b78c2,cx565vc6ry,Nick_Dissertation_EX1,1,261,2020-06-02T09:30:13-07:00,4.4642951488495,1,versionA_stim.csv,READVersionA.csv,"Read Version A","Dissertation, read only version A",OCTOBER,SPOOKY,BUFFER4,Buffer,180,177,Study,User,-,,Study/JOL,BUFFER4,3842,,,-1,-1,,,,1
5eab00d45a85f509b69b78c2,cx565vc6ry,Nick_Dissertation_EX1,1,262,2020-06-02T09:30:20-07:00,6.6493120193481,1,versionA_stim.csv,READVersionA.csv,"Read Version A","Dissertation, read only version A",DAYS,WEAKS,BUFFER4,Buffer,176,181,Study,User,-,,Study/JOL,BUFFER4,5962,,,-1,-1,,,,1
5eab00d45a85f509b69b78c2,cx565vc6ry,Nick_Dissertation_EX1,1,263,2020-06-02T09:30:25-07:00,4.4488999843597,1,versionA_stim.csv,READVersionA.csv,"Read Version A","Dissertation, read only version A",TOOL,SHED,BUFFER4,Buffer,178,179,Study,User,-,,Study/JOL,BUFFER4,3783,,,-1,-1,,,,1
5eab00d45a85f509b69b78c2,cx565vc6ry,Nick_Dissertation_EX1,1,264,2020-06-02T09:30:30-07:00,5.4494059085846,1,versionA_stim.csv,READVersionA.csv,"Read Version A","Dissertation, read only version A",SPRING,MARCH,BUFFER4,Buffer,179,180,Study,User,-,,Study/JOL,BUFFER4,4807,,,-1,-1,,,,1
5eab00d45a85f509b69b78c2,cx565vc6ry,Nick_Dissertation_EX1,1,265,2020-06-02T09:30:36-07:00,5.661553144455,1,versionA_stim.csv,READVersionA.csv,"Read Version A","Dissertation, read only version A",MONTH,YEAR,BUFFER4,Buffer,177,178,Study,User,-,,Study/JOL,BUFFER4,5078,,,-1,-1,,,,1
5eab00d45a85f509b69b78c2,cx565vc6ry,Nick_Dissertation_EX1,1,266,2020-06-02T09:30:39-07:00,3.3880298137665,1,versionA_stim.csv,READVersionA.csv,"Read Version A","Dissertation, read only version A",,,,,,0,Instruct,User,-,"You have completed this section. Please press Enter.",Filler_Instruction,Instruct5,1827,,,-1,-1,,,,1
5eab00d45a85f509b69b78c2,cx565vc6ry,Nick_Dissertation_EX1,1,267,2020-06-02T09:32:40-07:00,120.78680801392,1,versionA_stim.csv,READVersionA.csv,"Read Version A","Dissertation, read only version A",,,,,,0,FreeRecall,120,120,"Please list the 50 US states in reverse alphabetical order (z - a). The task will automatically advance to the next screen after two minutes.",,Filler2,120006,"New York, New Jersey, Florida, Utah, Nebraska, Connecticut,California, Arizona",0,8003,110465,0,0,,0.974
5eab00d45a85f509b69b78c2,cx565vc6ry,Nick_Dissertation_EX1,1,268,2020-06-02T09:32:51-07:00,11.617238998413,1,versionA_stim.csv,READVersionA.csv,"Read Version A","Dissertation, read only version A",,,,,,0,Instruct,-,10,"You will now be presented with the first word from each of the previously studied item pairs. Please type the missing word. If you do not know the word, you may guess or press Enter to skip forward to the next pair.",,Instruct6,10753,,,-1,-1,,,,1
5eab00d45a85f509b69b78c2,cx565vc6ry,Nick_Dissertation_EX1,1,269,2020-06-02T09:33:03-07:00,11.989166021347,1,versionA_stim.csv,READVersionA.csv,"Read Version A","Dissertation, read only version A",LISTEN,FICTION,Study2,U,164,167,Test,User,-,,Recall,Recall2,11144,FICTION,100,9089,10171,1,1,,1
5eab00d45a85f509b69b78c2,cx565vc6ry,Nick_Dissertation_EX1,1,270,2020-06-02T09:33:10-07:00,6.4013819694519,1,versionA_stim.csv,READVersionA.csv,"Read Version A","Dissertation, read only version A",CHOP,CUT,Study2,F,107,143,Test,User,-,,Recall,Recall2,5670,CUT,100,2694,4809,1,1,,1
5eab00d45a85f509b69b78c2,cx565vc6ry,Nick_Dissertation_EX1,1,271,2020-06-02T09:33:14-07:00,4.3064961433411,1,versionA_stim.csv,READVersionA.csv,"Read Version A","Dissertation, read only version A",ADJOURN,END,Study2,F,101,136,Test,User,-,,Recall,Recall2,3709,END,100,1867,2948,1,1,,1
5eab00d45a85f509b69b78c2,cx565vc6ry,Nick_Dissertation_EX1,1,272,2020-06-02T09:33:19-07:00,4.6936349868774,1,versionA_stim.csv,READVersionA.csv,"Read Version A","Dissertation, read only version A",MULE,DONKEY,Study2,F,108,121,Test,User,-,,Recall,Recall2,4049,DONKEY,100,1719,2525,1,1,,1
5eab00d45a85f509b69b78c2,cx565vc6ry,Nick_Dissertation_EX1,1,273,2020-06-02T09:33:27-07:00,7.9144458770752,1,versionA_stim.csv,READVersionA.csv,"Read Version A","Dissertation, read only version A",ROD,REEL,Study2,S,150,148,Test,User,-,,Recall,Recall2,7278,,0,-1,-1,0,0,,1
5eab00d45a85f509b69b78c2,cx565vc6ry,Nick_Dissertation_EX1,1,274,2020-06-02T09:33:32-07:00,5.0017120838165,1,versionA_stim.csv,READVersionA.csv,"Read Version A","Dissertation, read only version A",FEUD,FIGHT,Study2,F,113,103,Test,User,-,,Recall,Recall2,4444,BRAWL,0,2051,3353,0,0,,1
5eab00d45a85f509b69b78c2,cx565vc6ry,Nick_Dissertation_EX1,1,275,2020-06-02T09:33:39-07:00,6.9392659664154,1,versionA_stim.csv,READVersionA.csv,"Read Version A","Dissertation, read only version A",EARTH,GROUND,Study2,S,144,144,Test,User,-,,Recall,Recall2,6329,ROUND,90.909090909091,3563,4154,0,1,,1
5eab00d45a85f509b69b78c2,cx565vc6ry,Nick_Dissertation_EX1,1,276,2020-06-02T09:33:48-07:00,9.8206470012665,1,versionA_stim.csv,READVersionA.csv,"Read Version A","Dissertation, read only version A",LOUD,NOISE,Study2,S,152,152,Test,User,-,,Recall,Recall2,9187,HORN,22.222222222222,6113,6498,0,0,,1
5eab00d45a85f509b69b78c2,cx565vc6ry,Nick_Dissertation_EX1,1,277,2020-06-02T09:33:56-07:00,7.3107330799103,1,versionA_stim.csv,READVersionA.csv,"Read Version A","Dissertation, read only version A",FIGHT,BRAWL,Study2,B,135,150,Test,User,-,,Recall,Recall2,6643,BRAWL,100,3364,4429,1,1,,1
5eab00d45a85f509b69b78c2,cx565vc6ry,Nick_Dissertation_EX1,1,278,2020-06-02T09:34:02-07:00,6.6767089366913,1,versionA_stim.csv,READVersionA.csv,"Read Version A","Dissertation, read only version A",EXTENSION,LONG,Study2,F,96,169,Test,User,-,,Recall,Recall2,6031,LONG,100,2513,4009,1,1,,1
5eab00d45a85f509b69b78c2,cx565vc6ry,Nick_Dissertation_EX1,1,279,2020-06-02T09:34:12-07:00,9.7244489192963,1,versionA_stim.csv,READVersionA.csv,"Read Version A","Dissertation, read only version A",DEAD,COFFIN,Study2,B,128,106,Test,User,-,,Recall,Recall2,9033,,0,4020,4277,0,0,,1
5eab00d45a85f509b69b78c2,cx565vc6ry,Nick_Dissertation_EX1,1,280,2020-06-02T09:34:26-07:00,13.558902978897,1,versionA_stim.csv,READVersionA.csv,"Read Version A","Dissertation, read only version A",FUZZY,BANG,Study2,U,168,141,Test,User,-,,Recall,Recall2,12669,,0,-1,-1,0,0,,1
5eab00d45a85f509b69b78c2,cx565vc6ry,Nick_Dissertation_EX1,1,281,2020-06-02T09:34:31-07:00,5.2265231609344,1,versionA_stim.csv,READVersionA.csv,"Read Version A","Dissertation, read only version A",ELEMENT,CARBON,Study2,S,141,135,Test,User,-,,Recall,Recall2,4525,CARBON,100,2641,3506,1,1,,1
5eab00d45a85f509b69b78c2,cx565vc6ry,Nick_Dissertation_EX1,1,282,2020-06-02T09:34:35-07:00,3.947881937027,1,versionA_stim.csv,READVersionA.csv,"Read Version A","Dissertation, read only version A",ALONE,LONELY,Study2,S,145,170,Test,User,-,,Recall,Recall2,3373,LONELY,100,1463,2340,1,1,,1
5eab00d45a85f509b69b78c2,cx565vc6ry,Nick_Dissertation_EX1,1,283,2020-06-02T09:34:38-07:00,3.3258891105652,1,versionA_stim.csv,READVersionA.csv,"Read Version A","Dissertation, read only version A",MASON,JAR,Study2,S,138,113,Test,User,-,,Recall,Recall2,2671,JAR,100,1703,2021,1,1,,1
5eab00d45a85f509b69b78c2,cx565vc6ry,Nick_Dissertation_EX1,1,284,2020-06-02T09:34:48-07:00,9.7277419567108,1,versionA_stim.csv,READVersionA.csv,"Read Version A","Dissertation, read only version A",DRY,WET,Study2,S,146,98,Test,User,-,,Recall,Recall2,9156,,0,-1,-1,0,0,,1
5eab00d45a85f509b69b78c2,cx565vc6ry,Nick_Dissertation_EX1,1,285,2020-06-02T09:34:54-07:00,5.6139400005341,1,versionA_stim.csv,READVersionA.csv,"Read Version A","Dissertation, read only version A",PHONE,COMMUNICATION,Study2,S,149,176,Test,User,-,,Recall,Recall2,4795,COMMUNICATION,100,1623,3444,1,1,,1
5eab00d45a85f509b69b78c2,cx565vc6ry,Nick_Dissertation_EX1,1,286,2020-06-02T09:35:00-07:00,6.5449860095978,1,versionA_stim.csv,READVersionA.csv,"Read Version A","Dissertation, read only version A",CRACKLE,ABLE,Study2,U,162,175,Test,User,-,,Recall,Recall2,5922,POP,0,2586,2909,0,0,,1
5eab00d45a85f509b69b78c2,cx565vc6ry,Nick_Dissertation_EX1,1,287,2020-06-02T09:35:15-07:00,15.355466842651,1,versionA_stim.csv,READVersionA.csv,"Read Version A","Dissertation, read only version A",TEMPERATURE,Morning,Study2,U,173,131,Test,User,-,,Recall,Recall2,14592,,0,-1,-1,0,0,,1
5eab00d45a85f509b69b78c2,cx565vc6ry,Nick_Dissertation_EX1,1,288,2020-06-02T09:35:18-07:00,2.8200101852417,1,versionA_stim.csv,READVersionA.csv,"Read Version A","Dissertation, read only version A",DOCUMENT,PAPER,Study2,F,109,174,Test,User,-,,Recall,Recall2,2030,,0,-1,-1,0,0,,1
5eab00d45a85f509b69b78c2,cx565vc6ry,Nick_Dissertation_EX1,1,289,2020-06-02T09:35:24-07:00,5.5863687992096,1,versionA_stim.csv,READVersionA.csv,"Read Version A","Dissertation, read only version A",SCALP,HEAD,Study2,F,105,97,Test,User,-,,Recall,Recall2,4878,HEAD,100,1976,2367,1,1,,1
5eab00d45a85f509b69b78c2,cx565vc6ry,Nick_Dissertation_EX1,1,290,2020-06-02T09:35:33-07:00,8.846018075943,1,versionA_stim.csv,READVersionA.csv,"Read Version A","Dissertation, read only version A",NAME,HATE,Study2,U,167,168,Test,User,-,,Recall,Recall2,8282,END,28.571428571429,1865,2114,0,0,,1
5eab00d45a85f509b69b78c2,cx565vc6ry,Nick_Dissertation_EX1,1,291,2020-06-02T09:35:37-07:00,4.6376440525055,1,versionA_stim.csv,READVersionA.csv,"Read Version A","Dissertation, read only version A",JUSTICE,MAROON,Study2,U,156,126,Test,User,-,,Recall,Recall2,4047,,0,-1,-1,0,0,,1
5eab00d45a85f509b69b78c2,cx565vc6ry,Nick_Dissertation_EX1,1,292,2020-06-02T09:35:47-07:00,9.3470120429993,1,versionA_stim.csv,READVersionA.csv,"Read Version A","Dissertation, read only version A",BIRD,PENGUIN,Study2,B,119,142,Test,User,-,,Recall,Recall2,8687,PENGUIN,100,3274,7680,1,1,,1
5eab00d45a85f509b69b78c2,cx565vc6ry,Nick_Dissertation_EX1,1,293,2020-06-02T09:35:59-07:00,12.4767370224,1,versionA_stim.csv,READVersionA.csv,"Read Version A","Dissertation, read only version A",CACTUS,PLANT,Study2,F,98,133,Test,User,-,,Recall,Recall2,11798,PLANT,100,3320,10952,1,1,,1
5eab00d45a85f509b69b78c2,cx565vc6ry,Nick_Dissertation_EX1,1,294,2020-06-02T09:36:09-07:00,9.8163938522339,1,versionA_stim.csv,READVersionA.csv,"Read Version A","Dissertation, read only version A",OWN,HAVE,Study2,S,153,162,Test,User,-,,Recall,Recall2,9182,,0,-1,-1,0,0,,1
5eab00d45a85f509b69b78c2,cx565vc6ry,Nick_Dissertation_EX1,1,295,2020-06-02T09:36:16-07:00,6.990051984787,1,versionA_stim.csv,READVersionA.csv,"Read Version A","Dissertation, read only version A",CAT,PANTHER,Study2,B,126,137,Test,User,-,,Recall,Recall2,6285,,0,-1,-1,0,0,,1
5eab00d45a85f509b69b78c2,cx565vc6ry,Nick_Dissertation_EX1,1,296,2020-06-02T09:36:21-07:00,4.5981051921844,1,versionA_stim.csv,READVersionA.csv,"Read Version A","Dissertation, read only version A",FLEA,TICK,Study2,S,151,125,Test,User,-,,Recall,Recall2,3988,,0,-1,-1,0,0,,1
5eab00d45a85f509b69b78c2,cx565vc6ry,Nick_Dissertation_EX1,1,297,2020-06-02T09:36:40-07:00,18.968849897385,1,versionA_stim.csv,READVersionA.csv,"Read Version A","Dissertation, read only version A",Shell,SHAKE,Study2,U,163,134,Test,User,-,,Recall,Recall2,18268,AROUND,18.181818181818,16040,16778,0,0,,1
5eab00d45a85f509b69b78c2,cx565vc6ry,Nick_Dissertation_EX1,1,298,2020-06-02T09:36:50-07:00,10.385561943054,1,versionA_stim.csv,READVersionA.csv,"Read Version A","Dissertation, read only version A",RAZOR,SHAVE,Study2,S,136,166,Test,User,-,,Recall,Recall2,9592,,0,-1,-1,0,0,,1
5eab00d45a85f509b69b78c2,cx565vc6ry,Nick_Dissertation_EX1,1,299,2020-06-02T09:37:00-07:00,10.222632169724,1,versionA_stim.csv,READVersionA.csv,"Read Version A","Dissertation, read only version A",FISH,SARDINE,Study2,B,130,149,Test,User,-,,Recall,Recall2,9321,TUNA,18.181818181818,1979,2416,0,0,,1
5eab00d45a85f509b69b78c2,cx565vc6ry,Nick_Dissertation_EX1,1,300,2020-06-02T09:37:23-07:00,22.736286878586,1,versionA_stim.csv,READVersionA.csv,"Read Version A","Dissertation, read only version A",STAR,ACTRESS,Study2,B,120,114,Test,User,-,,Recall,Recall2,21889,,0,-1,-1,0,0,,1
5eab00d45a85f509b69b78c2,cx565vc6ry,Nick_Dissertation_EX1,1,301,2020-06-02T09:37:29-07:00,6.5113749504089,1,versionA_stim.csv,READVersionA.csv,"Read Version A","Dissertation, read only version A",MEAT,OBTAIN,Study2,U,161,117,Test,User,-,,Recall,Recall2,5832,CHOP,20,4072,4670,0,0,,1
5eab00d45a85f509b69b78c2,cx565vc6ry,Nick_Dissertation_EX1,1,302,2020-06-02T09:37:43-07:00,13.284207105637,1,versionA_stim.csv,READVersionA.csv,"Read Version A","Dissertation, read only version A",EVEN,REVENGE,Study2,B,122,132,Test,User,-,,Recall,Recall2,12585,,0,-1,-1,0,0,,0.811
5eab00d45a85f509b69b78c2,cx565vc6ry,Nick_Dissertation_EX1,1,303,2020-06-02T09:37:53-07:00,9.8600268363953,1,versionA_stim.csv,READVersionA.csv,"Read Version A","Dissertation, read only version A",MOAT,CLEAR,Study2,U,169,161,Test,User,-,,Recall,Recall2,9168,DRY,25,7674,8007,0,0,,1
5eab00d45a85f509b69b78c2,cx565vc6ry,Nick_Dissertation_EX1,1,304,2020-06-02T09:37:56-07:00,3.2710461616516,1,versionA_stim.csv,READVersionA.csv,"Read Version A","Dissertation, read only version A",SLEEP,NAP,Study2,B,134,155,Test,User,-,,Recall,Recall2,2508,,0,-1,-1,0,0,,1
5eab00d45a85f509b69b78c2,cx565vc6ry,Nick_Dissertation_EX1,1,305,2020-06-02T09:37:59-07:00,2.6874408721924,1,versionA_stim.csv,READVersionA.csv,"Read Version A","Dissertation, read only version A",MAZE,ELECTION,Study2,U,159,164,Test,User,-,,Recall,Recall2,1991,,0,-1,-1,0,0,,1
5eab00d45a85f509b69b78c2,cx565vc6ry,Nick_Dissertation_EX1,1,306,2020-06-02T09:38:04-07:00,5.8544299602509,1,versionA_stim.csv,READVersionA.csv,"Read Version A","Dissertation, read only version A",WRIST,BRACELET,Study2,S,140,138,Test,User,-,,Recall,Recall2,5272,HAND,16.666666666667,2319,3594,0,0,,1
5eab00d45a85f509b69b78c2,cx565vc6ry,Nick_Dissertation_EX1,1,307,2020-06-02T09:38:08-07:00,3.6561651229858,1,versionA_stim.csv,READVersionA.csv,"Read Version A","Dissertation, read only version A",SAFETY,SEATBELT,Study2,S,147,165,Test,User,-,,Recall,Recall2,2950,NET,36.363636363636,1578,1821,0,0,,1
5eab00d45a85f509b69b78c2,cx565vc6ry,Nick_Dissertation_EX1,1,308,2020-06-02T09:38:17-07:00,8.9174909591675,1,versionA_stim.csv,READVersionA.csv,"Read Version A","Dissertation, read only version A",WATER,DRINK,Study2,S,143,147,Test,User,-,,Recall,Recall2,7063,,0,-1,-1,0,0,,1
5eab00d45a85f509b69b78c2,cx565vc6ry,Nick_Dissertation_EX1,1,309,2020-06-02T09:38:33-07:00,16.312715053558,1,versionA_stim.csv,READVersionA.csv,"Read Version A","Dissertation, read only version A",TANTRUM,TEMPER,Study2,S,154,111,Test,User,-,,Recall,Recall2,15532,MOOD,20,2280,13857,0,0,,1
5eab00d45a85f509b69b78c2,cx565vc6ry,Nick_Dissertation_EX1,1,310,2020-06-02T09:38:37-07:00,3.6933090686798,1,versionA_stim.csv,READVersionA.csv,"Read Version A","Dissertation, read only version A",MONEY,BANKER,Study2,B,132,145,Test,User,-,,Recall,Recall2,3054,,0,-1,-1,0,0,,1
5eab00d45a85f509b69b78c2,cx565vc6ry,Nick_Dissertation_EX1,1,311,2020-06-02T09:38:46-07:00,9.3578698635101,1,versionA_stim.csv,READVersionA.csv,"Read Version A","Dissertation, read only version A",FURRY,DOG,Study2,F,102,128,Test,User,-,,Recall,Recall2,8687,CUTE,0,7278,7639,0,0,,1
5eab00d45a85f509b69b78c2,cx565vc6ry,Nick_Dissertation_EX1,1,312,2020-06-02T09:39:09-07:00,22.636100053787,1,versionA_stim.csv,READVersionA.csv,"Read Version A","Dissertation, read only version A",CLUE,GAME,Study2,F,97,157,Test,User,-,,Recall,Recall2,21922,,0,-1,-1,0,0,,1
5eab00d45a85f509b69b78c2,cx565vc6ry,Nick_Dissertation_EX1,1,313,2020-06-02T09:39:14-07:00,4.6267340183258,1,versionA_stim.csv,READVersionA.csv,"Read Version A","Dissertation, read only version A",DINE,EAT,Study2,F,111,127,Test,User,-,,Recall,Recall2,3922,EAT,100,2237,2722,1,1,,1
5eab00d45a85f509b69b78c2,cx565vc6ry,Nick_Dissertation_EX1,1,314,2020-06-02T09:39:18-07:00,4.8181478977203,1,versionA_stim.csv,READVersionA.csv,"Read Version A","Dissertation, read only version A",TURN,FLIP,Study2,B,116,153,Test,User,-,,Recall,Recall2,4274,AROUND,0,2624,3267,0,0,,1
5eab00d45a85f509b69b78c2,cx565vc6ry,Nick_Dissertation_EX1,1,315,2020-06-02T09:39:23-07:00,4.4670250415802,1,versionA_stim.csv,READVersionA.csv,"Read Version A","Dissertation, read only version A",SHOELACE,TIE,Study2,F,99,124,Test,User,-,,Recall,Recall2,3838,TIE,100,2138,2892,1,1,,1
5eab00d45a85f509b69b78c2,cx565vc6ry,Nick_Dissertation_EX1,1,316,2020-06-02T09:39:33-07:00,9.9700839519501,1,versionA_stim.csv,READVersionA.csv,"Read Version A","Dissertation, read only version A",CANDLE,WAX,Study2,S,139,154,Test,User,-,,Recall,Recall2,9412,WAX,100,7925,8417,1,1,,1
5eab00d45a85f509b69b78c2,cx565vc6ry,Nick_Dissertation_EX1,1,317,2020-06-02T09:39:44-07:00,10.815467119217,1,versionA_stim.csv,READVersionA.csv,"Read Version A","Dissertation, read only version A",VEHICLE,CHARM,Study2,U,160,115,Test,User,-,,Recall,Recall2,10071,DRIVER,18.181818181818,3941,5321,0,0,,1
5eab00d45a85f509b69b78c2,cx565vc6ry,Nick_Dissertation_EX1,1,318,2020-06-02T09:39:47-07:00,3.140517950058,1,versionA_stim.csv,READVersionA.csv,"Read Version A","Dissertation, read only version A",CHERRY,RED,Study2,F,104,163,Test,User,-,,Recall,Recall2,2440,RED,100,1587,1943,1,1,,1
5eab00d45a85f509b69b78c2,cx565vc6ry,Nick_Dissertation_EX1,1,319,2020-06-02T09:39:56-07:00,9.0527291297913,1,versionA_stim.csv,READVersionA.csv,"Read Version A","Dissertation, read only version A",TRUTH,LIE,Study2,S,148,99,Test,User,-,,Recall,Recall2,8348,,0,5028,5358,0,0,,1
5eab00d45a85f509b69b78c2,cx565vc6ry,Nick_Dissertation_EX1,1,320,2020-06-02T09:40:02-07:00,6.3241159915924,1,versionA_stim.csv,READVersionA.csv,"Read Version A","Dissertation, read only version A",MAIN,SCAR,Study2,U,175,108,Test,User,-,,Recall,Recall2,5624,,0,-1,-1,0,0,,1
5eab00d45a85f509b69b78c2,cx565vc6ry,Nick_Dissertation_EX1,1,321,2020-06-02T09:40:07-07:00,4.7069449424744,1,versionA_stim.csv,READVersionA.csv,"Read Version A","Dissertation, read only version A",MIRROR,CHILDREN,Study2,U,174,139,Test,User,-,,Recall,Recall2,3921,,0,-1,-1,0,0,,1
5eab00d45a85f509b69b78c2,cx565vc6ry,Nick_Dissertation_EX1,1,322,2020-06-02T09:40:15-07:00,7.7435100078583,1,versionA_stim.csv,READVersionA.csv,"Read Version A","Dissertation, read only version A",KEYS,JOKE,Study2,U,165,110,Test,User,-,,Recall,Recall2,7080,,0,-1,-1,0,0,,1
5eab00d45a85f509b69b78c2,cx565vc6ry,Nick_Dissertation_EX1,1,323,2020-06-02T09:40:19-07:00,4.1325478553772,1,versionA_stim.csv,READVersionA.csv,"Read Version A","Dissertation, read only version A",CHILL,COLD,Study2,F,114,172,Test,User,-,,Recall,Recall2,3535,,0,-1,-1,0,0,,1
5eab00d45a85f509b69b78c2,cx565vc6ry,Nick_Dissertation_EX1,1,324,2020-06-02T09:40:25-07:00,6.1967971324921,1,versionA_stim.csv,READVersionA.csv,"Read Version A","Dissertation, read only version A",CAR,WINDSHIELD,Study2,B,117,123,Test,User,-,,Recall,Recall2,5643,DRIVER,37.5,2559,4779,0,0,,1
5eab00d45a85f509b69b78c2,cx565vc6ry,Nick_Dissertation_EX1,1,325,2020-06-02T09:40:30-07:00,5.1975619792938,1,versionA_stim.csv,READVersionA.csv,"Read Version A","Dissertation, read only version A",RIGHTS,EQUAL,Study2,S,137,158,Test,User,-,,Recall,Recall2,4623,LAWS,22.222222222222,2495,3092,0,0,,1
5eab00d45a85f509b69b78c2,cx565vc6ry,Nick_Dissertation_EX1,1,326,2020-06-02T09:40:37-07:00,7.0112819671631,1,versionA_stim.csv,READVersionA.csv,"Read Version A","Dissertation, read only version A",LOAN,SIGN,Study2,U,171,119,Test,User,-,,Recall,Recall2,6074,LEND,25,4604,4958,0,0,,1
5eab00d45a85f509b69b78c2,cx565vc6ry,Nick_Dissertation_EX1,1,327,2020-06-02T09:40:47-07:00,9.8270769119263,1,versionA_stim.csv,READVersionA.csv,"Read Version A","Dissertation, read only version A",THREAD,THIMBLE,Study2,B,121,104,Test,User,-,,Recall,Recall2,9017,THIMBLE,100,2900,3974,1,1,,1
5eab00d45a85f509b69b78c2,cx565vc6ry,Nick_Dissertation_EX1,1,328,2020-06-02T09:41:07-07:00,19.569431066513,1,versionA_stim.csv,READVersionA.csv,"Read Version A","Dissertation, read only version A",BAD,VILLAIN,Study2,B,118,101,Test,User,-,,Recall,Recall2,18838,GOOD,0,17103,17596,0,0,,0.978
5eab00d45a85f509b69b78c2,cx565vc6ry,Nick_Dissertation_EX1,1,329,2020-06-02T09:41:15-07:00,8.1182069778442,1,versionA_stim.csv,READVersionA.csv,"Read Version A","Dissertation, read only version A",STRETCH,CLOTH,Study2,U,157,129,Test,User,-,,Recall,Recall2,7364,LONG,44.444444444444,3828,5225,0,0,,1
5eab00d45a85f509b69b78c2,cx565vc6ry,Nick_Dissertation_EX1,1,330,2020-06-02T09:41:19-07:00,4.6251790523529,1,versionA_stim.csv,READVersionA.csv,"Read Version A","Dissertation, read only version A",CAKE,CLOTHES,Study2,U,166,159,Test,User,-,,Recall,Recall2,3990,,0,-1,-1,0,0,,1
5eab00d45a85f509b69b78c2,cx565vc6ry,Nick_Dissertation_EX1,1,331,2020-06-02T09:41:24-07:00,5.0894811153412,1,versionA_stim.csv,READVersionA.csv,"Read Version A","Dissertation, read only version A",INCENSE,SMELL,Study2,F,110,116,Test,User,-,,Recall,Recall2,4356,SMELL,100,1827,2294,1,1,,1
5eab00d45a85f509b69b78c2,cx565vc6ry,Nick_Dissertation_EX1,1,332,2020-06-02T09:41:28-07:00,3.1190278530121,1,versionA_stim.csv,READVersionA.csv,"Read Version A","Dissertation, read only version A",BEST,FAVORITE,Study2,B,125,122,Test,User,-,,Recall,Recall2,2473,,0,-1,-1,0,0,,1
5eab00d45a85f509b69b78c2,cx565vc6ry,Nick_Dissertation_EX1,1,333,2020-06-02T09:41:37-07:00,9.0750200748444,1,versionA_stim.csv,READVersionA.csv,"Read Version A","Dissertation, read only version A",DRIVER,CAR,Study2,F,106,105,Test,User,-,,Recall,Recall2,6353,CAR,100,5140,5400,1,1,,1
5eab00d45a85f509b69b78c2,cx565vc6ry,Nick_Dissertation_EX1,1,334,2020-06-02T09:41:43-07:00,6.6972069740295,1,versionA_stim.csv,READVersionA.csv,"Read Version A","Dissertation, read only version A",GIVE,STEAK,Study2,U,158,146,Test,User,-,,Recall,Recall2,5983,TAKE,66.666666666667,2448,3037,0,0,,1
5eab00d45a85f509b69b78c2,cx565vc6ry,Nick_Dissertation_EX1,1,335,2020-06-02T09:41:51-07:00,7.2619020938873,1,versionA_stim.csv,READVersionA.csv,"Read Version A","Dissertation, read only version A",AFFECTION,LOVE,Study2,F,115,160,Test,User,-,,Recall,Recall2,6454,,0,-1,-1,0,0,,1
5eab00d45a85f509b69b78c2,cx565vc6ry,Nick_Dissertation_EX1,1,336,2020-06-02T09:41:54-07:00,3.1347029209137,1,versionA_stim.csv,READVersionA.csv,"Read Version A","Dissertation, read only version A",SUN,TAN,Study2,S,155,173,Test,User,-,,Recall,Recall2,2521,,0,-1,-1,0,0,,1
5eab00d45a85f509b69b78c2,cx565vc6ry,Nick_Dissertation_EX1,1,337,2020-06-02T09:41:57-07:00,3.7273259162903,1,versionA_stim.csv,READVersionA.csv,"Read Version A","Dissertation, read only version A",HONEST,TRUTHFUL,Study2,B,133,171,Test,User,-,,Recall,Recall2,3140,,0,-1,-1,0,0,,1
5eab00d45a85f509b69b78c2,cx565vc6ry,Nick_Dissertation_EX1,1,338,2020-06-02T09:42:00-07:00,2.9274170398712,1,versionA_stim.csv,READVersionA.csv,"Read Version A","Dissertation, read only version A",GLASS,BREAKABLE,Study2,B,127,156,Test,User,-,,Recall,Recall2,2261,,0,-1,-1,0,0,,1
5eab00d45a85f509b69b78c2,cx565vc6ry,Nick_Dissertation_EX1,1,339,2020-06-02T09:42:23-07:00,22.327513933182,1,versionA_stim.csv,READVersionA.csv,"Read Version A","Dissertation, read only version A",POP,BALLOON,Study2,B,123,118,Test,User,-,,Recall,Recall2,21538,,0,14747,15218,0,0,,1
5eab00d45a85f509b69b78c2,cx565vc6ry,Nick_Dissertation_EX1,1,340,2020-06-02T09:42:30-07:00,6.9709379673004,1,versionA_stim.csv,READVersionA.csv,"Read Version A","Dissertation, read only version A",PLANE,AIRCRAFT,Study2,B,129,140,Test,User,-,,Recall,Recall2,6373,FLY,18.181818181818,4975,5237,0,0,,1
5eab00d45a85f509b69b78c2,cx565vc6ry,Nick_Dissertation_EX1,1,341,2020-06-02T09:42:35-07:00,5.0418381690979,1,versionA_stim.csv,READVersionA.csv,"Read Version A","Dissertation, read only version A",DETECTIVE,MYSTERY,Study2,F,100,151,Test,User,-,,Recall,Recall2,4389,MYSTERY,100,2308,3176,1,1,,1
5eab00d45a85f509b69b78c2,cx565vc6ry,Nick_Dissertation_EX1,1,342,2020-06-02T09:42:40-07:00,5.1032798290253,1,versionA_stim.csv,READVersionA.csv,"Read Version A","Dissertation, read only version A",BASEBALL,LEAGUE,Study2,B,131,120,Test,User,-,,Recall,Recall2,4552,LEAGUE,100,2706,3643,1,1,,1
5eab00d45a85f509b69b78c2,cx565vc6ry,Nick_Dissertation_EX1,1,343,2020-06-02T09:42:44-07:00,3.7541651725769,1,versionA_stim.csv,READVersionA.csv,"Read Version A","Dissertation, read only version A",GONE,AWAY,Study2,S,142,107,Test,User,-,,Recall,Recall2,3035,,0,-1,-1,0,0,,1
5eab00d45a85f509b69b78c2,cx565vc6ry,Nick_Dissertation_EX1,1,344,2020-06-02T09:42:50-07:00,5.9889478683472,1,versionA_stim.csv,READVersionA.csv,"Read Version A","Dissertation, read only version A",LITTER,TRASH,Study2,F,103,112,Test,User,-,,Recall,Recall2,5364,TRASH,100,2635,3201,1,1,,1
5eab00d45a85f509b69b78c2,cx565vc6ry,Nick_Dissertation_EX1,1,345,2020-06-02T09:42:53-07:00,3.9523801803589,1,versionA_stim.csv,READVersionA.csv,"Read Version A","Dissertation, read only version A",SHEARS,SCISSORS,Study2,F,112,100,Test,User,-,,Recall,Recall2,3309,CUT,18.181818181818,1809,2104,0,0,,1
5eab00d45a85f509b69b78c2,cx565vc6ry,Nick_Dissertation_EX1,1,346,2020-06-02T09:43:43-07:00,49.588433980942,1,versionA_stim.csv,READVersionA.csv,"Read Version A","Dissertation, read only version A",BOTH,OUNCE,Study2,U,172,102,Test,User,-,,Recall,Recall2,48848,OUNCE,100,47162,47782,1,1,,1
5eab00d45a85f509b69b78c2,cx565vc6ry,Nick_Dissertation_EX1,1,347,2020-06-02T09:43:49-07:00,5.8859429359436,1,versionA_stim.csv,READVersionA.csv,"Read Version A","Dissertation, read only version A",FRUIT,STRAWBERRY,Study2,B,124,130,Test,User,-,,Recall,Recall2,5183,STRAWBERRY,100,2139,4130,1,1,,1
5eab00d45a85f509b69b78c2,cx565vc6ry,Nick_Dissertation_EX1,1,348,2020-06-02T09:43:54-07:00,4.6654019355774,1,versionA_stim.csv,READVersionA.csv,"Read Version A","Dissertation, read only version A",LEASE,TOIL,Study2,U,170,109,Test,User,-,,Recall,Recall2,4038,LOAN,25,2106,2483,0,0,,1
5eab00d45a85f509b69b78c2,cx565vc6ry,Nick_Dissertation_EX1,1,349,2020-06-02T09:43:56-07:00,2.0445139408112,1,versionA_stim.csv,READVersionA.csv,"Read Version A","Dissertation, read only version A",,,,,,0,Instruct,User,-,"You have completed this section. Please press Enter.",,Instruct7,1302,,,-1,-1,,,,1
