Username,ID,ExperimentName,Session,Trial,Date,TimeDif,"Condition Number","Stimuli File","Order File","Condition Description","Condition Notes",Stimuli*Cue,Stimuli*Answer,Stimuli*Shuffle,"Stimuli*Stimuli Notes",Stimuli*Value,Procedure*Item,"Procedure*Trial Type","Procedure*Max Time","Procedure*Min Time",Procedure*Text,"Procedure*Procedure Notes",Procedure*Shuffle,Response*RT,Response*Response,Response*Accuracy,Response*RTfirst,Response*RTlast,Response*strictAcc,Response*lenientAcc,Response*focus,Response*Focus
5bf05b057c38740001699f35,q0fy86qswt,Nick_Dissertation_EX1,1,1,2020-06-13T09:45:45-07:00,11.067097902298,2,versionA_stim.csv,READVersionB.csv,"Read Version B","Dissertation, read only version B",,,,,,0,Instruct,-,10,"Please study each of the following word pairs. Remember that your memory will be tested! When finished, press Enter to move to the next pair.",Initial_Instruct,Instruct1,10750,,,-1,-1,,,,1
5bf05b057c38740001699f35,q0fy86qswt,Nick_Dissertation_EX1,1,2,2020-06-13T09:45:55-07:00,10.141105890274,2,versionA_stim.csv,READVersionB.csv,"Read Version B","Dissertation, read only version B",CAMP,ADVENTURE,BUFFER3,Buffer,95,93,Study,User,-,,Study/JOL,BUFFER,9739,,,-1,-1,,,,1
5bf05b057c38740001699f35,q0fy86qswt,Nick_Dissertation_EX1,1,3,2020-06-13T09:46:20-07:00,25.002874135971,2,versionA_stim.csv,READVersionB.csv,"Read Version B","Dissertation, read only version B",NOODLE,STRING,BUFFER3,Buffer,92,96,Study,User,-,,Study/JOL,BUFFER,24572,,,-1,-1,,,,1
5bf05b057c38740001699f35,q0fy86qswt,Nick_Dissertation_EX1,1,4,2020-06-13T09:46:45-07:00,24.467151880264,2,versionA_stim.csv,READVersionB.csv,"Read Version B","Dissertation, read only version B",CARROT,POTATO,BUFFER3,Buffer,91,92,Study,User,-,,Study/JOL,BUFFER,24078,,,-1,-1,,,,1
5bf05b057c38740001699f35,q0fy86qswt,Nick_Dissertation_EX1,1,5,2020-06-13T09:47:02-07:00,17.456385135651,2,versionA_stim.csv,READVersionB.csv,"Read Version B","Dissertation, read only version B",ICE,FROZEN,BUFFER3,Buffer,94,95,Study,User,-,,Study/JOL,BUFFER,17061,,,-1,-1,,,,1
5bf05b057c38740001699f35,q0fy86qswt,Nick_Dissertation_EX1,1,6,2020-06-13T09:47:19-07:00,17.158364057541,2,versionA_stim.csv,READVersionB.csv,"Read Version B","Dissertation, read only version B",SHRIMP,FISH,BUFFER3,Buffer,93,94,Study,User,-,,Study/JOL,BUFFER,16739,,,-1,-1,,,,1
5bf05b057c38740001699f35,q0fy86qswt,Nick_Dissertation_EX1,1,7,2020-06-13T09:47:33-07:00,13.515488862991,2,versionA_stim.csv,READVersionB.csv,"Read Version B","Dissertation, read only version B",FIGHT,BRAWL,Study2,B,135,149,Study,User,-,,Study/JOL,"Study Phase",13130,,,-1,-1,,,,1
5bf05b057c38740001699f35,q0fy86qswt,Nick_Dissertation_EX1,1,8,2020-06-13T09:48:06-07:00,32.938105106354,2,versionA_stim.csv,READVersionB.csv,"Read Version B","Dissertation, read only version B",CHERRY,RED,Study2,F,104,124,Study,User,-,,Study/JOL,"Study Phase",32545,,,-1,-1,,,,1
5bf05b057c38740001699f35,q0fy86qswt,Nick_Dissertation_EX1,1,9,2020-06-13T09:48:26-07:00,20.065722942352,2,versionA_stim.csv,READVersionB.csv,"Read Version B","Dissertation, read only version B",INCENSE,SMELL,Study2,F,110,131,Study,User,-,,Study/JOL,"Study Phase",19672,,,-1,-1,,,,1
5bf05b057c38740001699f35,q0fy86qswt,Nick_Dissertation_EX1,1,10,2020-06-13T09:48:42-07:00,16.482460021973,2,versionA_stim.csv,READVersionB.csv,"Read Version B","Dissertation, read only version B",BOTH,OUNCE,Study2,U,172,100,Study,User,-,,Study/JOL,"Study Phase",16036,,,-1,-1,,,,1
5bf05b057c38740001699f35,q0fy86qswt,Nick_Dissertation_EX1,1,11,2020-06-13T09:48:51-07:00,8.1520490646362,2,versionA_stim.csv,READVersionB.csv,"Read Version B","Dissertation, read only version B",DRIVER,CAR,Study2,F,106,166,Study,User,-,,Study/JOL,"Study Phase",7636,,,-1,-1,,,,1
5bf05b057c38740001699f35,q0fy86qswt,Nick_Dissertation_EX1,1,12,2020-06-13T09:49:00-07:00,9.6736898422241,2,versionA_stim.csv,READVersionB.csv,"Read Version B","Dissertation, read only version B",FISH,SARDINE,Study2,B,130,164,Study,User,-,,Study/JOL,"Study Phase",9046,,,-1,-1,,,,1
5bf05b057c38740001699f35,q0fy86qswt,Nick_Dissertation_EX1,1,13,2020-06-13T09:49:07-07:00,6.3012981414795,2,versionA_stim.csv,READVersionB.csv,"Read Version B","Dissertation, read only version B",SLEEP,NAP,Study2,B,134,163,Study,User,-,,Study/JOL,"Study Phase",5872,,,-1,-1,,,,1
5bf05b057c38740001699f35,q0fy86qswt,Nick_Dissertation_EX1,1,14,2020-06-13T09:49:18-07:00,11.420850038528,2,versionA_stim.csv,READVersionB.csv,"Read Version B","Dissertation, read only version B",FEUD,FIGHT,Study2,F,113,110,Study,User,-,,Study/JOL,"Study Phase",10993,,,-1,-1,,,,1
5bf05b057c38740001699f35,q0fy86qswt,Nick_Dissertation_EX1,1,15,2020-06-13T09:49:42-07:00,23.521899938583,2,versionA_stim.csv,READVersionB.csv,"Read Version B","Dissertation, read only version B",LITTER,TRASH,Study2,F,103,142,Study,User,-,,Study/JOL,"Study Phase",23080,,,-1,-1,,,,1
5bf05b057c38740001699f35,q0fy86qswt,Nick_Dissertation_EX1,1,16,2020-06-13T09:49:50-07:00,8.4903900623322,2,versionA_stim.csv,READVersionB.csv,"Read Version B","Dissertation, read only version B",AFFECTION,LOVE,Study2,F,115,151,Study,User,-,,Study/JOL,"Study Phase",8095,,,-1,-1,,,,1
5bf05b057c38740001699f35,q0fy86qswt,Nick_Dissertation_EX1,1,17,2020-06-13T09:49:55-07:00,5.1522188186646,2,versionA_stim.csv,READVersionB.csv,"Read Version B","Dissertation, read only version B",DINE,EAT,Study2,F,111,143,Study,User,-,,Study/JOL,"Study Phase",4769,,,-1,-1,,,,1
5bf05b057c38740001699f35,q0fy86qswt,Nick_Dissertation_EX1,1,18,2020-06-13T09:50:12-07:00,17.221984148026,2,versionA_stim.csv,READVersionB.csv,"Read Version B","Dissertation, read only version B",DETECTIVE,MYSTERY,Study2,F,100,133,Study,User,-,,Study/JOL,"Study Phase",16828,,,-1,-1,,,,1
5bf05b057c38740001699f35,q0fy86qswt,Nick_Dissertation_EX1,1,19,2020-06-13T09:50:45-07:00,32.100252866745,2,versionA_stim.csv,READVersionB.csv,"Read Version B","Dissertation, read only version B",GIVE,STEAK,Study2,U,158,136,Study,User,-,,Study/JOL,"Study Phase",31687,,,-1,-1,,,,1
5bf05b057c38740001699f35,q0fy86qswt,Nick_Dissertation_EX1,1,20,2020-06-13T09:50:51-07:00,6.0821990966797,2,versionA_stim.csv,READVersionB.csv,"Read Version B","Dissertation, read only version B",HONEST,TRUTHFUL,Study2,B,133,137,Study,User,-,,Study/JOL,"Study Phase",5678,,,-1,-1,,,,1
5bf05b057c38740001699f35,q0fy86qswt,Nick_Dissertation_EX1,1,21,2020-06-13T09:51:01-07:00,9.9148490428925,2,versionA_stim.csv,READVersionB.csv,"Read Version B","Dissertation, read only version B",TEMPERATURE,Morning,Study2,U,173,145,Study,User,-,,Study/JOL,"Study Phase",9528,,,-1,-1,,,,1
5bf05b057c38740001699f35,q0fy86qswt,Nick_Dissertation_EX1,1,22,2020-06-13T09:51:14-07:00,13.567636966705,2,versionA_stim.csv,READVersionB.csv,"Read Version B","Dissertation, read only version B",EXTENSION,LONG,Study2,F,96,105,Study,User,-,,Study/JOL,"Study Phase",13155,,,-1,-1,,,,1
5bf05b057c38740001699f35,q0fy86qswt,Nick_Dissertation_EX1,1,23,2020-06-13T09:51:23-07:00,9.019021987915,2,versionA_stim.csv,READVersionB.csv,"Read Version B","Dissertation, read only version B",RAZOR,SHAVE,Study2,S,136,157,Study,User,-,,Study/JOL,"Study Phase",8631,,,-1,-1,,,,1
5bf05b057c38740001699f35,q0fy86qswt,Nick_Dissertation_EX1,1,24,2020-06-13T09:51:27-07:00,4.2843358516693,2,versionA_stim.csv,READVersionB.csv,"Read Version B","Dissertation, read only version B",MIRROR,CHILDREN,Study2,U,174,117,Study,User,-,,Study/JOL,"Study Phase",3890,,,-1,-1,,,,1
5bf05b057c38740001699f35,q0fy86qswt,Nick_Dissertation_EX1,1,25,2020-06-13T09:51:40-07:00,12.286545991898,2,versionA_stim.csv,READVersionB.csv,"Read Version B","Dissertation, read only version B",DRY,WET,Study2,S,146,132,Study,User,-,,Study/JOL,"Study Phase",11900,,,-1,-1,,,,1
5bf05b057c38740001699f35,q0fy86qswt,Nick_Dissertation_EX1,1,26,2020-06-13T09:52:28-07:00,48.085068225861,2,versionA_stim.csv,READVersionB.csv,"Read Version B","Dissertation, read only version B",DEAD,COFFIN,Study2,B,128,144,Study,User,-,,Study/JOL,"Study Phase",8351,,,-1,-1,,,,0.976
5bf05b057c38740001699f35,q0fy86qswt,Nick_Dissertation_EX1,1,27,2020-06-13T09:52:36-07:00,7.8848738670349,2,versionA_stim.csv,READVersionB.csv,"Read Version B","Dissertation, read only version B",FRUIT,STRAWBERRY,Study2,B,124,127,Study,User,-,,Study/JOL,"Study Phase",7485,,,-1,-1,,,,1
5bf05b057c38740001699f35,q0fy86qswt,Nick_Dissertation_EX1,1,28,2020-06-13T09:52:43-07:00,7.1091179847717,2,versionA_stim.csv,READVersionB.csv,"Read Version B","Dissertation, read only version B",BAD,VILLAIN,Study2,B,118,155,Study,User,-,,Study/JOL,"Study Phase",6674,,,-1,-1,,,,1
5bf05b057c38740001699f35,q0fy86qswt,Nick_Dissertation_EX1,1,29,2020-06-13T09:52:50-07:00,7.1956069469452,2,versionA_stim.csv,READVersionB.csv,"Read Version B","Dissertation, read only version B",BIRD,PENGUIN,Study2,B,119,135,Study,User,-,,Study/JOL,"Study Phase",6814,,,-1,-1,,,,1
5bf05b057c38740001699f35,q0fy86qswt,Nick_Dissertation_EX1,1,30,2020-06-13T09:52:58-07:00,8.0095870494843,2,versionA_stim.csv,READVersionB.csv,"Read Version B","Dissertation, read only version B",SUN,TAN,Study2,S,155,168,Study,User,-,,Study/JOL,"Study Phase",6504,,,-1,-1,,,,1
5bf05b057c38740001699f35,q0fy86qswt,Nick_Dissertation_EX1,1,31,2020-06-13T09:53:08-07:00,9.6768479347229,2,versionA_stim.csv,READVersionB.csv,"Read Version B","Dissertation, read only version B",ROD,REEL,Study2,S,150,154,Study,User,-,,Study/JOL,"Study Phase",9275,,,-1,-1,,,,1
5bf05b057c38740001699f35,q0fy86qswt,Nick_Dissertation_EX1,1,32,2020-06-13T09:53:19-07:00,11.826862096786,2,versionA_stim.csv,READVersionB.csv,"Read Version B","Dissertation, read only version B",FLEA,TICK,Study2,S,151,128,Study,User,-,,Study/JOL,"Study Phase",10434,,,-1,-1,,,,1
5bf05b057c38740001699f35,q0fy86qswt,Nick_Dissertation_EX1,1,33,2020-06-13T09:53:27-07:00,7.0552670955658,2,versionA_stim.csv,READVersionB.csv,"Read Version B","Dissertation, read only version B",MULE,DONKEY,Study2,F,108,153,Study,User,-,,Study/JOL,"Study Phase",6365,,,-1,-1,,,,1
5bf05b057c38740001699f35,q0fy86qswt,Nick_Dissertation_EX1,1,34,2020-06-13T09:54:54-07:00,87.864563941956,2,versionA_stim.csv,READVersionB.csv,"Read Version B","Dissertation, read only version B",BASEBALL,LEAGUE,Study2,B,131,125,Study,User,-,,Study/JOL,"Study Phase",87452,,,-1,-1,,,,1
5bf05b057c38740001699f35,q0fy86qswt,Nick_Dissertation_EX1,1,35,2020-06-13T09:55:02-07:00,7.8275630474091,2,versionA_stim.csv,READVersionB.csv,"Read Version B","Dissertation, read only version B",THREAD,THIMBLE,Study2,B,121,156,Study,User,-,,Study/JOL,"Study Phase",7426,,,-1,-1,,,,1
5bf05b057c38740001699f35,q0fy86qswt,Nick_Dissertation_EX1,1,36,2020-06-13T09:55:10-07:00,7.300961971283,2,versionA_stim.csv,READVersionB.csv,"Read Version B","Dissertation, read only version B",POP,BALLOON,Study2,B,123,134,Study,User,-,,Study/JOL,"Study Phase",6895,,,-1,-1,,,,1
5bf05b057c38740001699f35,q0fy86qswt,Nick_Dissertation_EX1,1,37,2020-06-13T09:55:21-07:00,11.365429878235,2,versionA_stim.csv,READVersionB.csv,"Read Version B","Dissertation, read only version B",ADJOURN,END,Study2,F,101,172,Study,User,-,,Study/JOL,"Study Phase",10959,,,-1,-1,,,,1
5bf05b057c38740001699f35,q0fy86qswt,Nick_Dissertation_EX1,1,38,2020-06-13T09:55:56-07:00,35.132297992706,2,versionA_stim.csv,READVersionB.csv,"Read Version B","Dissertation, read only version B",LEASE,TOIL,Study2,U,170,165,Study,User,-,,Study/JOL,"Study Phase",34725,,,-1,-1,,,,1
5bf05b057c38740001699f35,q0fy86qswt,Nick_Dissertation_EX1,1,39,2020-06-13T09:56:01-07:00,4.6073989868164,2,versionA_stim.csv,READVersionB.csv,"Read Version B","Dissertation, read only version B",TRUTH,LIE,Study2,S,148,111,Study,User,-,,Study/JOL,"Study Phase",4200,,,-1,-1,,,,1
5bf05b057c38740001699f35,q0fy86qswt,Nick_Dissertation_EX1,1,40,2020-06-13T09:56:10-07:00,9.5735449790955,2,versionA_stim.csv,READVersionB.csv,"Read Version B","Dissertation, read only version B",DOCUMENT,PAPER,Study2,F,109,173,Study,User,-,,Study/JOL,"Study Phase",9176,,,-1,-1,,,,1
5bf05b057c38740001699f35,q0fy86qswt,Nick_Dissertation_EX1,1,41,2020-06-13T09:56:20-07:00,9.5249581336975,2,versionA_stim.csv,READVersionB.csv,"Read Version B","Dissertation, read only version B",EARTH,GROUND,Study2,S,144,114,Study,User,-,,Study/JOL,"Study Phase",9130,,,-1,-1,,,,1
5bf05b057c38740001699f35,q0fy86qswt,Nick_Dissertation_EX1,1,42,2020-06-13T09:56:24-07:00,4.2288839817047,2,versionA_stim.csv,READVersionB.csv,"Read Version B","Dissertation, read only version B",MASON,JAR,Study2,S,138,113,Study,User,-,,Study/JOL,"Study Phase",2740,,,-1,-1,,,,1
5bf05b057c38740001699f35,q0fy86qswt,Nick_Dissertation_EX1,1,43,2020-06-13T09:56:36-07:00,11.710098981857,2,versionA_stim.csv,READVersionB.csv,"Read Version B","Dissertation, read only version B",STAR,ACTRESS,Study2,B,120,159,Study,User,-,,Study/JOL,"Study Phase",11289,,,-1,-1,,,,1
5bf05b057c38740001699f35,q0fy86qswt,Nick_Dissertation_EX1,1,44,2020-06-13T09:56:43-07:00,7.097048997879,2,versionA_stim.csv,READVersionB.csv,"Read Version B","Dissertation, read only version B",EVEN,REVENGE,Study2,B,122,121,Study,User,-,,Study/JOL,"Study Phase",6707,,,-1,-1,,,,1
5bf05b057c38740001699f35,q0fy86qswt,Nick_Dissertation_EX1,1,45,2020-06-13T09:56:51-07:00,7.9173729419708,2,versionA_stim.csv,READVersionB.csv,"Read Version B","Dissertation, read only version B",RIGHTS,EQUAL,Study2,S,137,123,Study,User,-,,Study/JOL,"Study Phase",7481,,,-1,-1,,,,1
5bf05b057c38740001699f35,q0fy86qswt,Nick_Dissertation_EX1,1,46,2020-06-13T09:56:59-07:00,8.4225540161133,2,versionA_stim.csv,READVersionB.csv,"Read Version B","Dissertation, read only version B",LOUD,NOISE,Study2,S,152,171,Study,User,-,,Study/JOL,"Study Phase",7999,,,-1,-1,,,,1
5bf05b057c38740001699f35,q0fy86qswt,Nick_Dissertation_EX1,1,47,2020-06-13T09:57:12-07:00,13.020094156265,2,versionA_stim.csv,READVersionB.csv,"Read Version B","Dissertation, read only version B",SCALP,HEAD,Study2,F,105,112,Study,User,-,,Study/JOL,"Study Phase",12621,,,-1,-1,,,,1
5bf05b057c38740001699f35,q0fy86qswt,Nick_Dissertation_EX1,1,48,2020-06-13T09:57:22-07:00,10.002409934998,2,versionA_stim.csv,READVersionB.csv,"Read Version B","Dissertation, read only version B",GONE,AWAY,Study2,S,142,158,Study,User,-,,Study/JOL,"Study Phase",9603,,,-1,-1,,,,1
5bf05b057c38740001699f35,q0fy86qswt,Nick_Dissertation_EX1,1,49,2020-06-13T09:57:29-07:00,7.2714560031891,2,versionA_stim.csv,READVersionB.csv,"Read Version B","Dissertation, read only version B",GLASS,BREAKABLE,Study2,B,127,118,Study,User,-,,Study/JOL,"Study Phase",6867,,,-1,-1,,,,1
5bf05b057c38740001699f35,q0fy86qswt,Nick_Dissertation_EX1,1,50,2020-06-13T09:57:45-07:00,15.743766069412,2,versionA_stim.csv,READVersionB.csv,"Read Version B","Dissertation, read only version B",LOAN,SIGN,Study2,U,171,130,Study,User,-,,Study/JOL,"Study Phase",15350,,,-1,-1,,,,1
5bf05b057c38740001699f35,q0fy86qswt,Nick_Dissertation_EX1,1,51,2020-06-13T09:57:51-07:00,5.9931600093842,2,versionA_stim.csv,READVersionB.csv,"Read Version B","Dissertation, read only version B",CHOP,CUT,Study2,F,107,122,Study,User,-,,Study/JOL,"Study Phase",5594,,,-1,-1,,,,1
5bf05b057c38740001699f35,q0fy86qswt,Nick_Dissertation_EX1,1,52,2020-06-13T09:57:58-07:00,6.7927689552307,2,versionA_stim.csv,READVersionB.csv,"Read Version B","Dissertation, read only version B",CAR,WINDSHIELD,Study2,B,117,106,Study,User,-,,Study/JOL,"Study Phase",6391,,,-1,-1,,,,1
5bf05b057c38740001699f35,q0fy86qswt,Nick_Dissertation_EX1,1,53,2020-06-13T09:58:05-07:00,7.0130929946899,2,versionA_stim.csv,READVersionB.csv,"Read Version B","Dissertation, read only version B",CACTUS,PLANT,Study2,F,98,129,Study,User,-,,Study/JOL,"Study Phase",6610,,,-1,-1,,,,1
5bf05b057c38740001699f35,q0fy86qswt,Nick_Dissertation_EX1,1,54,2020-06-13T09:58:16-07:00,11.108177900314,2,versionA_stim.csv,READVersionB.csv,"Read Version B","Dissertation, read only version B",TURN,FLIP,Study2,B,116,97,Study,User,-,,Study/JOL,"Study Phase",10715,,,-1,-1,,,,1
5bf05b057c38740001699f35,q0fy86qswt,Nick_Dissertation_EX1,1,55,2020-06-13T09:58:27-07:00,10.777574062347,2,versionA_stim.csv,READVersionB.csv,"Read Version B","Dissertation, read only version B",MAIN,SCAR,Study2,U,175,98,Study,User,-,,Study/JOL,"Study Phase",10355,,,-1,-1,,,,1
5bf05b057c38740001699f35,q0fy86qswt,Nick_Dissertation_EX1,1,56,2020-06-13T09:58:35-07:00,8.068510055542,2,versionA_stim.csv,READVersionB.csv,"Read Version B","Dissertation, read only version B",VEHICLE,CHARM,Study2,U,160,140,Study,User,-,,Study/JOL,"Study Phase",7663,,,-1,-1,,,,1
5bf05b057c38740001699f35,q0fy86qswt,Nick_Dissertation_EX1,1,57,2020-06-13T09:58:41-07:00,5.8375940322876,2,versionA_stim.csv,READVersionB.csv,"Read Version B","Dissertation, read only version B",WATER,DRINK,Study2,S,143,174,Study,User,-,,Study/JOL,"Study Phase",5420,,,-1,-1,,,,1
5bf05b057c38740001699f35,q0fy86qswt,Nick_Dissertation_EX1,1,58,2020-06-13T09:58:52-07:00,11.400790929794,2,versionA_stim.csv,READVersionB.csv,"Read Version B","Dissertation, read only version B",KEYS,JOKE,Study2,U,165,150,Study,User,-,,Study/JOL,"Study Phase",10908,,,-1,-1,,,,1
5bf05b057c38740001699f35,q0fy86qswt,Nick_Dissertation_EX1,1,59,2020-06-13T09:59:01-07:00,8.9943809509277,2,versionA_stim.csv,READVersionB.csv,"Read Version B","Dissertation, read only version B",MAZE,ELECTION,Study2,U,159,126,Study,User,-,,Study/JOL,"Study Phase",8393,,,-1,-1,,,,1
5bf05b057c38740001699f35,q0fy86qswt,Nick_Dissertation_EX1,1,60,2020-06-13T09:59:10-07:00,9.3696420192719,2,versionA_stim.csv,READVersionB.csv,"Read Version B","Dissertation, read only version B",BEST,FAVORITE,Study2,B,125,99,Study,User,-,,Study/JOL,"Study Phase",8901,,,-1,-1,,,,1
5bf05b057c38740001699f35,q0fy86qswt,Nick_Dissertation_EX1,1,61,2020-06-13T09:59:16-07:00,5.6555519104004,2,versionA_stim.csv,READVersionB.csv,"Read Version B","Dissertation, read only version B",SHEARS,SCISSORS,Study2,F,112,103,Study,User,-,,Study/JOL,"Study Phase",5233,,,-1,-1,,,,1
5bf05b057c38740001699f35,q0fy86qswt,Nick_Dissertation_EX1,1,62,2020-06-13T09:59:23-07:00,6.7671041488647,2,versionA_stim.csv,READVersionB.csv,"Read Version B","Dissertation, read only version B",ELEMENT,CARBON,Study2,S,141,162,Study,User,-,,Study/JOL,"Study Phase",6358,,,-1,-1,,,,1
5bf05b057c38740001699f35,q0fy86qswt,Nick_Dissertation_EX1,1,63,2020-06-13T09:59:33-07:00,9.6892838478088,2,versionA_stim.csv,READVersionB.csv,"Read Version B","Dissertation, read only version B",ALONE,LONELY,Study2,S,145,115,Study,User,-,,Study/JOL,"Study Phase",8219,,,-1,-1,,,,1
5bf05b057c38740001699f35,q0fy86qswt,Nick_Dissertation_EX1,1,64,2020-06-13T09:59:44-07:00,11.4002161026,2,versionA_stim.csv,READVersionB.csv,"Read Version B","Dissertation, read only version B",FUZZY,BANG,Study2,U,168,147,Study,User,-,,Study/JOL,"Study Phase",10998,,,-1,-1,,,,1
5bf05b057c38740001699f35,q0fy86qswt,Nick_Dissertation_EX1,1,65,2020-06-13T10:00:55-07:00,70.935078859329,2,versionA_stim.csv,READVersionB.csv,"Read Version B","Dissertation, read only version B",SAFETY,SEATBELT,Study2,S,147,169,Study,User,-,,Study/JOL,"Study Phase",70526,,,-1,-1,,,,1
5bf05b057c38740001699f35,q0fy86qswt,Nick_Dissertation_EX1,1,66,2020-06-13T10:01:01-07:00,6.2760941982269,2,versionA_stim.csv,READVersionB.csv,"Read Version B","Dissertation, read only version B",MONEY,BANKER,Study2,B,132,146,Study,User,-,,Study/JOL,"Study Phase",5878,,,-1,-1,,,,1
5bf05b057c38740001699f35,q0fy86qswt,Nick_Dissertation_EX1,1,67,2020-06-13T10:01:05-07:00,3.9590439796448,2,versionA_stim.csv,READVersionB.csv,"Read Version B","Dissertation, read only version B",MOAT,CLEAR,Study2,U,169,120,Study,User,-,,Study/JOL,"Study Phase",3554,,,-1,-1,,,,1
5bf05b057c38740001699f35,q0fy86qswt,Nick_Dissertation_EX1,1,68,2020-06-13T10:01:16-07:00,10.568516969681,2,versionA_stim.csv,READVersionB.csv,"Read Version B","Dissertation, read only version B",CLUE,GAME,Study2,F,97,170,Study,User,-,,Study/JOL,"Study Phase",9908,,,-1,-1,,,,1
5bf05b057c38740001699f35,q0fy86qswt,Nick_Dissertation_EX1,1,69,2020-06-13T10:01:29-07:00,12.931778907776,2,versionA_stim.csv,READVersionB.csv,"Read Version B","Dissertation, read only version B",CRACKLE,ABLE,Study2,U,162,104,Study,User,-,,Study/JOL,"Study Phase",12506,,,-1,-1,,,,1
5bf05b057c38740001699f35,q0fy86qswt,Nick_Dissertation_EX1,1,70,2020-06-13T10:01:32-07:00,2.9765050411224,2,versionA_stim.csv,READVersionB.csv,"Read Version B","Dissertation, read only version B",CANDLE,WAX,Study2,S,139,175,Study,User,-,,Study/JOL,"Study Phase",2569,,,-1,-1,,,,1
5bf05b057c38740001699f35,q0fy86qswt,Nick_Dissertation_EX1,1,71,2020-06-13T10:01:37-07:00,5.0383040904999,2,versionA_stim.csv,READVersionB.csv,"Read Version B","Dissertation, read only version B",WRIST,BRACELET,Study2,S,140,108,Study,User,-,,Study/JOL,"Study Phase",4623,,,-1,-1,,,,1
5bf05b057c38740001699f35,q0fy86qswt,Nick_Dissertation_EX1,1,72,2020-06-13T10:01:43-07:00,6.5142710208893,2,versionA_stim.csv,READVersionB.csv,"Read Version B","Dissertation, read only version B",NAME,HATE,Study2,U,167,152,Study,User,-,,Study/JOL,"Study Phase",6106,,,-1,-1,,,,1
5bf05b057c38740001699f35,q0fy86qswt,Nick_Dissertation_EX1,1,73,2020-06-13T10:01:52-07:00,9.1223788261414,2,versionA_stim.csv,READVersionB.csv,"Read Version B","Dissertation, read only version B",FURRY,DOG,Study2,F,102,148,Study,User,-,,Study/JOL,"Study Phase",8709,,,-1,-1,,,,1
5bf05b057c38740001699f35,q0fy86qswt,Nick_Dissertation_EX1,1,74,2020-06-13T10:02:00-07:00,7.3273720741272,2,versionA_stim.csv,READVersionB.csv,"Read Version B","Dissertation, read only version B",PHONE,COMMUNICATION,Study2,S,149,102,Study,User,-,,Study/JOL,"Study Phase",6932,,,-1,-1,,,,1
5bf05b057c38740001699f35,q0fy86qswt,Nick_Dissertation_EX1,1,75,2020-06-13T10:02:07-07:00,7.0447030067444,2,versionA_stim.csv,READVersionB.csv,"Read Version B","Dissertation, read only version B",STRETCH,CLOTH,Study2,U,157,116,Study,User,-,,Study/JOL,"Study Phase",6632,,,-1,-1,,,,1
5bf05b057c38740001699f35,q0fy86qswt,Nick_Dissertation_EX1,1,76,2020-06-13T10:02:15-07:00,7.9688229560852,2,versionA_stim.csv,READVersionB.csv,"Read Version B","Dissertation, read only version B",CAKE,CLOTHES,Study2,U,166,107,Study,User,-,,Study/JOL,"Study Phase",7574,,,-1,-1,,,,1
5bf05b057c38740001699f35,q0fy86qswt,Nick_Dissertation_EX1,1,77,2020-06-13T10:02:24-07:00,9.3560819625854,2,versionA_stim.csv,READVersionB.csv,"Read Version B","Dissertation, read only version B",MEAT,OBTAIN,Study2,U,161,139,Study,User,-,,Study/JOL,"Study Phase",8961,,,-1,-1,,,,1
5bf05b057c38740001699f35,q0fy86qswt,Nick_Dissertation_EX1,1,78,2020-06-13T10:02:29-07:00,5.2560601234436,2,versionA_stim.csv,READVersionB.csv,"Read Version B","Dissertation, read only version B",PLANE,AIRCRAFT,Study2,B,129,141,Study,User,-,,Study/JOL,"Study Phase",4863,,,-1,-1,,,,1
5bf05b057c38740001699f35,q0fy86qswt,Nick_Dissertation_EX1,1,79,2020-06-13T10:02:35-07:00,5.4057049751282,2,versionA_stim.csv,READVersionB.csv,"Read Version B","Dissertation, read only version B",CAT,PANTHER,Study2,B,126,167,Study,User,-,,Study/JOL,"Study Phase",3994,,,-1,-1,,,,1
5bf05b057c38740001699f35,q0fy86qswt,Nick_Dissertation_EX1,1,80,2020-06-13T10:02:42-07:00,7.1154119968414,2,versionA_stim.csv,READVersionB.csv,"Read Version B","Dissertation, read only version B",Shell,SHAKE,Study2,U,163,119,Study,User,-,,Study/JOL,"Study Phase",6534,,,-1,-1,,,,1
5bf05b057c38740001699f35,q0fy86qswt,Nick_Dissertation_EX1,1,81,2020-06-13T10:03:10-07:00,28.675230026245,2,versionA_stim.csv,READVersionB.csv,"Read Version B","Dissertation, read only version B",OWN,HAVE,Study2,S,153,101,Study,User,-,,Study/JOL,"Study Phase",28120,,,-1,-1,,,,1
5bf05b057c38740001699f35,q0fy86qswt,Nick_Dissertation_EX1,1,82,2020-06-13T10:03:13-07:00,2.5336830615997,2,versionA_stim.csv,READVersionB.csv,"Read Version B","Dissertation, read only version B",CHILL,COLD,Study2,F,114,138,Study,User,-,,Study/JOL,"Study Phase",2120,,,-1,-1,,,,1
5bf05b057c38740001699f35,q0fy86qswt,Nick_Dissertation_EX1,1,83,2020-06-13T10:03:22-07:00,8.8514788150787,2,versionA_stim.csv,READVersionB.csv,"Read Version B","Dissertation, read only version B",JUSTICE,MAROON,Study2,U,156,109,Study,User,-,,Study/JOL,"Study Phase",8442,,,-1,-1,,,,1
5bf05b057c38740001699f35,q0fy86qswt,Nick_Dissertation_EX1,1,84,2020-06-13T10:03:26-07:00,4.0053141117096,2,versionA_stim.csv,READVersionB.csv,"Read Version B","Dissertation, read only version B",SHOELACE,TIE,Study2,F,99,161,Study,User,-,,Study/JOL,"Study Phase",3585,,,-1,-1,,,,1
5bf05b057c38740001699f35,q0fy86qswt,Nick_Dissertation_EX1,1,85,2020-06-13T10:03:32-07:00,6.0210349559784,2,versionA_stim.csv,READVersionB.csv,"Read Version B","Dissertation, read only version B",TANTRUM,TEMPER,Study2,S,154,160,Study,User,-,,Study/JOL,"Study Phase",5586,,,-1,-1,,,,1
5bf05b057c38740001699f35,q0fy86qswt,Nick_Dissertation_EX1,1,86,2020-06-13T10:03:40-07:00,8.1303310394287,2,versionA_stim.csv,READVersionB.csv,"Read Version B","Dissertation, read only version B",LISTEN,FICTION,Study2,U,164,176,Study,User,-,,Study/JOL,"Study Phase",6728,,,-1,-1,,,,1
5bf05b057c38740001699f35,q0fy86qswt,Nick_Dissertation_EX1,1,87,2020-06-13T10:03:49-07:00,8.5504050254822,2,versionA_stim.csv,READVersionB.csv,"Read Version B","Dissertation, read only version B",OCTOBER,SPOOKY,BUFFER4,Buffer,180,177,Study,User,-,,Study/JOL,BUFFER2,7871,,,-1,-1,,,,1
5bf05b057c38740001699f35,q0fy86qswt,Nick_Dissertation_EX1,1,88,2020-06-13T10:03:53-07:00,4.6119568347931,2,versionA_stim.csv,READVersionB.csv,"Read Version B","Dissertation, read only version B",TOOL,SHED,BUFFER4,Buffer,178,181,Study,User,-,,Study/JOL,BUFFER2,4189,,,-1,-1,,,,1
5bf05b057c38740001699f35,q0fy86qswt,Nick_Dissertation_EX1,1,89,2020-06-13T10:03:57-07:00,3.8498830795288,2,versionA_stim.csv,READVersionB.csv,"Read Version B","Dissertation, read only version B",SPRING,MARCH,BUFFER4,Buffer,179,178,Study,User,-,,Study/JOL,BUFFER2,3440,,,-1,-1,,,,1
5bf05b057c38740001699f35,q0fy86qswt,Nick_Dissertation_EX1,1,90,2020-06-13T10:04:35-07:00,38.386250019073,2,versionA_stim.csv,READVersionB.csv,"Read Version B","Dissertation, read only version B",MONTH,YEAR,BUFFER4,Buffer,177,180,Study,User,-,,Study/JOL,BUFFER2,37979,,,-1,-1,,,,1
5bf05b057c38740001699f35,q0fy86qswt,Nick_Dissertation_EX1,1,91,2020-06-13T10:04:47-07:00,11.34928393364,2,versionA_stim.csv,READVersionB.csv,"Read Version B","Dissertation, read only version B",DAYS,WEAKS,BUFFER4,Buffer,176,179,Study,User,-,,Study/JOL,BUFFER2,10923,,,-1,-1,,,,1
5bf05b057c38740001699f35,q0fy86qswt,Nick_Dissertation_EX1,1,92,2020-06-13T10:05:38-07:00,51.539126157761,2,versionA_stim.csv,READVersionB.csv,"Read Version B","Dissertation, read only version B",,,,,,0,Instruct,User,-,"You have completed this section. Please press Enter.",Filler_Instruction,Instruct2,51129,,,-1,-1,,,,1
5bf05b057c38740001699f35,q0fy86qswt,Nick_Dissertation_EX1,1,93,2020-06-13T10:07:39-07:00,120.41038990021,2,versionA_stim.csv,READVersionB.csv,"Read Version B","Dissertation, read only version B",,,,,,0,FreeRecall,120,120,"Please list the 50 US states in alphabetical order. The task will automatically advance to the next screen after two minutes.",,Filler1,120002,"Alabama Alaska Arizona California Deleware Detroit",0,7239,107746,0,0,,1
5bf05b057c38740001699f35,q0fy86qswt,Nick_Dissertation_EX1,1,94,2020-06-13T10:07:50-07:00,11.420301914215,2,versionA_stim.csv,READVersionB.csv,"Read Version B","Dissertation, read only version B",,,,,,0,Instruct,-,10,"You will now be presented with the first word from each of the previously studied item pairs. Please type the missing word. If you do not know the word, you may guess or press Enter to skip forward to the next pair.",,Instruct3,11022,,,-1,-1,,,,1
5bf05b057c38740001699f35,q0fy86qswt,Nick_Dissertation_EX1,1,95,2020-06-13T10:08:02-07:00,11.683341026306,2,versionA_stim.csv,READVersionB.csv,"Read Version B","Dissertation, read only version B",INCENSE,SMELL,Study2,F,110,131,Test,User,-,,Recall,Recall1,11288,scent,40,4078,9893,0,0,,1
5bf05b057c38740001699f35,q0fy86qswt,Nick_Dissertation_EX1,1,96,2020-06-13T10:08:06-07:00,4.0400350093842,2,versionA_stim.csv,READVersionB.csv,"Read Version B","Dissertation, read only version B",BAD,VILLAIN,Study2,B,118,155,Test,User,-,,Recall,Recall1,3636,good,0,2047,2418,0,0,,1
5bf05b057c38740001699f35,q0fy86qswt,Nick_Dissertation_EX1,1,97,2020-06-13T10:08:12-07:00,5.9051280021667,2,versionA_stim.csv,READVersionB.csv,"Read Version B","Dissertation, read only version B",LISTEN,FICTION,Study2,U,164,176,Test,User,-,,Recall,Recall1,5499,fiction,100,2765,4279,1,1,,1
5bf05b057c38740001699f35,q0fy86qswt,Nick_Dissertation_EX1,1,98,2020-06-13T10:08:29-07:00,17.657526016235,2,versionA_stim.csv,READVersionB.csv,"Read Version B","Dissertation, read only version B",HONEST,TRUTHFUL,Study2,B,133,137,Test,User,-,,Recall,Recall1,17241,Truthful,100,2481,16279,1,1,,1
5bf05b057c38740001699f35,q0fy86qswt,Nick_Dissertation_EX1,1,99,2020-06-13T10:08:33-07:00,3.5278260707855,2,versionA_stim.csv,READVersionB.csv,"Read Version B","Dissertation, read only version B",CANDLE,WAX,Study2,S,139,175,Test,User,-,,Recall,Recall1,3101,wax,100,1238,1968,1,1,,1
5bf05b057c38740001699f35,q0fy86qswt,Nick_Dissertation_EX1,1,100,2020-06-13T10:08:46-07:00,13.25768494606,2,versionA_stim.csv,READVersionB.csv,"Read Version B","Dissertation, read only version B",BOTH,OUNCE,Study2,U,172,100,Test,User,-,,Recall,Recall1,12853,,0,-1,-1,0,0,,1
5bf05b057c38740001699f35,q0fy86qswt,Nick_Dissertation_EX1,1,101,2020-06-13T10:08:51-07:00,4.6950099468231,2,versionA_stim.csv,READVersionB.csv,"Read Version B","Dissertation, read only version B",NAME,HATE,Study2,U,167,152,Test,User,-,,Recall,Recall1,4143,hate,100,2534,2834,1,1,,1
5bf05b057c38740001699f35,q0fy86qswt,Nick_Dissertation_EX1,1,102,2020-06-13T10:08:55-07:00,4.3698670864105,2,versionA_stim.csv,READVersionB.csv,"Read Version B","Dissertation, read only version B",SLEEP,NAP,Study2,B,134,163,Test,User,-,,Recall,Recall1,3682,Nap,100,1753,2251,1,1,,1
5bf05b057c38740001699f35,q0fy86qswt,Nick_Dissertation_EX1,1,103,2020-06-13T10:09:00-07:00,4.3178970813751,2,versionA_stim.csv,READVersionB.csv,"Read Version B","Dissertation, read only version B",SAFETY,SEATBELT,Study2,S,147,169,Test,User,-,,Recall,Recall1,3910,Belt,66.666666666667,1797,2425,0,0,,1
5bf05b057c38740001699f35,q0fy86qswt,Nick_Dissertation_EX1,1,104,2020-06-13T10:09:03-07:00,3.7871730327606,2,versionA_stim.csv,READVersionB.csv,"Read Version B","Dissertation, read only version B",CACTUS,PLANT,Study2,F,98,129,Test,User,-,,Recall,Recall1,3373,Plant,100,1601,2246,1,1,,1
5bf05b057c38740001699f35,q0fy86qswt,Nick_Dissertation_EX1,1,105,2020-06-13T10:09:09-07:00,5.2491188049316,2,versionA_stim.csv,READVersionB.csv,"Read Version B","Dissertation, read only version B",ELEMENT,CARBON,Study2,S,141,162,Test,User,-,,Recall,Recall1,4841,Carbon,100,1341,3869,1,1,,1
5bf05b057c38740001699f35,q0fy86qswt,Nick_Dissertation_EX1,1,106,2020-06-13T10:09:13-07:00,4.4338531494141,2,versionA_stim.csv,READVersionB.csv,"Read Version B","Dissertation, read only version B",DINE,EAT,Study2,F,111,143,Test,User,-,,Recall,Recall1,4016,Eat,100,1898,2712,1,1,,1
5bf05b057c38740001699f35,q0fy86qswt,Nick_Dissertation_EX1,1,107,2020-06-13T10:09:17-07:00,3.7272028923035,2,versionA_stim.csv,READVersionB.csv,"Read Version B","Dissertation, read only version B",MONEY,BANKER,Study2,B,132,146,Test,User,-,,Recall,Recall1,3319,Banker,100,1627,2193,1,1,,1
5bf05b057c38740001699f35,q0fy86qswt,Nick_Dissertation_EX1,1,108,2020-06-13T10:09:21-07:00,4.2514910697937,2,versionA_stim.csv,READVersionB.csv,"Read Version B","Dissertation, read only version B",MASON,JAR,Study2,S,138,113,Test,User,-,,Recall,Recall1,3854,Jar,100,2346,2704,1,1,,1
5bf05b057c38740001699f35,q0fy86qswt,Nick_Dissertation_EX1,1,109,2020-06-13T10:09:25-07:00,3.5354828834534,2,versionA_stim.csv,READVersionB.csv,"Read Version B","Dissertation, read only version B",FLEA,TICK,Study2,S,151,128,Test,User,-,,Recall,Recall1,3124,Tick,100,1666,2215,1,1,,1
5bf05b057c38740001699f35,q0fy86qswt,Nick_Dissertation_EX1,1,110,2020-06-13T10:09:28-07:00,3.4860310554504,2,versionA_stim.csv,READVersionB.csv,"Read Version B","Dissertation, read only version B",BASEBALL,LEAGUE,Study2,B,131,125,Test,User,-,,Recall,Recall1,3078,League,100,1319,2129,1,1,,1
5bf05b057c38740001699f35,q0fy86qswt,Nick_Dissertation_EX1,1,111,2020-06-13T10:09:36-07:00,7.7757630348206,2,versionA_stim.csv,READVersionB.csv,"Read Version B","Dissertation, read only version B",VEHICLE,CHARM,Study2,U,160,140,Test,User,-,,Recall,Recall1,7375,Charming,76.923076923077,2146,6320,0,1,,1
5bf05b057c38740001699f35,q0fy86qswt,Nick_Dissertation_EX1,1,112,2020-06-13T10:09:40-07:00,3.8709919452667,2,versionA_stim.csv,READVersionB.csv,"Read Version B","Dissertation, read only version B",SUN,TAN,Study2,S,155,168,Test,User,-,,Recall,Recall1,3456,Tan,100,1658,2609,1,1,,1
5bf05b057c38740001699f35,q0fy86qswt,Nick_Dissertation_EX1,1,113,2020-06-13T10:09:44-07:00,4.0959830284119,2,versionA_stim.csv,READVersionB.csv,"Read Version B","Dissertation, read only version B",CAR,WINDSHIELD,Study2,B,117,106,Test,User,-,,Recall,Recall1,3682,Driver,37.5,1305,2488,0,0,,1
5bf05b057c38740001699f35,q0fy86qswt,Nick_Dissertation_EX1,1,114,2020-06-13T10:09:58-07:00,13.945639133453,2,versionA_stim.csv,READVersionB.csv,"Read Version B","Dissertation, read only version B",BEST,FAVORITE,Study2,B,125,99,Test,User,-,,Recall,Recall1,13546,Favourite,94.117647058824,7427,12047,0,1,,1
5bf05b057c38740001699f35,q0fy86qswt,Nick_Dissertation_EX1,1,115,2020-06-13T10:10:01-07:00,3.7132368087769,2,versionA_stim.csv,READVersionB.csv,"Read Version B","Dissertation, read only version B",DEAD,COFFIN,Study2,B,128,144,Test,User,-,,Recall,Recall1,3306,coffin,100,1740,2376,1,1,,1
5bf05b057c38740001699f35,q0fy86qswt,Nick_Dissertation_EX1,1,116,2020-06-13T10:10:06-07:00,4.2603390216827,2,versionA_stim.csv,READVersionB.csv,"Read Version B","Dissertation, read only version B",RAZOR,SHAVE,Study2,S,136,157,Test,User,-,,Recall,Recall1,3863,Shave,100,1688,2695,1,1,,1
5bf05b057c38740001699f35,q0fy86qswt,Nick_Dissertation_EX1,1,117,2020-06-13T10:10:12-07:00,5.9785089492798,2,versionA_stim.csv,READVersionB.csv,"Read Version B","Dissertation, read only version B",THREAD,THIMBLE,Study2,B,121,156,Test,User,-,,Recall,Recall1,5572,Thimble,100,2417,3537,1,1,,1
5bf05b057c38740001699f35,q0fy86qswt,Nick_Dissertation_EX1,1,118,2020-06-13T10:10:16-07:00,4.7273330688477,2,versionA_stim.csv,READVersionB.csv,"Read Version B","Dissertation, read only version B",PLANE,AIRCRAFT,Study2,B,129,141,Test,User,-,,Recall,Recall1,4309,Aircraft,100,1863,3234,1,1,,1
5bf05b057c38740001699f35,q0fy86qswt,Nick_Dissertation_EX1,1,119,2020-06-13T10:10:23-07:00,6.9311950206757,2,versionA_stim.csv,READVersionB.csv,"Read Version B","Dissertation, read only version B",FRUIT,STRAWBERRY,Study2,B,124,127,Test,User,-,,Recall,Recall1,6521,Strawberries,81.818181818182,1279,5567,0,1,,1
5bf05b057c38740001699f35,q0fy86qswt,Nick_Dissertation_EX1,1,120,2020-06-13T10:10:28-07:00,4.3757491111755,2,versionA_stim.csv,READVersionB.csv,"Read Version B","Dissertation, read only version B",CRACKLE,ABLE,Study2,U,162,104,Test,User,-,,Recall,Recall1,3970,"Able ",100,2304,3073,1,1,,1
5bf05b057c38740001699f35,q0fy86qswt,Nick_Dissertation_EX1,1,121,2020-06-13T10:10:31-07:00,3.3932569026947,2,versionA_stim.csv,READVersionB.csv,"Read Version B","Dissertation, read only version B",SCALP,HEAD,Study2,F,105,112,Test,User,-,,Recall,Recall1,2986,Head,100,1227,1701,1,1,,1
5bf05b057c38740001699f35,q0fy86qswt,Nick_Dissertation_EX1,1,122,2020-06-13T10:10:38-07:00,6.8907420635223,2,versionA_stim.csv,READVersionB.csv,"Read Version B","Dissertation, read only version B",PHONE,COMMUNICATION,Study2,S,149,102,Test,User,-,,Recall,Recall1,6492,Communication,100,3510,5459,1,1,,1
5bf05b057c38740001699f35,q0fy86qswt,Nick_Dissertation_EX1,1,123,2020-06-13T10:10:42-07:00,4.0871448516846,2,versionA_stim.csv,READVersionB.csv,"Read Version B","Dissertation, read only version B",MOAT,CLEAR,Study2,U,169,120,Test,User,-,,Recall,Recall1,3682,Clear,100,1809,2544,1,1,,1
5bf05b057c38740001699f35,q0fy86qswt,Nick_Dissertation_EX1,1,124,2020-06-13T10:10:57-07:00,15.004570007324,2,versionA_stim.csv,READVersionB.csv,"Read Version B","Dissertation, read only version B",TEMPERATURE,Morning,Study2,U,173,145,Test,User,-,,Recall,Recall1,14592,,0,-1,-1,0,0,,1
5bf05b057c38740001699f35,q0fy86qswt,Nick_Dissertation_EX1,1,125,2020-06-13T10:11:01-07:00,3.4224519729614,2,versionA_stim.csv,READVersionB.csv,"Read Version B","Dissertation, read only version B",EARTH,GROUND,Study2,S,144,114,Test,User,-,,Recall,Recall1,3006,ground,100,1096,2007,1,1,,1
5bf05b057c38740001699f35,q0fy86qswt,Nick_Dissertation_EX1,1,126,2020-06-13T10:11:04-07:00,3.3456320762634,2,versionA_stim.csv,READVersionB.csv,"Read Version B","Dissertation, read only version B",FURRY,DOG,Study2,F,102,148,Test,User,-,,Recall,Recall1,2933,dog,100,1430,1649,1,1,,1
5bf05b057c38740001699f35,q0fy86qswt,Nick_Dissertation_EX1,1,127,2020-06-13T10:11:09-07:00,5.092129945755,2,versionA_stim.csv,READVersionB.csv,"Read Version B","Dissertation, read only version B",SHEARS,SCISSORS,Study2,F,112,103,Test,User,-,,Recall,Recall1,4643,scissors,100,1920,3583,1,1,,1
5bf05b057c38740001699f35,q0fy86qswt,Nick_Dissertation_EX1,1,128,2020-06-13T10:11:21-07:00,11.670487165451,2,versionA_stim.csv,READVersionB.csv,"Read Version B","Dissertation, read only version B",KEYS,JOKE,Study2,U,165,150,Test,User,-,,Recall,Recall1,11260,joke,100,9298,9900,1,1,,1
5bf05b057c38740001699f35,q0fy86qswt,Nick_Dissertation_EX1,1,129,2020-06-13T10:11:26-07:00,5.5583038330078,2,versionA_stim.csv,READVersionB.csv,"Read Version B","Dissertation, read only version B",WRIST,BRACELET,Study2,S,140,108,Test,User,-,,Recall,Recall1,5153,bracelet,100,1256,4018,1,1,,1
5bf05b057c38740001699f35,q0fy86qswt,Nick_Dissertation_EX1,1,130,2020-06-13T10:11:36-07:00,9.994567155838,2,versionA_stim.csv,READVersionB.csv,"Read Version B","Dissertation, read only version B",CAT,PANTHER,Study2,B,126,167,Test,User,-,,Recall,Recall1,9594,,0,-1,-1,0,0,,1
5bf05b057c38740001699f35,q0fy86qswt,Nick_Dissertation_EX1,1,131,2020-06-13T10:11:41-07:00,4.5291600227356,2,versionA_stim.csv,READVersionB.csv,"Read Version B","Dissertation, read only version B",EVEN,REVENGE,Study2,B,122,121,Test,User,-,,Recall,Recall1,4122,revenge,100,1580,3064,1,1,,1
5bf05b057c38740001699f35,q0fy86qswt,Nick_Dissertation_EX1,1,132,2020-06-13T10:11:43-07:00,2.7334909439087,2,versionA_stim.csv,READVersionB.csv,"Read Version B","Dissertation, read only version B",ADJOURN,END,Study2,F,101,172,Test,User,-,,Recall,Recall1,2328,end,100,1184,1368,1,1,,1
5bf05b057c38740001699f35,q0fy86qswt,Nick_Dissertation_EX1,1,133,2020-06-13T10:11:47-07:00,3.7336840629578,2,versionA_stim.csv,READVersionB.csv,"Read Version B","Dissertation, read only version B",MAZE,ELECTION,Study2,U,159,126,Test,User,-,,Recall,Recall1,3316,election,100,1518,2373,1,1,,1
5bf05b057c38740001699f35,q0fy86qswt,Nick_Dissertation_EX1,1,134,2020-06-13T10:11:56-07:00,9.1349878311157,2,versionA_stim.csv,READVersionB.csv,"Read Version B","Dissertation, read only version B",FEUD,FIGHT,Study2,F,113,110,Test,User,-,,Recall,Recall1,8709,fight,100,7042,7685,1,1,,1
5bf05b057c38740001699f35,q0fy86qswt,Nick_Dissertation_EX1,1,135,2020-06-13T10:11:59-07:00,2.7975451946259,2,versionA_stim.csv,READVersionB.csv,"Read Version B","Dissertation, read only version B",AFFECTION,LOVE,Study2,F,115,151,Test,User,-,,Recall,Recall1,2376,love,100,1150,1419,1,1,,1
5bf05b057c38740001699f35,q0fy86qswt,Nick_Dissertation_EX1,1,136,2020-06-13T10:12:04-07:00,4.4781239032745,2,versionA_stim.csv,READVersionB.csv,"Read Version B","Dissertation, read only version B",CLUE,GAME,Study2,F,97,170,Test,User,-,,Recall,Recall1,4043,game,100,2737,3153,1,1,,1
5bf05b057c38740001699f35,q0fy86qswt,Nick_Dissertation_EX1,1,137,2020-06-13T10:12:10-07:00,6.1152310371399,2,versionA_stim.csv,READVersionB.csv,"Read Version B","Dissertation, read only version B",RIGHTS,EQUAL,Study2,S,137,123,Test,User,-,,Recall,Recall1,5708,equal,100,3468,4424,1,1,,1
5bf05b057c38740001699f35,q0fy86qswt,Nick_Dissertation_EX1,1,138,2020-06-13T10:12:14-07:00,4.1276218891144,2,versionA_stim.csv,READVersionB.csv,"Read Version B","Dissertation, read only version B",MAIN,SCAR,Study2,U,175,98,Test,User,-,,Recall,Recall1,3661,scar,100,2221,2659,1,1,,1
5bf05b057c38740001699f35,q0fy86qswt,Nick_Dissertation_EX1,1,139,2020-06-13T10:12:17-07:00,3.3891890048981,2,versionA_stim.csv,READVersionB.csv,"Read Version B","Dissertation, read only version B",TURN,FLIP,Study2,B,116,97,Test,User,-,,Recall,Recall1,2953,flip,100,1788,2084,1,1,,1
5bf05b057c38740001699f35,q0fy86qswt,Nick_Dissertation_EX1,1,140,2020-06-13T10:12:33-07:00,15.756917953491,2,versionA_stim.csv,READVersionB.csv,"Read Version B","Dissertation, read only version B",TANTRUM,TEMPER,Study2,S,154,160,Test,User,-,,Recall,Recall1,15315,anger,36.363636363636,1260,13635,0,0,,1
5bf05b057c38740001699f35,q0fy86qswt,Nick_Dissertation_EX1,1,141,2020-06-13T10:12:38-07:00,4.5355532169342,2,versionA_stim.csv,READVersionB.csv,"Read Version B","Dissertation, read only version B",MULE,DONKEY,Study2,F,108,153,Test,User,-,,Recall,Recall1,4124,donkey,100,1754,3008,1,1,,1
5bf05b057c38740001699f35,q0fy86qswt,Nick_Dissertation_EX1,1,142,2020-06-13T10:12:41-07:00,3.8378918170929,2,versionA_stim.csv,READVersionB.csv,"Read Version B","Dissertation, read only version B",LITTER,TRASH,Study2,F,103,142,Test,User,-,,Recall,Recall1,3396,trash,100,1505,2047,1,1,,1
5bf05b057c38740001699f35,q0fy86qswt,Nick_Dissertation_EX1,1,143,2020-06-13T10:12:49-07:00,8.1048860549927,2,versionA_stim.csv,READVersionB.csv,"Read Version B","Dissertation, read only version B",CHILL,COLD,Study2,F,114,138,Test,User,-,,Recall,Recall1,7702,cold,100,3232,6050,1,1,,1
5bf05b057c38740001699f35,q0fy86qswt,Nick_Dissertation_EX1,1,144,2020-06-13T10:12:55-07:00,5.6429390907288,2,versionA_stim.csv,READVersionB.csv,"Read Version B","Dissertation, read only version B",MEAT,OBTAIN,Study2,U,161,139,Test,User,-,,Recall,Recall1,5245,obtain,100,1755,4217,1,1,,1
5bf05b057c38740001699f35,q0fy86qswt,Nick_Dissertation_EX1,1,145,2020-06-13T10:12:58-07:00,3.0706248283386,2,versionA_stim.csv,READVersionB.csv,"Read Version B","Dissertation, read only version B",LOUD,NOISE,Study2,S,152,171,Test,User,-,,Recall,Recall1,2672,noise,100,1074,1631,1,1,,1
5bf05b057c38740001699f35,q0fy86qswt,Nick_Dissertation_EX1,1,146,2020-06-13T10:13:07-07:00,8.3488011360168,2,versionA_stim.csv,READVersionB.csv,"Read Version B","Dissertation, read only version B",STAR,ACTRESS,Study2,B,120,159,Test,User,-,,Recall,Recall1,7933,actress,100,1404,5832,1,1,,1
5bf05b057c38740001699f35,q0fy86qswt,Nick_Dissertation_EX1,1,147,2020-06-13T10:13:21-07:00,14.905159950256,2,versionA_stim.csv,READVersionB.csv,"Read Version B","Dissertation, read only version B",FUZZY,BANG,Study2,U,168,147,Test,User,-,,Recall,Recall1,14429,,0,-1,-1,0,0,,1
5bf05b057c38740001699f35,q0fy86qswt,Nick_Dissertation_EX1,1,148,2020-06-13T10:13:26-07:00,4.5151379108429,2,versionA_stim.csv,READVersionB.csv,"Read Version B","Dissertation, read only version B",DRIVER,CAR,Study2,F,106,166,Test,User,-,,Recall,Recall1,4115,car,100,2062,2639,1,1,,1
5bf05b057c38740001699f35,q0fy86qswt,Nick_Dissertation_EX1,1,149,2020-06-13T10:13:31-07:00,5.0254940986633,2,versionA_stim.csv,READVersionB.csv,"Read Version B","Dissertation, read only version B",Shell,SHAKE,Study2,U,163,119,Test,User,-,,Recall,Recall1,4613,empty,20,3091,3668,0,0,,1
5bf05b057c38740001699f35,q0fy86qswt,Nick_Dissertation_EX1,1,150,2020-06-13T10:13:34-07:00,2.6603219509125,2,versionA_stim.csv,READVersionB.csv,"Read Version B","Dissertation, read only version B",CHERRY,RED,Study2,F,104,124,Test,User,-,,Recall,Recall1,2244,red,100,1136,1347,1,1,,1
5bf05b057c38740001699f35,q0fy86qswt,Nick_Dissertation_EX1,1,151,2020-06-13T10:13:37-07:00,3.2718200683594,2,versionA_stim.csv,READVersionB.csv,"Read Version B","Dissertation, read only version B",CHOP,CUT,Study2,F,107,122,Test,User,-,,Recall,Recall1,2858,cut,100,1491,1890,1,1,,1
5bf05b057c38740001699f35,q0fy86qswt,Nick_Dissertation_EX1,1,152,2020-06-13T10:13:41-07:00,3.6266090869904,2,versionA_stim.csv,READVersionB.csv,"Read Version B","Dissertation, read only version B",EXTENSION,LONG,Study2,F,96,105,Test,User,-,,Recall,Recall1,3218,long,100,1737,2260,1,1,,1
5bf05b057c38740001699f35,q0fy86qswt,Nick_Dissertation_EX1,1,153,2020-06-13T10:13:44-07:00,3.8513269424438,2,versionA_stim.csv,READVersionB.csv,"Read Version B","Dissertation, read only version B",BIRD,PENGUIN,Study2,B,119,135,Test,User,-,,Recall,Recall1,3427,penguin,100,1134,2551,1,1,,1
5bf05b057c38740001699f35,q0fy86qswt,Nick_Dissertation_EX1,1,154,2020-06-13T10:13:48-07:00,3.6948828697205,2,versionA_stim.csv,READVersionB.csv,"Read Version B","Dissertation, read only version B",CAKE,CLOTHES,Study2,U,166,107,Test,User,-,,Recall,Recall1,3219,clothes,100,1389,2169,1,1,,1
5bf05b057c38740001699f35,q0fy86qswt,Nick_Dissertation_EX1,1,155,2020-06-13T10:13:51-07:00,2.9151961803436,2,versionA_stim.csv,READVersionB.csv,"Read Version B","Dissertation, read only version B",TRUTH,LIE,Study2,S,148,111,Test,User,-,,Recall,Recall1,2471,lie,100,1182,1490,1,1,,1
5bf05b057c38740001699f35,q0fy86qswt,Nick_Dissertation_EX1,1,156,2020-06-13T10:13:54-07:00,2.9716689586639,2,versionA_stim.csv,READVersionB.csv,"Read Version B","Dissertation, read only version B",ALONE,LONELY,Study2,S,145,115,Test,User,-,,Recall,Recall1,2542,lonely,100,867,1499,1,1,,1
5bf05b057c38740001699f35,q0fy86qswt,Nick_Dissertation_EX1,1,157,2020-06-13T10:13:58-07:00,3.6363048553467,2,versionA_stim.csv,READVersionB.csv,"Read Version B","Dissertation, read only version B",GLASS,BREAKABLE,Study2,B,127,118,Test,User,-,,Recall,Recall1,3224,breakable,100,1053,2244,1,1,,1
5bf05b057c38740001699f35,q0fy86qswt,Nick_Dissertation_EX1,1,158,2020-06-13T10:14:01-07:00,3.6732890605927,2,versionA_stim.csv,READVersionB.csv,"Read Version B","Dissertation, read only version B",LOAN,SIGN,Study2,U,171,130,Test,User,-,,Recall,Recall1,3255,sign,100,2014,2323,1,1,,1
5bf05b057c38740001699f35,q0fy86qswt,Nick_Dissertation_EX1,1,159,2020-06-13T10:14:07-07:00,5.525682926178,2,versionA_stim.csv,READVersionB.csv,"Read Version B","Dissertation, read only version B",LEASE,TOIL,Study2,U,170,165,Test,User,-,,Recall,Recall1,5122,,0,-1,-1,0,0,,1
5bf05b057c38740001699f35,q0fy86qswt,Nick_Dissertation_EX1,1,160,2020-06-13T10:14:14-07:00,6.948075056076,2,versionA_stim.csv,READVersionB.csv,"Read Version B","Dissertation, read only version B",JUSTICE,MAROON,Study2,U,156,109,Test,User,-,,Recall,Recall1,6494,,0,-1,-1,0,0,,1
5bf05b057c38740001699f35,q0fy86qswt,Nick_Dissertation_EX1,1,161,2020-06-13T10:14:19-07:00,5.3289670944214,2,versionA_stim.csv,READVersionB.csv,"Read Version B","Dissertation, read only version B",GONE,AWAY,Study2,S,142,158,Test,User,-,,Recall,Recall1,4911,away,100,1058,4080,1,1,,1
5bf05b057c38740001699f35,q0fy86qswt,Nick_Dissertation_EX1,1,162,2020-06-13T10:14:22-07:00,3.3753130435944,2,versionA_stim.csv,READVersionB.csv,"Read Version B","Dissertation, read only version B",MIRROR,CHILDREN,Study2,U,174,117,Test,User,-,,Recall,Recall1,2963,children,100,1270,1988,1,1,,1
5bf05b057c38740001699f35,q0fy86qswt,Nick_Dissertation_EX1,1,163,2020-06-13T10:14:29-07:00,6.1832008361816,2,versionA_stim.csv,READVersionB.csv,"Read Version B","Dissertation, read only version B",GIVE,STEAK,Study2,U,158,136,Test,User,-,,Recall,Recall1,5784,,0,-1,-1,0,0,,1
5bf05b057c38740001699f35,q0fy86qswt,Nick_Dissertation_EX1,1,164,2020-06-13T10:14:33-07:00,4.1487581729889,2,versionA_stim.csv,READVersionB.csv,"Read Version B","Dissertation, read only version B",ROD,REEL,Study2,S,150,154,Test,User,-,,Recall,Recall1,3719,reel,100,2138,2461,1,1,,1
5bf05b057c38740001699f35,q0fy86qswt,Nick_Dissertation_EX1,1,165,2020-06-13T10:14:36-07:00,3.4109349250793,2,versionA_stim.csv,READVersionB.csv,"Read Version B","Dissertation, read only version B",WATER,DRINK,Study2,S,143,174,Test,User,-,,Recall,Recall1,3013,drink,100,1585,2218,1,1,,1
5bf05b057c38740001699f35,q0fy86qswt,Nick_Dissertation_EX1,1,166,2020-06-13T10:14:43-07:00,7.1831619739532,2,versionA_stim.csv,READVersionB.csv,"Read Version B","Dissertation, read only version B",POP,BALLOON,Study2,B,123,134,Test,User,-,,Recall,Recall1,6781,,0,-1,-1,0,0,,1
5bf05b057c38740001699f35,q0fy86qswt,Nick_Dissertation_EX1,1,167,2020-06-13T10:14:47-07:00,3.7066481113434,2,versionA_stim.csv,READVersionB.csv,"Read Version B","Dissertation, read only version B",DOCUMENT,PAPER,Study2,F,109,173,Test,User,-,,Recall,Recall1,2290,paper,100,1032,1399,1,1,,1
5bf05b057c38740001699f35,q0fy86qswt,Nick_Dissertation_EX1,1,168,2020-06-13T10:14:51-07:00,4.1591718196869,2,versionA_stim.csv,READVersionB.csv,"Read Version B","Dissertation, read only version B",SHOELACE,TIE,Study2,F,99,161,Test,User,-,,Recall,Recall1,2608,tie,100,1404,1616,1,1,,1
5bf05b057c38740001699f35,q0fy86qswt,Nick_Dissertation_EX1,1,169,2020-06-13T10:14:57-07:00,5.9307730197906,2,versionA_stim.csv,READVersionB.csv,"Read Version B","Dissertation, read only version B",DETECTIVE,MYSTERY,Study2,F,100,133,Test,User,-,,Recall,Recall1,4147,mystery,100,2223,2937,1,1,,1
5bf05b057c38740001699f35,q0fy86qswt,Nick_Dissertation_EX1,1,170,2020-06-13T10:15:00-07:00,3.0962040424347,2,versionA_stim.csv,READVersionB.csv,"Read Version B","Dissertation, read only version B",OWN,HAVE,Study2,S,153,101,Test,User,-,,Recall,Recall1,2696,have,100,1326,1626,1,1,,1
5bf05b057c38740001699f35,q0fy86qswt,Nick_Dissertation_EX1,1,171,2020-06-13T10:15:12-07:00,11.254240036011,2,versionA_stim.csv,READVersionB.csv,"Read Version B","Dissertation, read only version B",FISH,SARDINE,Study2,B,130,164,Test,User,-,,Recall,Recall1,10796,sardines,93.333333333333,7792,9713,0,1,,1
5bf05b057c38740001699f35,q0fy86qswt,Nick_Dissertation_EX1,1,172,2020-06-13T10:15:15-07:00,3.2242300510406,2,versionA_stim.csv,READVersionB.csv,"Read Version B","Dissertation, read only version B",FIGHT,BRAWL,Study2,B,135,149,Test,User,-,,Recall,Recall1,2816,brawl,100,1563,1990,1,1,,1
5bf05b057c38740001699f35,q0fy86qswt,Nick_Dissertation_EX1,1,173,2020-06-13T10:15:24-07:00,9.162045955658,2,versionA_stim.csv,READVersionB.csv,"Read Version B","Dissertation, read only version B",STRETCH,CLOTH,Study2,U,157,116,Test,User,-,,Recall,Recall1,8757,cloth,100,7308,7786,1,1,,1
5bf05b057c38740001699f35,q0fy86qswt,Nick_Dissertation_EX1,1,174,2020-06-13T10:15:27-07:00,2.9028348922729,2,versionA_stim.csv,READVersionB.csv,"Read Version B","Dissertation, read only version B",DRY,WET,Study2,S,146,132,Test,User,-,,Recall,Recall1,2491,wet,100,1132,1640,1,1,,1
5bf05b057c38740001699f35,q0fy86qswt,Nick_Dissertation_EX1,1,175,2020-06-13T10:15:37-07:00,10.414271116257,2,versionA_stim.csv,READVersionB.csv,"Read Version B","Dissertation, read only version B",,,,,,0,Instruct,-,10,"You will now be presented with a new set of word pairs. Please study each pair. Remember that your memory will be tested! When finished, press Enter to move to the next pair.",Initial_Instruct,Instruct4,10021,,,-1,-1,,,,1
5bf05b057c38740001699f35,q0fy86qswt,Nick_Dissertation_EX1,1,176,2020-06-13T10:15:43-07:00,5.6043620109558,2,versionA_stim.csv,READVersionB.csv,"Read Version B","Dissertation, read only version B",TREES,GREEN,BUFFER1,Buffer,1,4,Study,User,-,,Study/JOL,BUFFER3,5200,,,-1,-1,,,,1
5bf05b057c38740001699f35,q0fy86qswt,Nick_Dissertation_EX1,1,177,2020-06-13T10:15:48-07:00,5.1065549850464,2,versionA_stim.csv,READVersionB.csv,"Read Version B","Dissertation, read only version B",PEANUT,BUTTER,BUFFER1,Buffer,3,6,Study,User,-,,Study/JOL,BUFFER3,4704,,,-1,-1,,,,1
5bf05b057c38740001699f35,q0fy86qswt,Nick_Dissertation_EX1,1,178,2020-06-13T10:15:54-07:00,6.0720200538635,2,versionA_stim.csv,READVersionB.csv,"Read Version B","Dissertation, read only version B",SCARE,HIDE,BUFFER1,Buffer,4,2,Study,User,-,,Study/JOL,BUFFER3,5668,,,-1,-1,,,,1
5bf05b057c38740001699f35,q0fy86qswt,Nick_Dissertation_EX1,1,179,2020-06-13T10:16:03-07:00,8.5149168968201,2,versionA_stim.csv,READVersionB.csv,"Read Version B","Dissertation, read only version B",BASEBALL,CATCHER,BUFFER1,Buffer,2,3,Study,User,-,,Study/JOL,BUFFER3,8102,,,-1,-1,,,,1
5bf05b057c38740001699f35,q0fy86qswt,Nick_Dissertation_EX1,1,180,2020-06-13T10:16:11-07:00,8.3173589706421,2,versionA_stim.csv,READVersionB.csv,"Read Version B","Dissertation, read only version B",SPACE,JAM,BUFFER1,Buffer,5,5,Study,User,-,,Study/JOL,BUFFER3,7869,,,-1,-1,,,,1
5bf05b057c38740001699f35,q0fy86qswt,Nick_Dissertation_EX1,1,181,2020-06-13T10:16:18-07:00,6.7826979160309,2,versionA_stim.csv,READVersionB.csv,"Read Version B","Dissertation, read only version B",STRONG,ACCIDENT,Study1,U,80,81,Study,User,-,,Study/JOL,"Study Phase2",6364,,,-1,-1,,,,1
5bf05b057c38740001699f35,q0fy86qswt,Nick_Dissertation_EX1,1,182,2020-06-13T10:16:24-07:00,5.9123010635376,2,versionA_stim.csv,READVersionB.csv,"Read Version B","Dissertation, read only version B",BITTER,COLD,Study1,F,12,27,Study,User,-,,Study/JOL,"Study Phase2",5510,,,-1,-1,,,,1
5bf05b057c38740001699f35,q0fy86qswt,Nick_Dissertation_EX1,1,183,2020-06-13T10:16:27-07:00,3.8264470100403,2,versionA_stim.csv,READVersionB.csv,"Read Version B","Dissertation, read only version B",CREDIT,CARD,Study1,F,23,31,Study,User,-,,Study/JOL,"Study Phase2",3359,,,-1,-1,,,,1
5bf05b057c38740001699f35,q0fy86qswt,Nick_Dissertation_EX1,1,184,2020-06-13T10:16:38-07:00,10.178544998169,2,versionA_stim.csv,READVersionB.csv,"Read Version B","Dissertation, read only version B",ARTERY,BRONZE,Study1,U,74,48,Study,User,-,,Study/JOL,"Study Phase2",9779,,,-1,-1,,,,1
5bf05b057c38740001699f35,q0fy86qswt,Nick_Dissertation_EX1,1,185,2020-06-13T10:16:48-07:00,10.337314128876,2,versionA_stim.csv,READVersionB.csv,"Read Version B","Dissertation, read only version B",HORNET,STING,Study1,F,11,70,Study,User,-,,Study/JOL,"Study Phase2",9931,,,-1,-1,,,,1
5bf05b057c38740001699f35,q0fy86qswt,Nick_Dissertation_EX1,1,186,2020-06-13T10:16:53-07:00,4.9739139080048,2,versionA_stim.csv,READVersionB.csv,"Read Version B","Dissertation, read only version B",TRIAL,JURY,Study1,S,50,29,Study,User,-,,Study/JOL,"Study Phase2",4561,,,-1,-1,,,,1
5bf05b057c38740001699f35,q0fy86qswt,Nick_Dissertation_EX1,1,187,2020-06-13T10:16:59-07:00,6.5465579032898,2,versionA_stim.csv,READVersionB.csv,"Read Version B","Dissertation, read only version B",PAW,DOG,Study1,F,15,33,Study,User,-,,Study/JOL,"Study Phase2",6147,,,-1,-1,,,,1
5bf05b057c38740001699f35,q0fy86qswt,Nick_Dissertation_EX1,1,188,2020-06-13T10:17:07-07:00,7.117222070694,2,versionA_stim.csv,READVersionB.csv,"Read Version B","Dissertation, read only version B",WAGE,MONEY,Study1,F,8,30,Study,User,-,,Study/JOL,"Study Phase2",6719,,,-1,-1,,,,1
5bf05b057c38740001699f35,q0fy86qswt,Nick_Dissertation_EX1,1,189,2020-06-13T10:17:15-07:00,8.0085511207581,2,versionA_stim.csv,READVersionB.csv,"Read Version B","Dissertation, read only version B",NUMBER,AMOUNT,Study1,S,47,34,Study,User,-,,Study/JOL,"Study Phase2",7565,,,-1,-1,,,,1
5bf05b057c38740001699f35,q0fy86qswt,Nick_Dissertation_EX1,1,190,2020-06-13T10:17:20-07:00,5.0831229686737,2,versionA_stim.csv,READVersionB.csv,"Read Version B","Dissertation, read only version B",ORCHID,FLOWER,Study1,F,24,14,Study,User,-,,Study/JOL,"Study Phase2",4674,,,-1,-1,,,,1
5bf05b057c38740001699f35,q0fy86qswt,Nick_Dissertation_EX1,1,191,2020-06-13T10:17:26-07:00,6.5917048454285,2,versionA_stim.csv,READVersionB.csv,"Read Version B","Dissertation, read only version B",SLEEP,DROWSY,Study1,B,41,60,Study,User,-,,Study/JOL,"Study Phase2",6194,,,-1,-1,,,,1
5bf05b057c38740001699f35,q0fy86qswt,Nick_Dissertation_EX1,1,192,2020-06-13T10:17:39-07:00,12.640722990036,2,versionA_stim.csv,READVersionB.csv,"Read Version B","Dissertation, read only version B",MACHINE,POSITION,Study1,U,76,58,Study,User,-,,Study/JOL,"Study Phase2",12235,,,-1,-1,,,,1
5bf05b057c38740001699f35,q0fy86qswt,Nick_Dissertation_EX1,1,193,2020-06-13T10:17:49-07:00,9.9442760944366,2,versionA_stim.csv,READVersionB.csv,"Read Version B","Dissertation, read only version B",REVOLUTION,WAR,Study1,F,20,37,Study,User,-,,Study/JOL,"Study Phase2",9531,,,-1,-1,,,,1
5bf05b057c38740001699f35,q0fy86qswt,Nick_Dissertation_EX1,1,194,2020-06-13T10:17:58-07:00,9.43803191185,2,versionA_stim.csv,READVersionB.csv,"Read Version B","Dissertation, read only version B",DIGESTION,STOMACH,Study1,F,7,22,Study,User,-,,Study/JOL,"Study Phase2",9033,,,-1,-1,,,,1
5bf05b057c38740001699f35,q0fy86qswt,Nick_Dissertation_EX1,1,195,2020-06-13T10:18:05-07:00,7.1004421710968,2,versionA_stim.csv,READVersionB.csv,"Read Version B","Dissertation, read only version B",BALL,RACKET,Study1,B,38,68,Study,User,-,,Study/JOL,"Study Phase2",6694,,,-1,-1,,,,1
5bf05b057c38740001699f35,q0fy86qswt,Nick_Dissertation_EX1,1,196,2020-06-13T10:18:08-07:00,2.5863559246063,2,versionA_stim.csv,READVersionB.csv,"Read Version B","Dissertation, read only version B",BEGIN,END,Study1,S,54,52,Study,User,-,,Study/JOL,"Study Phase2",2149,,,-1,-1,,,,1
5bf05b057c38740001699f35,q0fy86qswt,Nick_Dissertation_EX1,1,197,2020-06-13T10:18:21-07:00,13.276335000992,2,versionA_stim.csv,READVersionB.csv,"Read Version B","Dissertation, read only version B",VALLEY,ADD,Study1,U,82,11,Study,User,-,,Study/JOL,"Study Phase2",12863,,,-1,-1,,,,1
5bf05b057c38740001699f35,q0fy86qswt,Nick_Dissertation_EX1,1,198,2020-06-13T10:18:28-07:00,6.3388199806213,2,versionA_stim.csv,READVersionB.csv,"Read Version B","Dissertation, read only version B",CASH,WOULD,Study1,U,83,9,Study,User,-,,Study/JOL,"Study Phase2",5940,,,-1,-1,,,,1
5bf05b057c38740001699f35,q0fy86qswt,Nick_Dissertation_EX1,1,199,2020-06-13T10:18:36-07:00,8.9416980743408,2,versionA_stim.csv,READVersionB.csv,"Read Version B","Dissertation, read only version B",DIETARY,SACKING,Study1,U,67,15,Study,User,-,,Study/JOL,"Study Phase2",6922,,,-1,-1,,,,1
5bf05b057c38740001699f35,q0fy86qswt,Nick_Dissertation_EX1,1,200,2020-06-13T10:19:10-07:00,33.397531986237,2,versionA_stim.csv,READVersionB.csv,"Read Version B","Dissertation, read only version B",DARK,CAVE,Study1,B,28,20,Study,User,-,,Study/JOL,"Study Phase2",30180,,,-1,-1,,,,1
5bf05b057c38740001699f35,q0fy86qswt,Nick_Dissertation_EX1,1,201,2020-06-13T10:19:15-07:00,5.1044750213623,2,versionA_stim.csv,READVersionB.csv,"Read Version B","Dissertation, read only version B",SHOE,FOOT,Study1,S,60,50,Study,User,-,,Study/JOL,"Study Phase2",4653,,,-1,-1,,,,1
5bf05b057c38740001699f35,q0fy86qswt,Nick_Dissertation_EX1,1,202,2020-06-13T10:19:24-07:00,9.3708028793335,2,versionA_stim.csv,READVersionB.csv,"Read Version B","Dissertation, read only version B",DISCOVER,FLOOR,Study1,U,71,10,Study,User,-,,Study/JOL,"Study Phase2",8955,,,-1,-1,,,,1
5bf05b057c38740001699f35,q0fy86qswt,Nick_Dissertation_EX1,1,203,2020-06-13T10:19:38-07:00,13.783570051193,2,versionA_stim.csv,READVersionB.csv,"Read Version B","Dissertation, read only version B",PUSHER,CLUTTER,Study1,U,66,24,Study,User,-,,Study/JOL,"Study Phase2",13331,,,-1,-1,,,,1
5bf05b057c38740001699f35,q0fy86qswt,Nick_Dissertation_EX1,1,204,2020-06-13T10:19:44-07:00,5.6285619735718,2,versionA_stim.csv,READVersionB.csv,"Read Version B","Dissertation, read only version B",DUMP,WASTE,Study1,S,49,65,Study,User,-,,Study/JOL,"Study Phase2",5216,,,-1,-1,,,,1
5bf05b057c38740001699f35,q0fy86qswt,Nick_Dissertation_EX1,1,205,2020-06-13T10:19:53-07:00,9.4342350959778,2,versionA_stim.csv,READVersionB.csv,"Read Version B","Dissertation, read only version B",KEY,LATCH,Study1,B,36,44,Study,User,-,,Study/JOL,"Study Phase2",9020,,,-1,-1,,,,1
5bf05b057c38740001699f35,q0fy86qswt,Nick_Dissertation_EX1,1,206,2020-06-13T10:19:59-07:00,6.0353448390961,2,versionA_stim.csv,READVersionB.csv,"Read Version B","Dissertation, read only version B",BRIDGE,WATER,Study1,F,18,64,Study,User,-,,Study/JOL,"Study Phase2",5500,,,-1,-1,,,,1
5bf05b057c38740001699f35,q0fy86qswt,Nick_Dissertation_EX1,1,207,2020-06-13T10:20:06-07:00,6.6150050163269,2,versionA_stim.csv,READVersionB.csv,"Read Version B","Dissertation, read only version B",SOON,BELT,Study1,U,70,75,Study,User,-,,Study/JOL,"Study Phase2",6186,,,-1,-1,,,,1
5bf05b057c38740001699f35,q0fy86qswt,Nick_Dissertation_EX1,1,208,2020-06-13T10:20:15-07:00,9.1989080905914,2,versionA_stim.csv,READVersionB.csv,"Read Version B","Dissertation, read only version B",ARCHITECTURE,DESIGN,Study1,S,51,74,Study,User,-,,Study/JOL,"Study Phase2",8783,,,-1,-1,,,,1
5bf05b057c38740001699f35,q0fy86qswt,Nick_Dissertation_EX1,1,209,2020-06-13T10:20:27-07:00,12.036576032639,2,versionA_stim.csv,READVersionB.csv,"Read Version B","Dissertation, read only version B",SUGAR,RIDDLE,Study1,U,81,8,Study,User,-,,Study/JOL,"Study Phase2",11604,,,-1,-1,,,,1
5bf05b057c38740001699f35,q0fy86qswt,Nick_Dissertation_EX1,1,210,2020-06-13T10:20:38-07:00,11.342362880707,2,versionA_stim.csv,READVersionB.csv,"Read Version B","Dissertation, read only version B",BABY,CHILD,Study1,S,64,53,Study,User,-,,Study/JOL,"Study Phase2",10949,,,-1,-1,,,,1
5bf05b057c38740001699f35,q0fy86qswt,Nick_Dissertation_EX1,1,211,2020-06-13T10:20:52-07:00,13.466626167297,2,versionA_stim.csv,READVersionB.csv,"Read Version B","Dissertation, read only version B",SENTENCE,WORD,Study1,B,31,56,Study,User,-,,Study/JOL,"Study Phase2",13062,,,-1,-1,,,,1
5bf05b057c38740001699f35,q0fy86qswt,Nick_Dissertation_EX1,1,212,2020-06-13T10:20:56-07:00,3.6535849571228,2,versionA_stim.csv,READVersionB.csv,"Read Version B","Dissertation, read only version B",BATHROOM,TOILET,Study1,S,58,55,Study,User,-,,Study/JOL,"Study Phase2",3231,,,-1,-1,,,,1
5bf05b057c38740001699f35,q0fy86qswt,Nick_Dissertation_EX1,1,213,2020-06-13T10:20:59-07:00,3.4555418491364,2,versionA_stim.csv,READVersionB.csv,"Read Version B","Dissertation, read only version B",HOT,CHILI,Study1,B,37,40,Study,User,-,,Study/JOL,"Study Phase2",3043,,,-1,-1,,,,1
5bf05b057c38740001699f35,q0fy86qswt,Nick_Dissertation_EX1,1,214,2020-06-13T10:21:03-07:00,3.9160590171814,2,versionA_stim.csv,READVersionB.csv,"Read Version B","Dissertation, read only version B",ART,LION,Study1,U,79,16,Study,User,-,,Study/JOL,"Study Phase2",3497,,,-1,-1,,,,1
5bf05b057c38740001699f35,q0fy86qswt,Nick_Dissertation_EX1,1,215,2020-06-13T10:21:13-07:00,9.6523621082306,2,versionA_stim.csv,READVersionB.csv,"Read Version B","Dissertation, read only version B",HAPPY,CAR,Study1,U,77,72,Study,User,-,,Study/JOL,"Study Phase2",9227,,,-1,-1,,,,1
5bf05b057c38740001699f35,q0fy86qswt,Nick_Dissertation_EX1,1,216,2020-06-13T10:21:17-07:00,4.2352659702301,2,versionA_stim.csv,READVersionB.csv,"Read Version B","Dissertation, read only version B",SWAN,BIRD,Study1,F,14,80,Study,User,-,,Study/JOL,"Study Phase2",3824,,,-1,-1,,,,1
5bf05b057c38740001699f35,q0fy86qswt,Nick_Dissertation_EX1,1,217,2020-06-13T10:21:25-07:00,7.7713301181793,2,versionA_stim.csv,READVersionB.csv,"Read Version B","Dissertation, read only version B",HUNGER,FAMINE,Study1,B,40,73,Study,User,-,,Study/JOL,"Study Phase2",7381,,,-1,-1,,,,1
5bf05b057c38740001699f35,q0fy86qswt,Nick_Dissertation_EX1,1,218,2020-06-13T10:21:40-07:00,15.469048976898,2,versionA_stim.csv,READVersionB.csv,"Read Version B","Dissertation, read only version B",LOCATION,SITE,Study1,S,48,17,Study,User,-,,Study/JOL,"Study Phase2",15061,,,-1,-1,,,,1
5bf05b057c38740001699f35,q0fy86qswt,Nick_Dissertation_EX1,1,219,2020-06-13T10:21:45-07:00,5.3433530330658,2,versionA_stim.csv,READVersionB.csv,"Read Version B","Dissertation, read only version B",LIFT,WOMAN,Study1,U,69,43,Study,User,-,,Study/JOL,"Study Phase2",4930,,,-1,-1,,,,1
5bf05b057c38740001699f35,q0fy86qswt,Nick_Dissertation_EX1,1,220,2020-06-13T10:21:51-07:00,5.2380177974701,2,versionA_stim.csv,READVersionB.csv,"Read Version B","Dissertation, read only version B",BUG,WASP,Study1,B,32,13,Study,User,-,,Study/JOL,"Study Phase2",4809,,,-1,-1,,,,1
5bf05b057c38740001699f35,q0fy86qswt,Nick_Dissertation_EX1,1,221,2020-06-13T10:21:57-07:00,5.9258680343628,2,versionA_stim.csv,READVersionB.csv,"Read Version B","Dissertation, read only version B",HEIGHT,GROWTH,Study1,B,30,38,Study,User,-,,Study/JOL,"Study Phase2",5508,,,-1,-1,,,,1
5bf05b057c38740001699f35,q0fy86qswt,Nick_Dissertation_EX1,1,222,2020-06-13T10:21:59-07:00,2.9052090644836,2,versionA_stim.csv,READVersionB.csv,"Read Version B","Dissertation, read only version B",GEOLOGY,ROCK,Study1,F,19,28,Study,User,-,,Study/JOL,"Study Phase2",2376,,,-1,-1,,,,1
5bf05b057c38740001699f35,q0fy86qswt,Nick_Dissertation_EX1,1,223,2020-06-13T10:22:03-07:00,3.4733719825745,2,versionA_stim.csv,READVersionB.csv,"Read Version B","Dissertation, read only version B",EDITOR,NEWS,Study1,F,10,54,Study,User,-,,Study/JOL,"Study Phase2",3050,,,-1,-1,,,,1
5bf05b057c38740001699f35,q0fy86qswt,Nick_Dissertation_EX1,1,224,2020-06-13T10:22:08-07:00,5.2078659534454,2,versionA_stim.csv,READVersionB.csv,"Read Version B","Dissertation, read only version B",DRINK,SIP,Study1,B,27,86,Study,User,-,,Study/JOL,"Study Phase2",4794,,,-1,-1,,,,1
5bf05b057c38740001699f35,q0fy86qswt,Nick_Dissertation_EX1,1,225,2020-06-13T10:22:12-07:00,4.309718132019,2,versionA_stim.csv,READVersionB.csv,"Read Version B","Dissertation, read only version B",FIRE,BLAZE,Study1,B,45,23,Study,User,-,,Study/JOL,"Study Phase2",3908,,,-1,-1,,,,1
5bf05b057c38740001699f35,q0fy86qswt,Nick_Dissertation_EX1,1,226,2020-06-13T10:22:15-07:00,2.1762540340424,2,versionA_stim.csv,READVersionB.csv,"Read Version B","Dissertation, read only version B",HERD,COW,Study1,F,22,39,Study,User,-,,Study/JOL,"Study Phase2",1864,,,-1,-1,,,,1
5bf05b057c38740001699f35,q0fy86qswt,Nick_Dissertation_EX1,1,227,2020-06-13T10:22:22-07:00,7.6183488368988,2,versionA_stim.csv,READVersionB.csv,"Read Version B","Dissertation, read only version B",KING,VASE,Study1,U,85,12,Study,User,-,,Study/JOL,"Study Phase2",7217,,,-1,-1,,,,1
5bf05b057c38740001699f35,q0fy86qswt,Nick_Dissertation_EX1,1,228,2020-06-13T10:22:26-07:00,3.8548800945282,2,versionA_stim.csv,READVersionB.csv,"Read Version B","Dissertation, read only version B",DISCUSSION,TALK,Study1,F,21,85,Study,User,-,,Study/JOL,"Study Phase2",3447,,,-1,-1,,,,1
5bf05b057c38740001699f35,q0fy86qswt,Nick_Dissertation_EX1,1,229,2020-06-13T10:22:33-07:00,7.3488290309906,2,versionA_stim.csv,READVersionB.csv,"Read Version B","Dissertation, read only version B",DUE,ASSIGNMENT,Study1,S,46,61,Study,User,-,,Study/JOL,"Study Phase2",6934,,,-1,-1,,,,1
5bf05b057c38740001699f35,q0fy86qswt,Nick_Dissertation_EX1,1,230,2020-06-13T10:22:44-07:00,10.166761875153,2,versionA_stim.csv,READVersionB.csv,"Read Version B","Dissertation, read only version B",FULL,ENOUGH,Study1,B,26,21,Study,User,-,,Study/JOL,"Study Phase2",9677,,,-1,-1,,,,1
5bf05b057c38740001699f35,q0fy86qswt,Nick_Dissertation_EX1,1,231,2020-06-13T10:22:52-07:00,8.5405869483948,2,versionA_stim.csv,READVersionB.csv,"Read Version B","Dissertation, read only version B",CLOTHES,ATTIRE,Study1,B,43,51,Study,User,-,,Study/JOL,"Study Phase2",8128,,,-1,-1,,,,1
5bf05b057c38740001699f35,q0fy86qswt,Nick_Dissertation_EX1,1,232,2020-06-13T10:22:59-07:00,6.9337260723114,2,versionA_stim.csv,READVersionB.csv,"Read Version B","Dissertation, read only version B",BLOW,WIND,Study1,S,55,59,Study,User,-,,Study/JOL,"Study Phase2",6512,,,-1,-1,,,,1
5bf05b057c38740001699f35,q0fy86qswt,Nick_Dissertation_EX1,1,233,2020-06-13T10:23:01-07:00,1.716313123703,2,versionA_stim.csv,READVersionB.csv,"Read Version B","Dissertation, read only version B",TUNA,FISH,Study1,F,25,46,Study,User,-,,Study/JOL,"Study Phase2",1392,,,-1,-1,,,,1
5bf05b057c38740001699f35,q0fy86qswt,Nick_Dissertation_EX1,1,234,2020-06-13T10:23:08-07:00,7.4702188968658,2,versionA_stim.csv,READVersionB.csv,"Read Version B","Dissertation, read only version B",WORK,CHORE,Study1,B,39,84,Study,User,-,,Study/JOL,"Study Phase2",7050,,,-1,-1,,,,1
5bf05b057c38740001699f35,q0fy86qswt,Nick_Dissertation_EX1,1,235,2020-06-13T10:23:27-07:00,18.950973033905,2,versionA_stim.csv,READVersionB.csv,"Read Version B","Dissertation, read only version B",CIRCLE,ROUND,Study1,S,65,25,Study,User,-,,Study/JOL,"Study Phase2",1675,,,-1,-1,,,,0.889
5bf05b057c38740001699f35,q0fy86qswt,Nick_Dissertation_EX1,1,236,2020-06-13T10:23:31-07:00,4.201632976532,2,versionA_stim.csv,READVersionB.csv,"Read Version B","Dissertation, read only version B",PAST,FUTURE,Study1,S,61,82,Study,User,-,,Study/JOL,"Study Phase2",3791,,,-1,-1,,,,1
5bf05b057c38740001699f35,q0fy86qswt,Nick_Dissertation_EX1,1,237,2020-06-13T10:23:36-07:00,4.5422670841217,2,versionA_stim.csv,READVersionB.csv,"Read Version B","Dissertation, read only version B",ROOT,PLANT,Study1,F,13,7,Study,User,-,,Study/JOL,"Study Phase2",4131,,,-1,-1,,,,1
5bf05b057c38740001699f35,q0fy86qswt,Nick_Dissertation_EX1,1,238,2020-06-13T10:23:44-07:00,8.0795569419861,2,versionA_stim.csv,READVersionB.csv,"Read Version B","Dissertation, read only version B",DEATH,BUSINESS,Study1,U,72,76,Study,User,-,,Study/JOL,"Study Phase2",7673,,,-1,-1,,,,1
5bf05b057c38740001699f35,q0fy86qswt,Nick_Dissertation_EX1,1,239,2020-06-13T10:23:53-07:00,9.0340189933777,2,versionA_stim.csv,READVersionB.csv,"Read Version B","Dissertation, read only version B",PLANE,PILOT,Study1,B,44,67,Study,User,-,,Study/JOL,"Study Phase2",8615,,,-1,-1,,,,1
5bf05b057c38740001699f35,q0fy86qswt,Nick_Dissertation_EX1,1,240,2020-06-13T10:24:01-07:00,7.7849280834198,2,versionA_stim.csv,READVersionB.csv,"Read Version B","Dissertation, read only version B",KIDNEY,LIVER,Study1,S,53,36,Study,User,-,,Study/JOL,"Study Phase2",7383,,,-1,-1,,,,1
5bf05b057c38740001699f35,q0fy86qswt,Nick_Dissertation_EX1,1,241,2020-06-13T10:24:11-07:00,10.619560956955,2,versionA_stim.csv,READVersionB.csv,"Read Version B","Dissertation, read only version B",PARK,HUNGRY,Study1,U,68,62,Study,User,-,,Study/JOL,"Study Phase2",10216,,,-1,-1,,,,1
5bf05b057c38740001699f35,q0fy86qswt,Nick_Dissertation_EX1,1,242,2020-06-13T10:24:14-07:00,2.6307978630066,2,versionA_stim.csv,READVersionB.csv,"Read Version B","Dissertation, read only version B",WINE,CHEESE,Study1,S,57,19,Study,User,-,,Study/JOL,"Study Phase2",2227,,,-1,-1,,,,1
5bf05b057c38740001699f35,q0fy86qswt,Nick_Dissertation_EX1,1,243,2020-06-13T10:24:21-07:00,6.3988859653473,2,versionA_stim.csv,READVersionB.csv,"Read Version B","Dissertation, read only version B",LAW,ATTORNEY,Study1,B,34,49,Study,User,-,,Study/JOL,"Study Phase2",5989,,,-1,-1,,,,1
5bf05b057c38740001699f35,q0fy86qswt,Nick_Dissertation_EX1,1,244,2020-06-13T10:24:28-07:00,7.842588186264,2,versionA_stim.csv,READVersionB.csv,"Read Version B","Dissertation, read only version B",MATH,DIVISION,Study1,B,33,69,Study,User,-,,Study/JOL,"Study Phase2",7424,,,-1,-1,,,,1
5bf05b057c38740001699f35,q0fy86qswt,Nick_Dissertation_EX1,1,245,2020-06-13T10:24:34-07:00,5.6851518154144,2,versionA_stim.csv,READVersionB.csv,"Read Version B","Dissertation, read only version B",LETTUCE,SALAD,Study1,S,59,45,Study,User,-,,Study/JOL,"Study Phase2",5285,,,-1,-1,,,,1
5bf05b057c38740001699f35,q0fy86qswt,Nick_Dissertation_EX1,1,246,2020-06-13T10:24:39-07:00,5.3153610229492,2,versionA_stim.csv,READVersionB.csv,"Read Version B","Dissertation, read only version B",SMELL,STENCH,Study1,B,42,47,Study,User,-,,Study/JOL,"Study Phase2",4909,,,-1,-1,,,,1
5bf05b057c38740001699f35,q0fy86qswt,Nick_Dissertation_EX1,1,247,2020-06-13T10:24:45-07:00,5.7620360851288,2,versionA_stim.csv,READVersionB.csv,"Read Version B","Dissertation, read only version B",CHISEL,HAMMER,Study1,F,9,83,Study,User,-,,Study/JOL,"Study Phase2",5239,,,-1,-1,,,,1
5bf05b057c38740001699f35,q0fy86qswt,Nick_Dissertation_EX1,1,248,2020-06-13T10:24:53-07:00,7.5183279514313,2,versionA_stim.csv,READVersionB.csv,"Read Version B","Dissertation, read only version B",HIDE,SICK,Study1,U,84,42,Study,User,-,,Study/JOL,"Study Phase2",7086,,,-1,-1,,,,1
5bf05b057c38740001699f35,q0fy86qswt,Nick_Dissertation_EX1,1,249,2020-06-13T10:24:55-07:00,2.1329131126404,2,versionA_stim.csv,READVersionB.csv,"Read Version B","Dissertation, read only version B",HONEY,BEE,Study1,S,63,77,Study,User,-,,Study/JOL,"Study Phase2",1814,,,-1,-1,,,,1
5bf05b057c38740001699f35,q0fy86qswt,Nick_Dissertation_EX1,1,250,2020-06-13T10:25:07-07:00,12.722358942032,2,versionA_stim.csv,READVersionB.csv,"Read Version B","Dissertation, read only version B",FIX,HAND,Study1,U,75,78,Study,User,-,,Study/JOL,"Study Phase2",12296,,,-1,-1,,,,1
5bf05b057c38740001699f35,q0fy86qswt,Nick_Dissertation_EX1,1,251,2020-06-13T10:25:11-07:00,3.9002969264984,2,versionA_stim.csv,READVersionB.csv,"Read Version B","Dissertation, read only version B",HYGIENE,CLEAN,Study1,F,17,41,Study,User,-,,Study/JOL,"Study Phase2",3473,,,-1,-1,,,,1
5bf05b057c38740001699f35,q0fy86qswt,Nick_Dissertation_EX1,1,252,2020-06-13T10:25:23-07:00,12.000949144363,2,versionA_stim.csv,READVersionB.csv,"Read Version B","Dissertation, read only version B",GREAT,FANTASTIC,Study1,B,35,35,Study,User,-,,Study/JOL,"Study Phase2",11584,,,-1,-1,,,,1
5bf05b057c38740001699f35,q0fy86qswt,Nick_Dissertation_EX1,1,253,2020-06-13T10:25:27-07:00,4.0274260044098,2,versionA_stim.csv,READVersionB.csv,"Read Version B","Dissertation, read only version B",DELINQUENT,BAD,Study1,F,6,18,Study,User,-,,Study/JOL,"Study Phase2",3611,,,-1,-1,,,,1
5bf05b057c38740001699f35,q0fy86qswt,Nick_Dissertation_EX1,1,254,2020-06-13T10:25:30-07:00,2.9758458137512,2,versionA_stim.csv,READVersionB.csv,"Read Version B","Dissertation, read only version B",WAY,OUT,Study1,F,16,79,Study,User,-,,Study/JOL,"Study Phase2",2559,,,-1,-1,,,,1
5bf05b057c38740001699f35,q0fy86qswt,Nick_Dissertation_EX1,1,255,2020-06-13T10:25:38-07:00,7.5503420829773,2,versionA_stim.csv,READVersionB.csv,"Read Version B","Dissertation, read only version B",ALLOW,TUCK,Study1,U,78,26,Study,User,-,,Study/JOL,"Study Phase2",7136,,,-1,-1,,,,1
5bf05b057c38740001699f35,q0fy86qswt,Nick_Dissertation_EX1,1,256,2020-06-13T10:25:45-07:00,6.8035690784454,2,versionA_stim.csv,READVersionB.csv,"Read Version B","Dissertation, read only version B",DEBATE,SIGHT,Study1,U,73,63,Study,User,-,,Study/JOL,"Study Phase2",6387,,,-1,-1,,,,1
5bf05b057c38740001699f35,q0fy86qswt,Nick_Dissertation_EX1,1,257,2020-06-13T10:25:49-07:00,4.3790819644928,2,versionA_stim.csv,READVersionB.csv,"Read Version B","Dissertation, read only version B",MEANING,DEFINITION,Study1,S,62,32,Study,User,-,,Study/JOL,"Study Phase2",3964,,,-1,-1,,,,1
5bf05b057c38740001699f35,q0fy86qswt,Nick_Dissertation_EX1,1,258,2020-06-13T10:25:54-07:00,4.9761118888855,2,versionA_stim.csv,READVersionB.csv,"Read Version B","Dissertation, read only version B",POP,SODA,Study1,S,56,71,Study,User,-,,Study/JOL,"Study Phase2",4559,,,-1,-1,,,,1
5bf05b057c38740001699f35,q0fy86qswt,Nick_Dissertation_EX1,1,259,2020-06-13T10:26:00-07:00,5.8655431270599,2,versionA_stim.csv,READVersionB.csv,"Read Version B","Dissertation, read only version B",TAKE,SEIZE,Study1,B,29,66,Study,User,-,,Study/JOL,"Study Phase2",5448,,,-1,-1,,,,1
5bf05b057c38740001699f35,q0fy86qswt,Nick_Dissertation_EX1,1,260,2020-06-13T10:26:04-07:00,3.7370119094849,2,versionA_stim.csv,READVersionB.csv,"Read Version B","Dissertation, read only version B",GRILL,BAR,Study1,S,52,57,Study,User,-,,Study/JOL,"Study Phase2",3322,,,-1,-1,,,,1
5bf05b057c38740001699f35,q0fy86qswt,Nick_Dissertation_EX1,1,261,2020-06-13T10:26:09-07:00,4.9247491359711,2,versionA_stim.csv,READVersionB.csv,"Read Version B","Dissertation, read only version B",MALT,CHOCOLATE,BUFFER2,Buffer,88,88,Study,User,-,,Study/JOL,BUFFER4,4521,,,-1,-1,,,,1
5bf05b057c38740001699f35,q0fy86qswt,Nick_Dissertation_EX1,1,262,2020-06-13T10:26:16-07:00,7.1736919879913,2,versionA_stim.csv,READVersionB.csv,"Read Version B","Dissertation, read only version B",GEESE,GOOSE,BUFFER2,Buffer,86,90,Study,User,-,,Study/JOL,BUFFER4,6772,,,-1,-1,,,,1
5bf05b057c38740001699f35,q0fy86qswt,Nick_Dissertation_EX1,1,263,2020-06-13T10:26:22-07:00,6.0931198596954,2,versionA_stim.csv,READVersionB.csv,"Read Version B","Dissertation, read only version B",THING,STUFF,BUFFER2,Buffer,90,91,Study,User,-,,Study/JOL,BUFFER4,5686,,,-1,-1,,,,1
5bf05b057c38740001699f35,q0fy86qswt,Nick_Dissertation_EX1,1,264,2020-06-13T10:26:24-07:00,1.6787400245667,2,versionA_stim.csv,READVersionB.csv,"Read Version B","Dissertation, read only version B",MOON,SPACE,BUFFER2,Buffer,89,87,Study,User,-,,Study/JOL,BUFFER4,1361,,,-1,-1,,,,1
5bf05b057c38740001699f35,q0fy86qswt,Nick_Dissertation_EX1,1,265,2020-06-13T10:26:29-07:00,5.4486711025238,2,versionA_stim.csv,READVersionB.csv,"Read Version B","Dissertation, read only version B",SHERRIF,POLICE,BUFFER2,Buffer,87,89,Study,User,-,,Study/JOL,BUFFER4,5052,,,-1,-1,,,,1
5bf05b057c38740001699f35,q0fy86qswt,Nick_Dissertation_EX1,1,266,2020-06-13T10:26:32-07:00,2.8178548812866,2,versionA_stim.csv,READVersionB.csv,"Read Version B","Dissertation, read only version B",,,,,,0,Instruct,User,-,"You have completed this section. Please press Enter.",Filler_Instruction,Instruct5,2397,,,-1,-1,,,,1
5bf05b057c38740001699f35,q0fy86qswt,Nick_Dissertation_EX1,1,267,2020-06-13T10:28:32-07:00,120.46661400795,2,versionA_stim.csv,READVersionB.csv,"Read Version B","Dissertation, read only version B",,,,,,0,FreeRecall,120,120,"Please list the 50 US states in reverse alphabetical order (z - a). The task will automatically advance to the next screen after two minutes.",,Filler2,120002,"Wisconsin Vermont Utah South Dakota",0,24699,118573,0,0,,1
5bf05b057c38740001699f35,q0fy86qswt,Nick_Dissertation_EX1,1,268,2020-06-13T10:28:49-07:00,16.628726005554,2,versionA_stim.csv,READVersionB.csv,"Read Version B","Dissertation, read only version B",,,,,,0,Instruct,-,10,"You will now be presented with the first word from each of the previously studied item pairs. Please type the missing word. If you do not know the word, you may guess or press Enter to skip forward to the next pair.",,Instruct6,15209,,,-1,-1,,,,1
5bf05b057c38740001699f35,q0fy86qswt,Nick_Dissertation_EX1,1,269,2020-06-13T10:28:54-07:00,5.4688439369202,2,versionA_stim.csv,READVersionB.csv,"Read Version B","Dissertation, read only version B",ROOT,PLANT,Study1,F,13,7,Test,User,-,,Recall,Recall2,4657,Plant,100,2799,3545,1,1,,1
5bf05b057c38740001699f35,q0fy86qswt,Nick_Dissertation_EX1,1,270,2020-06-13T10:28:58-07:00,3.5516200065613,2,versionA_stim.csv,READVersionB.csv,"Read Version B","Dissertation, read only version B",DRINK,SIP,Study1,B,27,86,Test,User,-,,Recall,Recall2,3153,Sip,100,1822,2162,1,1,,1
5bf05b057c38740001699f35,q0fy86qswt,Nick_Dissertation_EX1,1,271,2020-06-13T10:29:02-07:00,3.6797940731049,2,versionA_stim.csv,READVersionB.csv,"Read Version B","Dissertation, read only version B",CHISEL,HAMMER,Study1,F,9,83,Test,User,-,,Recall,Recall2,3280,Hammer,100,1501,2198,1,1,,1
5bf05b057c38740001699f35,q0fy86qswt,Nick_Dissertation_EX1,1,272,2020-06-13T10:29:04-07:00,2.8365161418915,2,versionA_stim.csv,READVersionB.csv,"Read Version B","Dissertation, read only version B",TUNA,FISH,Study1,F,25,46,Test,User,-,,Recall,Recall2,2417,Fish,100,1065,1443,1,1,,1
5bf05b057c38740001699f35,q0fy86qswt,Nick_Dissertation_EX1,1,273,2020-06-13T10:29:08-07:00,3.0574839115143,2,versionA_stim.csv,READVersionB.csv,"Read Version B","Dissertation, read only version B",POP,SODA,Study1,S,56,71,Test,User,-,,Recall,Recall2,2629,Soda,100,1101,1426,1,1,,1
5bf05b057c38740001699f35,q0fy86qswt,Nick_Dissertation_EX1,1,274,2020-06-13T10:29:11-07:00,3.8122038841248,2,versionA_stim.csv,READVersionB.csv,"Read Version B","Dissertation, read only version B",SMELL,STENCH,Study1,B,42,47,Test,User,-,,Recall,Recall2,3410,Stench,100,1390,2175,1,1,,1
5bf05b057c38740001699f35,q0fy86qswt,Nick_Dissertation_EX1,1,275,2020-06-13T10:29:14-07:00,3.0156071186066,2,versionA_stim.csv,READVersionB.csv,"Read Version B","Dissertation, read only version B",GRILL,BAR,Study1,S,52,57,Test,User,-,,Recall,Recall2,2598,Bar,100,967,1298,1,1,,1
5bf05b057c38740001699f35,q0fy86qswt,Nick_Dissertation_EX1,1,276,2020-06-13T10:29:21-07:00,6.4546060562134,2,versionA_stim.csv,READVersionB.csv,"Read Version B","Dissertation, read only version B",EDITOR,NEWS,Study1,F,10,54,Test,User,-,,Recall,Recall2,6032,News,100,1841,4839,1,1,,1
5bf05b057c38740001699f35,q0fy86qswt,Nick_Dissertation_EX1,1,277,2020-06-13T10:29:25-07:00,4.3067679405212,2,versionA_stim.csv,READVersionB.csv,"Read Version B","Dissertation, read only version B",CASH,WOULD,Study1,U,83,9,Test,User,-,,Recall,Recall2,3891,Money,20,1671,2266,0,0,,1
5bf05b057c38740001699f35,q0fy86qswt,Nick_Dissertation_EX1,1,278,2020-06-13T10:29:30-07:00,5.2663130760193,2,versionA_stim.csv,READVersionB.csv,"Read Version B","Dissertation, read only version B",HEIGHT,GROWTH,Study1,B,30,38,Test,User,-,,Recall,Recall2,4844,Growth,100,3153,3856,1,1,,1
5bf05b057c38740001699f35,q0fy86qswt,Nick_Dissertation_EX1,1,279,2020-06-13T10:29:37-07:00,6.1240019798279,2,versionA_stim.csv,READVersionB.csv,"Read Version B","Dissertation, read only version B",HOT,CHILI,Study1,B,37,40,Test,User,-,,Recall,Recall2,5724,,0,-1,-1,0,0,,1
5bf05b057c38740001699f35,q0fy86qswt,Nick_Dissertation_EX1,1,280,2020-06-13T10:29:40-07:00,3.450945854187,2,versionA_stim.csv,READVersionB.csv,"Read Version B","Dissertation, read only version B",BLOW,WIND,Study1,S,55,59,Test,User,-,,Recall,Recall2,3043,Wind,100,1599,1915,1,1,,1
5bf05b057c38740001699f35,q0fy86qswt,Nick_Dissertation_EX1,1,281,2020-06-13T10:29:44-07:00,4.252993106842,2,versionA_stim.csv,READVersionB.csv,"Read Version B","Dissertation, read only version B",MACHINE,POSITION,Study1,U,76,58,Test,User,-,,Recall,Recall2,3830,Position,100,1721,2867,1,1,,1
5bf05b057c38740001699f35,q0fy86qswt,Nick_Dissertation_EX1,1,282,2020-06-13T10:29:47-07:00,3.1617510318756,2,versionA_stim.csv,READVersionB.csv,"Read Version B","Dissertation, read only version B",HONEY,BEE,Study1,S,63,77,Test,User,-,,Recall,Recall2,2748,Bee,100,1235,1579,1,1,,1
5bf05b057c38740001699f35,q0fy86qswt,Nick_Dissertation_EX1,1,283,2020-06-13T10:29:51-07:00,3.7946979999542,2,versionA_stim.csv,READVersionB.csv,"Read Version B","Dissertation, read only version B",CLOTHES,ATTIRE,Study1,B,43,51,Test,User,-,,Recall,Recall2,3382,Attire,100,1717,2347,1,1,,1
5bf05b057c38740001699f35,q0fy86qswt,Nick_Dissertation_EX1,1,284,2020-06-13T10:29:54-07:00,3.0083768367767,2,versionA_stim.csv,READVersionB.csv,"Read Version B","Dissertation, read only version B",PAW,DOG,Study1,F,15,33,Test,User,-,,Recall,Recall2,2573,Dog,100,1108,1378,1,1,,1
5bf05b057c38740001699f35,q0fy86qswt,Nick_Dissertation_EX1,1,285,2020-06-13T10:30:00-07:00,6.1123900413513,2,versionA_stim.csv,READVersionB.csv,"Read Version B","Dissertation, read only version B",WORK,CHORE,Study1,B,39,84,Test,User,-,,Recall,Recall2,5696,,0,-1,-1,0,0,,1
5bf05b057c38740001699f35,q0fy86qswt,Nick_Dissertation_EX1,1,286,2020-06-13T10:30:04-07:00,3.7334289550781,2,versionA_stim.csv,READVersionB.csv,"Read Version B","Dissertation, read only version B",BATHROOM,TOILET,Study1,S,58,55,Test,User,-,,Recall,Recall2,3319,Toilet,100,1503,2136,1,1,,1
5bf05b057c38740001699f35,q0fy86qswt,Nick_Dissertation_EX1,1,287,2020-06-13T10:30:07-07:00,3.3704659938812,2,versionA_stim.csv,READVersionB.csv,"Read Version B","Dissertation, read only version B",SUGAR,RIDDLE,Study1,U,81,8,Test,User,-,,Recall,Recall2,2956,Riddle,100,1224,1793,1,1,,1
5bf05b057c38740001699f35,q0fy86qswt,Nick_Dissertation_EX1,1,288,2020-06-13T10:30:13-07:00,5.4337329864502,2,versionA_stim.csv,READVersionB.csv,"Read Version B","Dissertation, read only version B",DEBATE,SIGHT,Study1,U,73,63,Test,User,-,,Recall,Recall2,5005,Sight,100,2506,3824,1,1,,1
5bf05b057c38740001699f35,q0fy86qswt,Nick_Dissertation_EX1,1,289,2020-06-13T10:30:16-07:00,3.2738192081451,2,versionA_stim.csv,READVersionB.csv,"Read Version B","Dissertation, read only version B",CREDIT,CARD,Study1,F,23,31,Test,User,-,,Recall,Recall2,2837,Card,100,1026,1523,1,1,,1
5bf05b057c38740001699f35,q0fy86qswt,Nick_Dissertation_EX1,1,290,2020-06-13T10:30:19-07:00,2.8337249755859,2,versionA_stim.csv,READVersionB.csv,"Read Version B","Dissertation, read only version B",DELINQUENT,BAD,Study1,F,6,18,Test,User,-,,Recall,Recall2,2409,Bad,100,1086,1276,1,1,,1
5bf05b057c38740001699f35,q0fy86qswt,Nick_Dissertation_EX1,1,291,2020-06-13T10:30:22-07:00,3.4173228740692,2,versionA_stim.csv,READVersionB.csv,"Read Version B","Dissertation, read only version B",FIRE,BLAZE,Study1,B,45,23,Test,User,-,,Recall,Recall2,2997,Blaze,100,1064,1669,1,1,,1
5bf05b057c38740001699f35,q0fy86qswt,Nick_Dissertation_EX1,1,292,2020-06-13T10:30:30-07:00,7.6755449771881,2,versionA_stim.csv,READVersionB.csv,"Read Version B","Dissertation, read only version B",SOON,BELT,Study1,U,70,75,Test,User,-,,Recall,Recall2,7271,,0,-1,-1,0,0,,1
5bf05b057c38740001699f35,q0fy86qswt,Nick_Dissertation_EX1,1,293,2020-06-13T10:30:33-07:00,3.1729691028595,2,versionA_stim.csv,READVersionB.csv,"Read Version B","Dissertation, read only version B",HORNET,STING,Study1,F,11,70,Test,User,-,,Recall,Recall2,2769,Sting,100,1206,1678,1,1,,1
5bf05b057c38740001699f35,q0fy86qswt,Nick_Dissertation_EX1,1,294,2020-06-13T10:30:37-07:00,3.5839259624481,2,versionA_stim.csv,READVersionB.csv,"Read Version B","Dissertation, read only version B",WINE,CHEESE,Study1,S,57,19,Test,User,-,,Recall,Recall2,3177,Cheese,100,1033,1954,1,1,,1
5bf05b057c38740001699f35,q0fy86qswt,Nick_Dissertation_EX1,1,295,2020-06-13T10:30:40-07:00,3.2283799648285,2,versionA_stim.csv,READVersionB.csv,"Read Version B","Dissertation, read only version B",KIDNEY,LIVER,Study1,S,53,36,Test,User,-,,Recall,Recall2,2816,Liver,100,1042,1554,1,1,,1
5bf05b057c38740001699f35,q0fy86qswt,Nick_Dissertation_EX1,1,296,2020-06-13T10:30:44-07:00,3.4838399887085,2,versionA_stim.csv,READVersionB.csv,"Read Version B","Dissertation, read only version B",HIDE,SICK,Study1,U,84,42,Test,User,-,,Recall,Recall2,3075,Scare,44.444444444444,1437,2069,0,0,,1
5bf05b057c38740001699f35,q0fy86qswt,Nick_Dissertation_EX1,1,297,2020-06-13T10:30:52-07:00,8.7297849655151,2,versionA_stim.csv,READVersionB.csv,"Read Version B","Dissertation, read only version B",HUNGER,FAMINE,Study1,B,40,73,Test,User,-,,Recall,Recall2,8315,Park,20,5937,6391,0,0,,1
5bf05b057c38740001699f35,q0fy86qswt,Nick_Dissertation_EX1,1,298,2020-06-13T10:30:59-07:00,6.5729610919952,2,versionA_stim.csv,READVersionB.csv,"Read Version B","Dissertation, read only version B",PARK,HUNGRY,Study1,U,68,62,Test,User,-,,Recall,Recall2,6145,Hunger,83.333333333333,3626,5171,0,1,,1
5bf05b057c38740001699f35,q0fy86qswt,Nick_Dissertation_EX1,1,299,2020-06-13T10:31:07-07:00,7.775505065918,2,versionA_stim.csv,READVersionB.csv,"Read Version B","Dissertation, read only version B",REVOLUTION,WAR,Study1,F,20,37,Test,User,-,,Recall,Recall2,7364,War,100,4494,5946,1,1,,1
5bf05b057c38740001699f35,q0fy86qswt,Nick_Dissertation_EX1,1,300,2020-06-13T10:31:10-07:00,3.4586730003357,2,versionA_stim.csv,READVersionB.csv,"Read Version B","Dissertation, read only version B",WAGE,MONEY,Study1,F,8,30,Test,User,-,,Recall,Recall2,3055,Money,100,1373,1857,1,1,,1
5bf05b057c38740001699f35,q0fy86qswt,Nick_Dissertation_EX1,1,301,2020-06-13T10:31:14-07:00,4.249627828598,2,versionA_stim.csv,READVersionB.csv,"Read Version B","Dissertation, read only version B",PUSHER,CLUTTER,Study1,U,66,24,Test,User,-,,Recall,Recall2,3843,Clutter,100,1652,2776,1,1,,1
5bf05b057c38740001699f35,q0fy86qswt,Nick_Dissertation_EX1,1,302,2020-06-13T10:31:18-07:00,3.4075632095337,2,versionA_stim.csv,READVersionB.csv,"Read Version B","Dissertation, read only version B",BABY,CHILD,Study1,S,64,53,Test,User,-,,Recall,Recall2,2987,Child,100,1237,1829,1,1,,1
5bf05b057c38740001699f35,q0fy86qswt,Nick_Dissertation_EX1,1,303,2020-06-13T10:31:23-07:00,4.954598903656,2,versionA_stim.csv,READVersionB.csv,"Read Version B","Dissertation, read only version B",TRIAL,JURY,Study1,S,50,29,Test,User,-,,Recall,Recall2,4526,Law,0,2084,2415,0,0,,1
5bf05b057c38740001699f35,q0fy86qswt,Nick_Dissertation_EX1,1,304,2020-06-13T10:31:27-07:00,4.1075720787048,2,versionA_stim.csv,READVersionB.csv,"Read Version B","Dissertation, read only version B",GEOLOGY,ROCK,Study1,F,19,28,Test,User,-,,Recall,Recall2,3703,Rock,100,1131,2108,1,1,,1
5bf05b057c38740001699f35,q0fy86qswt,Nick_Dissertation_EX1,1,305,2020-06-13T10:31:31-07:00,4.5330219268799,2,versionA_stim.csv,READVersionB.csv,"Read Version B","Dissertation, read only version B",DISCOVER,FLOOR,Study1,U,71,10,Test,User,-,,Recall,Recall2,4115,Ground,18.181818181818,1960,2824,0,0,,1
5bf05b057c38740001699f35,q0fy86qswt,Nick_Dissertation_EX1,1,306,2020-06-13T10:31:34-07:00,2.7705960273743,2,versionA_stim.csv,READVersionB.csv,"Read Version B","Dissertation, read only version B",WAY,OUT,Study1,F,16,79,Test,User,-,,Recall,Recall2,2349,out,100,1005,1233,1,1,,1
5bf05b057c38740001699f35,q0fy86qswt,Nick_Dissertation_EX1,1,307,2020-06-13T10:31:54-07:00,19.724050045013,2,versionA_stim.csv,READVersionB.csv,"Read Version B","Dissertation, read only version B",DIETARY,SACKING,Study1,U,67,15,Test,User,-,,Recall,Recall2,19309,Maroon,30.769230769231,11185,11899,0,0,,1
5bf05b057c38740001699f35,q0fy86qswt,Nick_Dissertation_EX1,1,308,2020-06-13T10:31:58-07:00,3.7294008731842,2,versionA_stim.csv,READVersionB.csv,"Read Version B","Dissertation, read only version B",HAPPY,CAR,Study1,U,77,72,Test,User,-,,Recall,Recall2,3298,Car,100,1756,2133,1,1,,1
5bf05b057c38740001699f35,q0fy86qswt,Nick_Dissertation_EX1,1,309,2020-06-13T10:32:06-07:00,8.5296010971069,2,versionA_stim.csv,READVersionB.csv,"Read Version B","Dissertation, read only version B",ALLOW,TUCK,Study1,U,78,26,Test,User,-,,Recall,Recall2,8105,,0,-1,-1,0,0,,1
5bf05b057c38740001699f35,q0fy86qswt,Nick_Dissertation_EX1,1,310,2020-06-13T10:32:12-07:00,5.7507548332214,2,versionA_stim.csv,READVersionB.csv,"Read Version B","Dissertation, read only version B",BALL,RACKET,Study1,B,38,68,Test,User,-,,Recall,Recall2,5321,Racket,100,3607,4291,1,1,,1
5bf05b057c38740001699f35,q0fy86qswt,Nick_Dissertation_EX1,1,311,2020-06-13T10:32:16-07:00,4.1539680957794,2,versionA_stim.csv,READVersionB.csv,"Read Version B","Dissertation, read only version B",DIGESTION,STOMACH,Study1,F,7,22,Test,User,-,,Recall,Recall2,3739,Stomach,100,1976,2780,1,1,,1
5bf05b057c38740001699f35,q0fy86qswt,Nick_Dissertation_EX1,1,312,2020-06-13T10:32:29-07:00,12.711794137955,2,versionA_stim.csv,READVersionB.csv,"Read Version B","Dissertation, read only version B",BITTER,COLD,Study1,F,12,27,Test,User,-,,Recall,Recall2,12310,Sad,28.571428571429,9831,10175,0,0,,1
5bf05b057c38740001699f35,q0fy86qswt,Nick_Dissertation_EX1,1,313,2020-06-13T10:32:32-07:00,3.6156339645386,2,versionA_stim.csv,READVersionB.csv,"Read Version B","Dissertation, read only version B",SLEEP,DROWSY,Study1,B,41,60,Test,User,-,,Recall,Recall2,3207,Drowsy,100,1085,2285,1,1,,1
5bf05b057c38740001699f35,q0fy86qswt,Nick_Dissertation_EX1,1,314,2020-06-13T10:32:38-07:00,5.3039579391479,2,versionA_stim.csv,READVersionB.csv,"Read Version B","Dissertation, read only version B",TAKE,SEIZE,Study1,B,29,66,Test,User,-,,Recall,Recall2,4894,Seize,100,2230,2975,1,1,,1
5bf05b057c38740001699f35,q0fy86qswt,Nick_Dissertation_EX1,1,315,2020-06-13T10:32:43-07:00,5.0020890235901,2,versionA_stim.csv,READVersionB.csv,"Read Version B","Dissertation, read only version B",BUG,WASP,Study1,B,32,13,Test,User,-,,Recall,Recall2,4593,Wasp,100,2954,3355,1,1,,1
5bf05b057c38740001699f35,q0fy86qswt,Nick_Dissertation_EX1,1,316,2020-06-13T10:32:47-07:00,4.8674209117889,2,versionA_stim.csv,READVersionB.csv,"Read Version B","Dissertation, read only version B",DUE,ASSIGNMENT,Study1,S,46,61,Test,User,-,,Recall,Recall2,4444,Assignment,100,1153,2906,1,1,,1
5bf05b057c38740001699f35,q0fy86qswt,Nick_Dissertation_EX1,1,317,2020-06-13T10:32:53-07:00,5.904678106308,2,versionA_stim.csv,READVersionB.csv,"Read Version B","Dissertation, read only version B",DARK,CAVE,Study1,B,28,20,Test,User,-,,Recall,Recall2,4606,Light,0,2478,3457,0,0,,1
5bf05b057c38740001699f35,q0fy86qswt,Nick_Dissertation_EX1,1,318,2020-06-13T10:32:58-07:00,4.4748368263245,2,versionA_stim.csv,READVersionB.csv,"Read Version B","Dissertation, read only version B",GREAT,FANTASTIC,Study1,B,35,35,Test,User,-,,Recall,Recall2,3900,Fantastic,100,1908,3168,1,1,,1
5bf05b057c38740001699f35,q0fy86qswt,Nick_Dissertation_EX1,1,319,2020-06-13T10:33:01-07:00,2.9283781051636,2,versionA_stim.csv,READVersionB.csv,"Read Version B","Dissertation, read only version B",ORCHID,FLOWER,Study1,F,24,14,Test,User,-,,Recall,Recall2,2510,Flower,100,1260,2204,1,1,,1
5bf05b057c38740001699f35,q0fy86qswt,Nick_Dissertation_EX1,1,320,2020-06-13T10:33:05-07:00,4.2451510429382,2,versionA_stim.csv,READVersionB.csv,"Read Version B","Dissertation, read only version B",LETTUCE,SALAD,Study1,S,59,45,Test,User,-,,Recall,Recall2,3831,salad,100,1254,2728,1,1,,1
5bf05b057c38740001699f35,q0fy86qswt,Nick_Dissertation_EX1,1,321,2020-06-13T10:33:11-07:00,6.3445789813995,2,versionA_stim.csv,READVersionB.csv,"Read Version B","Dissertation, read only version B",MATH,DIVISION,Study1,B,33,69,Test,User,-,,Recall,Recall2,5929,Division,100,1240,4999,1,1,,1
5bf05b057c38740001699f35,q0fy86qswt,Nick_Dissertation_EX1,1,322,2020-06-13T10:33:15-07:00,3.558660030365,2,versionA_stim.csv,READVersionB.csv,"Read Version B","Dissertation, read only version B",FULL,ENOUGH,Study1,B,26,21,Test,User,-,,Recall,Recall2,3152,Enough,100,1308,2050,1,1,,1
5bf05b057c38740001699f35,q0fy86qswt,Nick_Dissertation_EX1,1,323,2020-06-13T10:33:18-07:00,2.9898068904877,2,versionA_stim.csv,READVersionB.csv,"Read Version B","Dissertation, read only version B",HYGIENE,CLEAN,Study1,F,17,41,Test,User,-,,Recall,Recall2,2579,Clean,100,1066,1534,1,1,,1
5bf05b057c38740001699f35,q0fy86qswt,Nick_Dissertation_EX1,1,324,2020-06-13T10:33:26-07:00,8.1214711666107,2,versionA_stim.csv,READVersionB.csv,"Read Version B","Dissertation, read only version B",DEATH,BUSINESS,Study1,U,72,76,Test,User,-,,Recall,Recall2,7708,Business,100,5562,6570,1,1,,1
5bf05b057c38740001699f35,q0fy86qswt,Nick_Dissertation_EX1,1,325,2020-06-13T10:33:29-07:00,3.3120808601379,2,versionA_stim.csv,READVersionB.csv,"Read Version B","Dissertation, read only version B",HERD,COW,Study1,F,22,39,Test,User,-,,Recall,Recall2,2879,cow,100,1458,1718,1,1,,1
5bf05b057c38740001699f35,q0fy86qswt,Nick_Dissertation_EX1,1,326,2020-06-13T10:33:33-07:00,3.2511100769043,2,versionA_stim.csv,READVersionB.csv,"Read Version B","Dissertation, read only version B",BRIDGE,WATER,Study1,F,18,64,Test,User,-,,Recall,Recall2,2824,Water,100,1249,1720,1,1,,1
5bf05b057c38740001699f35,q0fy86qswt,Nick_Dissertation_EX1,1,327,2020-06-13T10:33:36-07:00,3.2742309570312,2,versionA_stim.csv,READVersionB.csv,"Read Version B","Dissertation, read only version B",PAST,FUTURE,Study1,S,61,82,Test,User,-,,Recall,Recall2,2848,Future,100,1722,2439,1,1,,1
5bf05b057c38740001699f35,q0fy86qswt,Nick_Dissertation_EX1,1,328,2020-06-13T10:33:39-07:00,3.4116559028625,2,versionA_stim.csv,READVersionB.csv,"Read Version B","Dissertation, read only version B",ARCHITECTURE,DESIGN,Study1,S,51,74,Test,User,-,,Recall,Recall2,2989,Design,100,1071,1767,1,1,,1
5bf05b057c38740001699f35,q0fy86qswt,Nick_Dissertation_EX1,1,329,2020-06-13T10:33:44-07:00,4.9460980892181,2,versionA_stim.csv,READVersionB.csv,"Read Version B","Dissertation, read only version B",KEY,LATCH,Study1,B,36,44,Test,User,-,,Recall,Recall2,4533,Latch,100,2464,3064,1,1,,1
5bf05b057c38740001699f35,q0fy86qswt,Nick_Dissertation_EX1,1,330,2020-06-13T10:33:47-07:00,3.2672839164734,2,versionA_stim.csv,READVersionB.csv,"Read Version B","Dissertation, read only version B",SENTENCE,WORD,Study1,B,31,56,Test,User,-,,Recall,Recall2,2851,Word,100,1147,1547,1,1,,1
5bf05b057c38740001699f35,q0fy86qswt,Nick_Dissertation_EX1,1,331,2020-06-13T10:33:56-07:00,8.6630821228027,2,versionA_stim.csv,READVersionB.csv,"Read Version B","Dissertation, read only version B",VALLEY,ADD,Study1,U,82,11,Test,User,-,,Recall,Recall2,8243,Add,100,3621,6799,1,1,,1
5bf05b057c38740001699f35,q0fy86qswt,Nick_Dissertation_EX1,1,332,2020-06-13T10:34:06-07:00,10.094820976257,2,versionA_stim.csv,READVersionB.csv,"Read Version B","Dissertation, read only version B",DUMP,WASTE,Study1,S,49,65,Test,User,-,,Recall,Recall2,9684,Trash,40,1746,8881,0,0,,1
5bf05b057c38740001699f35,q0fy86qswt,Nick_Dissertation_EX1,1,333,2020-06-13T10:34:15-07:00,8.4528019428253,2,versionA_stim.csv,READVersionB.csv,"Read Version B","Dissertation, read only version B",KING,VASE,Study1,U,85,12,Test,User,-,,Recall,Recall2,8043,,0,-1,-1,0,0,,1
5bf05b057c38740001699f35,q0fy86qswt,Nick_Dissertation_EX1,1,334,2020-06-13T10:34:20-07:00,4.9250199794769,2,versionA_stim.csv,READVersionB.csv,"Read Version B","Dissertation, read only version B",PLANE,PILOT,Study1,B,44,67,Test,User,-,,Recall,Recall2,4520,Aircraft,30.769230769231,1290,3534,0,0,,1
5bf05b057c38740001699f35,q0fy86qswt,Nick_Dissertation_EX1,1,335,2020-06-13T10:34:23-07:00,3.7805171012878,2,versionA_stim.csv,READVersionB.csv,"Read Version B","Dissertation, read only version B",STRONG,ACCIDENT,Study1,U,80,81,Test,User,-,,Recall,Recall2,3370,Weak,16.666666666667,1261,1675,0,0,,1
5bf05b057c38740001699f35,q0fy86qswt,Nick_Dissertation_EX1,1,336,2020-06-13T10:34:28-07:00,4.8347020149231,2,versionA_stim.csv,READVersionB.csv,"Read Version B","Dissertation, read only version B",LOCATION,SITE,Study1,S,48,17,Test,User,-,,Recall,Recall2,2601,Site,100,1159,1528,1,1,,1
5bf05b057c38740001699f35,q0fy86qswt,Nick_Dissertation_EX1,1,337,2020-06-13T10:34:32-07:00,4.1054689884186,2,versionA_stim.csv,READVersionB.csv,"Read Version B","Dissertation, read only version B",CIRCLE,ROUND,Study1,S,65,25,Test,User,-,,Recall,Recall2,3487,Round,100,1452,2478,1,1,,1
5bf05b057c38740001699f35,q0fy86qswt,Nick_Dissertation_EX1,1,338,2020-06-13T10:34:35-07:00,2.8619868755341,2,versionA_stim.csv,READVersionB.csv,"Read Version B","Dissertation, read only version B",LIFT,WOMAN,Study1,U,69,43,Test,User,-,,Recall,Recall2,2439,Woman,100,1111,1566,1,1,,1
5bf05b057c38740001699f35,q0fy86qswt,Nick_Dissertation_EX1,1,339,2020-06-13T10:34:39-07:00,3.4005591869354,2,versionA_stim.csv,READVersionB.csv,"Read Version B","Dissertation, read only version B",ARTERY,BRONZE,Study1,U,74,48,Test,User,-,,Recall,Recall2,2977,Bronze,100,1283,2019,1,1,,1
5bf05b057c38740001699f35,q0fy86qswt,Nick_Dissertation_EX1,1,340,2020-06-13T10:34:43-07:00,3.9388508796692,2,versionA_stim.csv,READVersionB.csv,"Read Version B","Dissertation, read only version B",FIX,HAND,Study1,U,75,78,Test,User,-,,Recall,Recall2,3515,Hand,100,1255,2353,1,1,,1
5bf05b057c38740001699f35,q0fy86qswt,Nick_Dissertation_EX1,1,341,2020-06-13T10:34:46-07:00,3.836079120636,2,versionA_stim.csv,READVersionB.csv,"Read Version B","Dissertation, read only version B",NUMBER,AMOUNT,Study1,S,47,34,Test,User,-,,Recall,Recall2,3412,Amount,100,1596,2430,1,1,,1
5bf05b057c38740001699f35,q0fy86qswt,Nick_Dissertation_EX1,1,342,2020-06-13T10:34:51-07:00,4.2368788719177,2,versionA_stim.csv,READVersionB.csv,"Read Version B","Dissertation, read only version B",ART,LION,Study1,U,79,16,Test,User,-,,Recall,Recall2,3808,Lion,100,2525,2905,1,1,,1
5bf05b057c38740001699f35,q0fy86qswt,Nick_Dissertation_EX1,1,343,2020-06-13T10:34:55-07:00,4.0596799850464,2,versionA_stim.csv,READVersionB.csv,"Read Version B","Dissertation, read only version B",MEANING,DEFINITION,Study1,S,62,32,Test,User,-,,Recall,Recall2,3635,Definition,100,1072,2834,1,1,,1
5bf05b057c38740001699f35,q0fy86qswt,Nick_Dissertation_EX1,1,344,2020-06-13T10:34:58-07:00,3.4330821037292,2,versionA_stim.csv,READVersionB.csv,"Read Version B","Dissertation, read only version B",DISCUSSION,TALK,Study1,F,21,85,Test,User,-,,Recall,Recall2,3002,Talk,100,1667,2237,1,1,,1
5bf05b057c38740001699f35,q0fy86qswt,Nick_Dissertation_EX1,1,345,2020-06-13T10:35:03-07:00,5.2513659000397,2,versionA_stim.csv,READVersionB.csv,"Read Version B","Dissertation, read only version B",SWAN,BIRD,Study1,F,14,80,Test,User,-,,Recall,Recall2,4827,Bird,100,2135,2976,1,1,,1
5bf05b057c38740001699f35,q0fy86qswt,Nick_Dissertation_EX1,1,346,2020-06-13T10:35:09-07:00,5.6570019721985,2,versionA_stim.csv,READVersionB.csv,"Read Version B","Dissertation, read only version B",SHOE,FOOT,Study1,S,60,50,Test,User,-,,Recall,Recall2,5240,Laces,0,1378,3749,0,0,,1
5bf05b057c38740001699f35,q0fy86qswt,Nick_Dissertation_EX1,1,347,2020-06-13T10:35:14-07:00,5.399854183197,2,versionA_stim.csv,READVersionB.csv,"Read Version B","Dissertation, read only version B",BEGIN,END,Study1,S,54,52,Test,User,-,,Recall,Recall2,4980,End,100,1922,4076,1,1,,1
5bf05b057c38740001699f35,q0fy86qswt,Nick_Dissertation_EX1,1,348,2020-06-13T10:35:20-07:00,5.3523349761963,2,versionA_stim.csv,READVersionB.csv,"Read Version B","Dissertation, read only version B",LAW,ATTORNEY,Study1,B,34,49,Test,User,-,,Recall,Recall2,4944,,0,-1,-1,0,0,,1
