Username,ID,ExperimentName,Session,Trial,Date,TimeDif,"Condition Number","Stimuli File","Order File","Condition Description","Condition Notes",Stimuli*Cue,Stimuli*Answer,Stimuli*Shuffle,"Stimuli*Stimuli Notes",Stimuli*Value,Procedure*Item,"Procedure*Trial Type","Procedure*Max Time","Procedure*Min Time",Procedure*Text,"Procedure*Procedure Notes",Procedure*Shuffle,Response*RT,Response*Response,Response*Accuracy,Response*RTfirst,Response*RTlast,Response*strictAcc,Response*lenientAcc,Response*focus,Response*Focus
55b3120cfdf99b6ef6263a71,1xr498s82g,Nick_Dissertation_EX1,1,1,2020-06-02T09:14:52-07:00,68.393038988113,1,versionA_stim.csv,READVersionA.csv,"Read Version A","Dissertation, read only version A",,,,,,0,Instruct,-,10,"Please study each of the following word pairs. Remember that your memory will be tested! When finished, press Enter to move to the next pair.",Initial_Instruct,Instruct1,67530,,,-1,-1,,,,1
55b3120cfdf99b6ef6263a71,1xr498s82g,Nick_Dissertation_EX1,1,2,2020-06-02T09:14:56-07:00,4.008887052536,1,versionA_stim.csv,READVersionA.csv,"Read Version A","Dissertation, read only version A",SCARE,HIDE,BUFFER1,Buffer,4,3,Study,User,-,,Study/JOL,BUFFER,2667,,,-1,-1,,,,1
55b3120cfdf99b6ef6263a71,1xr498s82g,Nick_Dissertation_EX1,1,3,2020-06-02T09:14:59-07:00,2.1229410171509,1,versionA_stim.csv,READVersionA.csv,"Read Version A","Dissertation, read only version A",PEANUT,BUTTER,BUFFER1,Buffer,3,4,Study,User,-,,Study/JOL,BUFFER,1731,,,-1,-1,,,,1
55b3120cfdf99b6ef6263a71,1xr498s82g,Nick_Dissertation_EX1,1,4,2020-06-02T09:15:02-07:00,3.4623649120331,1,versionA_stim.csv,READVersionA.csv,"Read Version A","Dissertation, read only version A",SPACE,JAM,BUFFER1,Buffer,5,5,Study,User,-,,Study/JOL,BUFFER,2111,,,-1,-1,,,,1
55b3120cfdf99b6ef6263a71,1xr498s82g,Nick_Dissertation_EX1,1,5,2020-06-02T09:15:05-07:00,3.4919459819794,1,versionA_stim.csv,READVersionA.csv,"Read Version A","Dissertation, read only version A",TREES,GREEN,BUFFER1,Buffer,1,6,Study,User,-,,Study/JOL,BUFFER,2035,,,-1,-1,,,,1
55b3120cfdf99b6ef6263a71,1xr498s82g,Nick_Dissertation_EX1,1,6,2020-06-02T09:15:08-07:00,2.1487159729004,1,versionA_stim.csv,READVersionA.csv,"Read Version A","Dissertation, read only version A",BASEBALL,CATCHER,BUFFER1,Buffer,2,2,Study,User,-,,Study/JOL,BUFFER,1822,,,-1,-1,,,,1
55b3120cfdf99b6ef6263a71,1xr498s82g,Nick_Dissertation_EX1,1,7,2020-06-02T09:15:10-07:00,1.910227060318,1,versionA_stim.csv,READVersionA.csv,"Read Version A","Dissertation, read only version A",LETTUCE,SALAD,Study1,S,59,13,Study,User,-,,Study/JOL,"Study Phase",1493,,,-1,-1,,,,1
55b3120cfdf99b6ef6263a71,1xr498s82g,Nick_Dissertation_EX1,1,8,2020-06-02T09:15:16-07:00,6.7102658748627,1,versionA_stim.csv,READVersionA.csv,"Read Version A","Dissertation, read only version A",CASH,WOULD,Study1,U,83,19,Study,User,-,,Study/JOL,"Study Phase",4629,,,-1,-1,,,,1
55b3120cfdf99b6ef6263a71,1xr498s82g,Nick_Dissertation_EX1,1,9,2020-06-02T09:15:19-07:00,2.4719672203064,1,versionA_stim.csv,READVersionA.csv,"Read Version A","Dissertation, read only version A",HUNGER,FAMINE,Study1,B,40,86,Study,User,-,,Study/JOL,"Study Phase",1637,,,-1,-1,,,,1
55b3120cfdf99b6ef6263a71,1xr498s82g,Nick_Dissertation_EX1,1,10,2020-06-02T09:15:22-07:00,3.6023869514465,1,versionA_stim.csv,READVersionA.csv,"Read Version A","Dissertation, read only version A",SOON,BELT,Study1,U,70,69,Study,User,-,,Study/JOL,"Study Phase",2307,,,-1,-1,,,,1
55b3120cfdf99b6ef6263a71,1xr498s82g,Nick_Dissertation_EX1,1,11,2020-06-02T09:15:25-07:00,2.3553369045258,1,versionA_stim.csv,READVersionA.csv,"Read Version A","Dissertation, read only version A",TAKE,SEIZE,Study1,B,29,49,Study,User,-,,Study/JOL,"Study Phase",1942,,,-1,-1,,,,1
55b3120cfdf99b6ef6263a71,1xr498s82g,Nick_Dissertation_EX1,1,12,2020-06-02T09:15:29-07:00,3.8904960155487,1,versionA_stim.csv,READVersionA.csv,"Read Version A","Dissertation, read only version A",HORNET,STING,Study1,F,11,44,Study,User,-,,Study/JOL,"Study Phase",1531,,,-1,-1,,,,1
55b3120cfdf99b6ef6263a71,1xr498s82g,Nick_Dissertation_EX1,1,13,2020-06-02T09:15:30-07:00,1.3985500335693,1,versionA_stim.csv,READVersionA.csv,"Read Version A","Dissertation, read only version A",BABY,CHILD,Study1,S,64,53,Study,User,-,,Study/JOL,"Study Phase",1019,,,-1,-1,,,,1
55b3120cfdf99b6ef6263a71,1xr498s82g,Nick_Dissertation_EX1,1,14,2020-06-02T09:15:33-07:00,2.7936899662018,1,versionA_stim.csv,READVersionA.csv,"Read Version A","Dissertation, read only version A",VALLEY,ADD,Study1,U,82,64,Study,User,-,,Study/JOL,"Study Phase",2416,,,-1,-1,,,,1
55b3120cfdf99b6ef6263a71,1xr498s82g,Nick_Dissertation_EX1,1,15,2020-06-02T09:15:35-07:00,1.8487129211426,1,versionA_stim.csv,READVersionA.csv,"Read Version A","Dissertation, read only version A",BLOW,WIND,Study1,S,55,63,Study,User,-,,Study/JOL,"Study Phase",1499,,,-1,-1,,,,1
55b3120cfdf99b6ef6263a71,1xr498s82g,Nick_Dissertation_EX1,1,16,2020-06-02T09:15:36-07:00,1.7783961296082,1,versionA_stim.csv,READVersionA.csv,"Read Version A","Dissertation, read only version A",CLOTHES,ATTIRE,Study1,B,43,72,Study,User,-,,Study/JOL,"Study Phase",1426,,,-1,-1,,,,1
55b3120cfdf99b6ef6263a71,1xr498s82g,Nick_Dissertation_EX1,1,17,2020-06-02T09:15:39-07:00,2.1223239898682,1,versionA_stim.csv,READVersionA.csv,"Read Version A","Dissertation, read only version A",DIGESTION,STOMACH,Study1,F,7,7,Study,User,-,,Study/JOL,"Study Phase",1750,,,-1,-1,,,,1
55b3120cfdf99b6ef6263a71,1xr498s82g,Nick_Dissertation_EX1,1,18,2020-06-02T09:15:40-07:00,1.2659049034119,1,versionA_stim.csv,READVersionA.csv,"Read Version A","Dissertation, read only version A",CREDIT,CARD,Study1,F,23,75,Study,User,-,,Study/JOL,"Study Phase",930,,,-1,-1,,,,1
55b3120cfdf99b6ef6263a71,1xr498s82g,Nick_Dissertation_EX1,1,19,2020-06-02T09:15:42-07:00,1.7735140323639,1,versionA_stim.csv,READVersionA.csv,"Read Version A","Dissertation, read only version A",WAY,OUT,Study1,F,16,34,Study,User,-,,Study/JOL,"Study Phase",1453,,,-1,-1,,,,1
55b3120cfdf99b6ef6263a71,1xr498s82g,Nick_Dissertation_EX1,1,20,2020-06-02T09:15:43-07:00,1.9324960708618,1,versionA_stim.csv,READVersionA.csv,"Read Version A","Dissertation, read only version A",WORK,CHORE,Study1,B,39,61,Study,User,-,,Study/JOL,"Study Phase",1375,,,-1,-1,,,,1
55b3120cfdf99b6ef6263a71,1xr498s82g,Nick_Dissertation_EX1,1,21,2020-06-02T09:15:45-07:00,1.9946029186249,1,versionA_stim.csv,READVersionA.csv,"Read Version A","Dissertation, read only version A",SMELL,STENCH,Study1,B,42,77,Study,User,-,,Study/JOL,"Study Phase",1670,,,-1,-1,,,,1
55b3120cfdf99b6ef6263a71,1xr498s82g,Nick_Dissertation_EX1,1,22,2020-06-02T09:15:47-07:00,1.8391499519348,1,versionA_stim.csv,READVersionA.csv,"Read Version A","Dissertation, read only version A",FIX,HAND,Study1,U,75,21,Study,User,-,,Study/JOL,"Study Phase",1429,,,-1,-1,,,,1
55b3120cfdf99b6ef6263a71,1xr498s82g,Nick_Dissertation_EX1,1,23,2020-06-02T09:15:51-07:00,3.7806169986725,1,versionA_stim.csv,READVersionA.csv,"Read Version A","Dissertation, read only version A",ROOT,PLANT,Study1,F,13,55,Study,User,-,,Study/JOL,"Study Phase",2104,,,-1,-1,,,,1
55b3120cfdf99b6ef6263a71,1xr498s82g,Nick_Dissertation_EX1,1,24,2020-06-02T09:15:53-07:00,1.4221770763397,1,versionA_stim.csv,READVersionA.csv,"Read Version A","Dissertation, read only version A",SLEEP,DROWSY,Study1,B,41,45,Study,User,-,,Study/JOL,"Study Phase",1051,,,-1,-1,,,,1
55b3120cfdf99b6ef6263a71,1xr498s82g,Nick_Dissertation_EX1,1,25,2020-06-02T09:15:56-07:00,3.8371241092682,1,versionA_stim.csv,READVersionA.csv,"Read Version A","Dissertation, read only version A",EDITOR,NEWS,Study1,F,10,33,Study,User,-,,Study/JOL,"Study Phase",2316,,,-1,-1,,,,1
55b3120cfdf99b6ef6263a71,1xr498s82g,Nick_Dissertation_EX1,1,26,2020-06-02T09:15:59-07:00,2.8045909404755,1,versionA_stim.csv,READVersionA.csv,"Read Version A","Dissertation, read only version A",PLANE,PILOT,Study1,B,44,14,Study,User,-,,Study/JOL,"Study Phase",2237,,,-1,-1,,,,1
55b3120cfdf99b6ef6263a71,1xr498s82g,Nick_Dissertation_EX1,1,27,2020-06-02T09:16:01-07:00,1.7918810844421,1,versionA_stim.csv,READVersionA.csv,"Read Version A","Dissertation, read only version A",POP,SODA,Study1,S,56,68,Study,User,-,,Study/JOL,"Study Phase",1423,,,-1,-1,,,,1
55b3120cfdf99b6ef6263a71,1xr498s82g,Nick_Dissertation_EX1,1,28,2020-06-02T09:16:03-07:00,2.2798709869385,1,versionA_stim.csv,READVersionA.csv,"Read Version A","Dissertation, read only version A",DEATH,BUSINESS,Study1,U,72,16,Study,User,-,,Study/JOL,"Study Phase",1760,,,-1,-1,,,,1
55b3120cfdf99b6ef6263a71,1xr498s82g,Nick_Dissertation_EX1,1,29,2020-06-02T09:16:05-07:00,2.0733058452606,1,versionA_stim.csv,READVersionA.csv,"Read Version A","Dissertation, read only version A",LOCATION,SITE,Study1,S,48,65,Study,User,-,,Study/JOL,"Study Phase",1625,,,-1,-1,,,,1
55b3120cfdf99b6ef6263a71,1xr498s82g,Nick_Dissertation_EX1,1,30,2020-06-02T09:16:09-07:00,3.7409720420837,1,versionA_stim.csv,READVersionA.csv,"Read Version A","Dissertation, read only version A",BATHROOM,TOILET,Study1,S,58,39,Study,User,-,,Study/JOL,"Study Phase",2738,,,-1,-1,,,,1
55b3120cfdf99b6ef6263a71,1xr498s82g,Nick_Dissertation_EX1,1,31,2020-06-02T09:16:11-07:00,1.5677359104156,1,versionA_stim.csv,READVersionA.csv,"Read Version A","Dissertation, read only version A",TRIAL,JURY,Study1,S,50,81,Study,User,-,,Study/JOL,"Study Phase",1254,,,-1,-1,,,,1
55b3120cfdf99b6ef6263a71,1xr498s82g,Nick_Dissertation_EX1,1,32,2020-06-02T09:16:12-07:00,1.8351061344147,1,versionA_stim.csv,READVersionA.csv,"Read Version A","Dissertation, read only version A",BITTER,COLD,Study1,F,12,12,Study,User,-,,Study/JOL,"Study Phase",1524,,,-1,-1,,,,1
55b3120cfdf99b6ef6263a71,1xr498s82g,Nick_Dissertation_EX1,1,33,2020-06-02T09:16:14-07:00,1.2686219215393,1,versionA_stim.csv,READVersionA.csv,"Read Version A","Dissertation, read only version A",LAW,ATTORNEY,Study1,B,34,48,Study,User,-,,Study/JOL,"Study Phase",714,,,-1,-1,,,,1
55b3120cfdf99b6ef6263a71,1xr498s82g,Nick_Dissertation_EX1,1,34,2020-06-02T09:16:15-07:00,1.2600650787354,1,versionA_stim.csv,READVersionA.csv,"Read Version A","Dissertation, read only version A",HERD,COW,Study1,F,22,80,Study,User,-,,Study/JOL,"Study Phase",953,,,-1,-1,,,,1
55b3120cfdf99b6ef6263a71,1xr498s82g,Nick_Dissertation_EX1,1,35,2020-06-02T09:16:17-07:00,1.936096906662,1,versionA_stim.csv,READVersionA.csv,"Read Version A","Dissertation, read only version A",KEY,LATCH,Study1,B,36,85,Study,User,-,,Study/JOL,"Study Phase",1573,,,-1,-1,,,,1
55b3120cfdf99b6ef6263a71,1xr498s82g,Nick_Dissertation_EX1,1,36,2020-06-02T09:16:19-07:00,1.8295040130615,1,versionA_stim.csv,READVersionA.csv,"Read Version A","Dissertation, read only version A",ORCHID,FLOWER,Study1,F,24,30,Study,User,-,,Study/JOL,"Study Phase",1483,,,-1,-1,,,,1
55b3120cfdf99b6ef6263a71,1xr498s82g,Nick_Dissertation_EX1,1,37,2020-06-02T09:16:20-07:00,1.684406042099,1,versionA_stim.csv,READVersionA.csv,"Read Version A","Dissertation, read only version A",FULL,ENOUGH,Study1,B,26,37,Study,User,-,,Study/JOL,"Study Phase",1362,,,-1,-1,,,,1
55b3120cfdf99b6ef6263a71,1xr498s82g,Nick_Dissertation_EX1,1,38,2020-06-02T09:16:22-07:00,1.5406060218811,1,versionA_stim.csv,READVersionA.csv,"Read Version A","Dissertation, read only version A",DUMP,WASTE,Study1,S,49,51,Study,User,-,,Study/JOL,"Study Phase",1200,,,-1,-1,,,,1
55b3120cfdf99b6ef6263a71,1xr498s82g,Nick_Dissertation_EX1,1,39,2020-06-02T09:16:23-07:00,1.4414510726929,1,versionA_stim.csv,READVersionA.csv,"Read Version A","Dissertation, read only version A",DISCUSSION,TALK,Study1,F,21,76,Study,User,-,,Study/JOL,"Study Phase",1085,,,-1,-1,,,,1
55b3120cfdf99b6ef6263a71,1xr498s82g,Nick_Dissertation_EX1,1,40,2020-06-02T09:16:25-07:00,1.7075710296631,1,versionA_stim.csv,READVersionA.csv,"Read Version A","Dissertation, read only version A",SUGAR,RIDDLE,Study1,U,81,84,Study,User,-,,Study/JOL,"Study Phase",1359,,,-1,-1,,,,1
55b3120cfdf99b6ef6263a71,1xr498s82g,Nick_Dissertation_EX1,1,41,2020-06-02T09:16:28-07:00,2.5812549591064,1,versionA_stim.csv,READVersionA.csv,"Read Version A","Dissertation, read only version A",BRIDGE,WATER,Study1,F,18,15,Study,User,-,,Study/JOL,"Study Phase",1273,,,-1,-1,,,,1
55b3120cfdf99b6ef6263a71,1xr498s82g,Nick_Dissertation_EX1,1,42,2020-06-02T09:16:29-07:00,1.5817120075226,1,versionA_stim.csv,READVersionA.csv,"Read Version A","Dissertation, read only version A",LIFT,WOMAN,Study1,U,69,41,Study,User,-,,Study/JOL,"Study Phase",1224,,,-1,-1,,,,1
55b3120cfdf99b6ef6263a71,1xr498s82g,Nick_Dissertation_EX1,1,43,2020-06-02T09:16:31-07:00,1.9151728153229,1,versionA_stim.csv,READVersionA.csv,"Read Version A","Dissertation, read only version A",MACHINE,POSITION,Study1,U,76,58,Study,User,-,,Study/JOL,"Study Phase",1498,,,-1,-1,,,,1
55b3120cfdf99b6ef6263a71,1xr498s82g,Nick_Dissertation_EX1,1,44,2020-06-02T09:16:33-07:00,1.9451022148132,1,versionA_stim.csv,READVersionA.csv,"Read Version A","Dissertation, read only version A",BEGIN,END,Study1,S,54,26,Study,User,-,,Study/JOL,"Study Phase",1573,,,-1,-1,,,,1
55b3120cfdf99b6ef6263a71,1xr498s82g,Nick_Dissertation_EX1,1,45,2020-06-02T09:16:35-07:00,1.6484508514404,1,versionA_stim.csv,READVersionA.csv,"Read Version A","Dissertation, read only version A",KING,VASE,Study1,U,85,20,Study,User,-,,Study/JOL,"Study Phase",1278,,,-1,-1,,,,1
55b3120cfdf99b6ef6263a71,1xr498s82g,Nick_Dissertation_EX1,1,46,2020-06-02T09:16:38-07:00,3.0093591213226,1,versionA_stim.csv,READVersionA.csv,"Read Version A","Dissertation, read only version A",STRONG,ACCIDENT,Study1,U,80,62,Study,User,-,,Study/JOL,"Study Phase",1110,,,-1,-1,,,,1
55b3120cfdf99b6ef6263a71,1xr498s82g,Nick_Dissertation_EX1,1,47,2020-06-02T09:16:40-07:00,1.9045989513397,1,versionA_stim.csv,READVersionA.csv,"Read Version A","Dissertation, read only version A",HONEY,BEE,Study1,S,63,74,Study,User,-,,Study/JOL,"Study Phase",1513,,,-1,-1,,,,1
55b3120cfdf99b6ef6263a71,1xr498s82g,Nick_Dissertation_EX1,1,48,2020-06-02T09:16:42-07:00,2.0058810710907,1,versionA_stim.csv,READVersionA.csv,"Read Version A","Dissertation, read only version A",HAPPY,CAR,Study1,U,77,11,Study,User,-,,Study/JOL,"Study Phase",1667,,,-1,-1,,,,1
55b3120cfdf99b6ef6263a71,1xr498s82g,Nick_Dissertation_EX1,1,49,2020-06-02T09:16:44-07:00,2.6756918430328,1,versionA_stim.csv,READVersionA.csv,"Read Version A","Dissertation, read only version A",WINE,CHEESE,Study1,S,57,79,Study,User,-,,Study/JOL,"Study Phase",1005,,,-1,-1,,,,1
55b3120cfdf99b6ef6263a71,1xr498s82g,Nick_Dissertation_EX1,1,50,2020-06-02T09:16:46-07:00,1.1667981147766,1,versionA_stim.csv,READVersionA.csv,"Read Version A","Dissertation, read only version A",BALL,RACKET,Study1,B,38,38,Study,User,-,,Study/JOL,"Study Phase",801,,,-1,-1,,,,1
55b3120cfdf99b6ef6263a71,1xr498s82g,Nick_Dissertation_EX1,1,51,2020-06-02T09:16:48-07:00,2.6998138427734,1,versionA_stim.csv,READVersionA.csv,"Read Version A","Dissertation, read only version A",PARK,HUNGRY,Study1,U,68,10,Study,User,-,,Study/JOL,"Study Phase",1367,,,-1,-1,,,,1
55b3120cfdf99b6ef6263a71,1xr498s82g,Nick_Dissertation_EX1,1,52,2020-06-02T09:16:52-07:00,3.7763421535492,1,versionA_stim.csv,READVersionA.csv,"Read Version A","Dissertation, read only version A",DELINQUENT,BAD,Study1,F,6,23,Study,User,-,,Study/JOL,"Study Phase",2179,,,-1,-1,,,,1
55b3120cfdf99b6ef6263a71,1xr498s82g,Nick_Dissertation_EX1,1,53,2020-06-02T09:16:54-07:00,1.8990750312805,1,versionA_stim.csv,READVersionA.csv,"Read Version A","Dissertation, read only version A",NUMBER,AMOUNT,Study1,S,47,40,Study,User,-,,Study/JOL,"Study Phase",1579,,,-1,-1,,,,1
55b3120cfdf99b6ef6263a71,1xr498s82g,Nick_Dissertation_EX1,1,54,2020-06-02T09:16:57-07:00,3.0671858787537,1,versionA_stim.csv,READVersionA.csv,"Read Version A","Dissertation, read only version A",ARCHITECTURE,DESIGN,Study1,S,51,32,Study,User,-,,Study/JOL,"Study Phase",1718,,,-1,-1,,,,1
55b3120cfdf99b6ef6263a71,1xr498s82g,Nick_Dissertation_EX1,1,55,2020-06-02T09:16:59-07:00,1.8963871002197,1,versionA_stim.csv,READVersionA.csv,"Read Version A","Dissertation, read only version A",ART,LION,Study1,U,79,67,Study,User,-,,Study/JOL,"Study Phase",1551,,,-1,-1,,,,1
55b3120cfdf99b6ef6263a71,1xr498s82g,Nick_Dissertation_EX1,1,56,2020-06-02T09:17:01-07:00,2.2702538967133,1,versionA_stim.csv,READVersionA.csv,"Read Version A","Dissertation, read only version A",WAGE,MONEY,Study1,F,8,46,Study,User,-,,Study/JOL,"Study Phase",1845,,,-1,-1,,,,1
55b3120cfdf99b6ef6263a71,1xr498s82g,Nick_Dissertation_EX1,1,57,2020-06-02T09:17:03-07:00,1.6937870979309,1,versionA_stim.csv,READVersionA.csv,"Read Version A","Dissertation, read only version A",DISCOVER,FLOOR,Study1,U,71,18,Study,User,-,,Study/JOL,"Study Phase",1313,,,-1,-1,,,,1
55b3120cfdf99b6ef6263a71,1xr498s82g,Nick_Dissertation_EX1,1,58,2020-06-02T09:17:05-07:00,2.6168520450592,1,versionA_stim.csv,READVersionA.csv,"Read Version A","Dissertation, read only version A",SENTENCE,WORD,Study1,B,31,70,Study,User,-,,Study/JOL,"Study Phase",1896,,,-1,-1,,,,1
55b3120cfdf99b6ef6263a71,1xr498s82g,Nick_Dissertation_EX1,1,59,2020-06-02T09:17:08-07:00,2.1300859451294,1,versionA_stim.csv,READVersionA.csv,"Read Version A","Dissertation, read only version A",PAW,DOG,Study1,F,15,27,Study,User,-,,Study/JOL,"Study Phase",1793,,,-1,-1,,,,1
55b3120cfdf99b6ef6263a71,1xr498s82g,Nick_Dissertation_EX1,1,60,2020-06-02T09:17:09-07:00,1.5720388889313,1,versionA_stim.csv,READVersionA.csv,"Read Version A","Dissertation, read only version A",DEBATE,SIGHT,Study1,U,73,57,Study,User,-,,Study/JOL,"Study Phase",1175,,,-1,-1,,,,1
55b3120cfdf99b6ef6263a71,1xr498s82g,Nick_Dissertation_EX1,1,61,2020-06-02T09:17:13-07:00,4.3019781112671,1,versionA_stim.csv,READVersionA.csv,"Read Version A","Dissertation, read only version A",MATH,DIVISION,Study1,B,33,36,Study,User,-,,Study/JOL,"Study Phase",2350,,,-1,-1,,,,1
55b3120cfdf99b6ef6263a71,1xr498s82g,Nick_Dissertation_EX1,1,62,2020-06-02T09:17:16-07:00,2.0821139812469,1,versionA_stim.csv,READVersionA.csv,"Read Version A","Dissertation, read only version A",ARTERY,BRONZE,Study1,U,74,25,Study,User,-,,Study/JOL,"Study Phase",1766,,,-1,-1,,,,1
55b3120cfdf99b6ef6263a71,1xr498s82g,Nick_Dissertation_EX1,1,63,2020-06-02T09:17:18-07:00,2.3012840747833,1,versionA_stim.csv,READVersionA.csv,"Read Version A","Dissertation, read only version A",KIDNEY,LIVER,Study1,S,53,28,Study,User,-,,Study/JOL,"Study Phase",1857,,,-1,-1,,,,1
55b3120cfdf99b6ef6263a71,1xr498s82g,Nick_Dissertation_EX1,1,64,2020-06-02T09:17:21-07:00,3.3653659820557,1,versionA_stim.csv,READVersionA.csv,"Read Version A","Dissertation, read only version A",PUSHER,CLUTTER,Study1,U,66,71,Study,User,-,,Study/JOL,"Study Phase",2063,,,-1,-1,,,,1
55b3120cfdf99b6ef6263a71,1xr498s82g,Nick_Dissertation_EX1,1,65,2020-06-02T09:17:23-07:00,1.4801578521729,1,versionA_stim.csv,READVersionA.csv,"Read Version A","Dissertation, read only version A",CIRCLE,ROUND,Study1,S,65,66,Study,User,-,,Study/JOL,"Study Phase",1085,,,-1,-1,,,,1
55b3120cfdf99b6ef6263a71,1xr498s82g,Nick_Dissertation_EX1,1,66,2020-06-02T09:17:25-07:00,2.363676071167,1,versionA_stim.csv,READVersionA.csv,"Read Version A","Dissertation, read only version A",DRINK,SIP,Study1,B,27,50,Study,User,-,,Study/JOL,"Study Phase",1901,,,-1,-1,,,,1
55b3120cfdf99b6ef6263a71,1xr498s82g,Nick_Dissertation_EX1,1,67,2020-06-02T09:17:28-07:00,2.4760448932648,1,versionA_stim.csv,READVersionA.csv,"Read Version A","Dissertation, read only version A",DIETARY,SACKING,Study1,U,67,22,Study,User,-,,Study/JOL,"Study Phase",2038,,,-1,-1,,,,1
55b3120cfdf99b6ef6263a71,1xr498s82g,Nick_Dissertation_EX1,1,68,2020-06-02T09:17:30-07:00,1.982125043869,1,versionA_stim.csv,READVersionA.csv,"Read Version A","Dissertation, read only version A",DARK,CAVE,Study1,B,28,73,Study,User,-,,Study/JOL,"Study Phase",1225,,,-1,-1,,,,1
55b3120cfdf99b6ef6263a71,1xr498s82g,Nick_Dissertation_EX1,1,69,2020-06-02T09:17:31-07:00,1.8362939357758,1,versionA_stim.csv,READVersionA.csv,"Read Version A","Dissertation, read only version A",HIDE,SICK,Study1,U,84,60,Study,User,-,,Study/JOL,"Study Phase",1500,,,-1,-1,,,,1
55b3120cfdf99b6ef6263a71,1xr498s82g,Nick_Dissertation_EX1,1,70,2020-06-02T09:17:33-07:00,1.6634202003479,1,versionA_stim.csv,READVersionA.csv,"Read Version A","Dissertation, read only version A",SHOE,FOOT,Study1,S,60,43,Study,User,-,,Study/JOL,"Study Phase",1014,,,-1,-1,,,,1
55b3120cfdf99b6ef6263a71,1xr498s82g,Nick_Dissertation_EX1,1,71,2020-06-02T09:17:36-07:00,3.0758748054504,1,versionA_stim.csv,READVersionA.csv,"Read Version A","Dissertation, read only version A",FIRE,BLAZE,Study1,B,45,29,Study,User,-,,Study/JOL,"Study Phase",2605,,,-1,-1,,,,1
55b3120cfdf99b6ef6263a71,1xr498s82g,Nick_Dissertation_EX1,1,72,2020-06-02T09:17:39-07:00,2.5671951770782,1,versionA_stim.csv,READVersionA.csv,"Read Version A","Dissertation, read only version A",HOT,CHILI,Study1,B,37,54,Study,User,-,,Study/JOL,"Study Phase",2175,,,-1,-1,,,,1
55b3120cfdf99b6ef6263a71,1xr498s82g,Nick_Dissertation_EX1,1,73,2020-06-02T09:17:40-07:00,1.6702928543091,1,versionA_stim.csv,READVersionA.csv,"Read Version A","Dissertation, read only version A",HEIGHT,GROWTH,Study1,B,30,82,Study,User,-,,Study/JOL,"Study Phase",1306,,,-1,-1,,,,1
55b3120cfdf99b6ef6263a71,1xr498s82g,Nick_Dissertation_EX1,1,74,2020-06-02T09:17:42-07:00,1.9106380939484,1,versionA_stim.csv,READVersionA.csv,"Read Version A","Dissertation, read only version A",SWAN,BIRD,Study1,F,14,42,Study,User,-,,Study/JOL,"Study Phase",1542,,,-1,-1,,,,1
55b3120cfdf99b6ef6263a71,1xr498s82g,Nick_Dissertation_EX1,1,75,2020-06-02T09:17:44-07:00,2.0689980983734,1,versionA_stim.csv,READVersionA.csv,"Read Version A","Dissertation, read only version A",REVOLUTION,WAR,Study1,F,20,52,Study,User,-,,Study/JOL,"Study Phase",1686,,,-1,-1,,,,1
55b3120cfdf99b6ef6263a71,1xr498s82g,Nick_Dissertation_EX1,1,76,2020-06-02T09:17:46-07:00,2.0458338260651,1,versionA_stim.csv,READVersionA.csv,"Read Version A","Dissertation, read only version A",HYGIENE,CLEAN,Study1,F,17,24,Study,User,-,,Study/JOL,"Study Phase",1676,,,-1,-1,,,,1
55b3120cfdf99b6ef6263a71,1xr498s82g,Nick_Dissertation_EX1,1,77,2020-06-02T09:17:49-07:00,2.2809281349182,1,versionA_stim.csv,READVersionA.csv,"Read Version A","Dissertation, read only version A",TUNA,FISH,Study1,F,25,35,Study,User,-,,Study/JOL,"Study Phase",1874,,,-1,-1,,,,1
55b3120cfdf99b6ef6263a71,1xr498s82g,Nick_Dissertation_EX1,1,78,2020-06-02T09:17:52-07:00,2.8610258102417,1,versionA_stim.csv,READVersionA.csv,"Read Version A","Dissertation, read only version A",DUE,ASSIGNMENT,Study1,S,46,17,Study,User,-,,Study/JOL,"Study Phase",2373,,,-1,-1,,,,1
55b3120cfdf99b6ef6263a71,1xr498s82g,Nick_Dissertation_EX1,1,79,2020-06-02T09:17:55-07:00,3.5837461948395,1,versionA_stim.csv,READVersionA.csv,"Read Version A","Dissertation, read only version A",GEOLOGY,ROCK,Study1,F,19,83,Study,User,-,,Study/JOL,"Study Phase",3073,,,-1,-1,,,,1
55b3120cfdf99b6ef6263a71,1xr498s82g,Nick_Dissertation_EX1,1,80,2020-06-02T09:17:57-07:00,1.6232039928436,1,versionA_stim.csv,READVersionA.csv,"Read Version A","Dissertation, read only version A",PAST,FUTURE,Study1,S,61,59,Study,User,-,,Study/JOL,"Study Phase",1242,,,-1,-1,,,,1
55b3120cfdf99b6ef6263a71,1xr498s82g,Nick_Dissertation_EX1,1,81,2020-06-02T09:18:00-07:00,3.0739059448242,1,versionA_stim.csv,READVersionA.csv,"Read Version A","Dissertation, read only version A",MEANING,DEFINITION,Study1,S,62,8,Study,User,-,,Study/JOL,"Study Phase",2083,,,-1,-1,,,,1
55b3120cfdf99b6ef6263a71,1xr498s82g,Nick_Dissertation_EX1,1,82,2020-06-02T09:18:01-07:00,1.5527880191803,1,versionA_stim.csv,READVersionA.csv,"Read Version A","Dissertation, read only version A",ALLOW,TUCK,Study1,U,78,47,Study,User,-,,Study/JOL,"Study Phase",1259,,,-1,-1,,,,1
55b3120cfdf99b6ef6263a71,1xr498s82g,Nick_Dissertation_EX1,1,83,2020-06-02T09:18:03-07:00,1.9445829391479,1,versionA_stim.csv,READVersionA.csv,"Read Version A","Dissertation, read only version A",CHISEL,HAMMER,Study1,F,9,9,Study,User,-,,Study/JOL,"Study Phase",1605,,,-1,-1,,,,1
55b3120cfdf99b6ef6263a71,1xr498s82g,Nick_Dissertation_EX1,1,84,2020-06-02T09:18:05-07:00,2.0321519374847,1,versionA_stim.csv,READVersionA.csv,"Read Version A","Dissertation, read only version A",GREAT,FANTASTIC,Study1,B,35,78,Study,User,-,,Study/JOL,"Study Phase",1711,,,-1,-1,,,,1
55b3120cfdf99b6ef6263a71,1xr498s82g,Nick_Dissertation_EX1,1,85,2020-06-02T09:18:07-07:00,1.4160740375519,1,versionA_stim.csv,READVersionA.csv,"Read Version A","Dissertation, read only version A",BUG,WASP,Study1,B,32,31,Study,User,-,,Study/JOL,"Study Phase",1064,,,-1,-1,,,,1
55b3120cfdf99b6ef6263a71,1xr498s82g,Nick_Dissertation_EX1,1,86,2020-06-02T09:18:08-07:00,1.6544010639191,1,versionA_stim.csv,READVersionA.csv,"Read Version A","Dissertation, read only version A",GRILL,BAR,Study1,S,52,56,Study,User,-,,Study/JOL,"Study Phase",1294,,,-1,-1,,,,1
55b3120cfdf99b6ef6263a71,1xr498s82g,Nick_Dissertation_EX1,1,87,2020-06-02T09:18:12-07:00,3.5187659263611,1,versionA_stim.csv,READVersionA.csv,"Read Version A","Dissertation, read only version A",GEESE,GOOSE,BUFFER2,Buffer,86,88,Study,User,-,,Study/JOL,BUFFER2,3038,,,-1,-1,,,,1
55b3120cfdf99b6ef6263a71,1xr498s82g,Nick_Dissertation_EX1,1,88,2020-06-02T09:18:14-07:00,1.8729810714722,1,versionA_stim.csv,READVersionA.csv,"Read Version A","Dissertation, read only version A",MALT,CHOCOLATE,BUFFER2,Buffer,88,87,Study,User,-,,Study/JOL,BUFFER2,1510,,,-1,-1,,,,1
55b3120cfdf99b6ef6263a71,1xr498s82g,Nick_Dissertation_EX1,1,89,2020-06-02T09:18:17-07:00,2.7203869819641,1,versionA_stim.csv,READVersionA.csv,"Read Version A","Dissertation, read only version A",MOON,SPACE,BUFFER2,Buffer,89,91,Study,User,-,,Study/JOL,BUFFER2,2182,,,-1,-1,,,,1
55b3120cfdf99b6ef6263a71,1xr498s82g,Nick_Dissertation_EX1,1,90,2020-06-02T09:18:19-07:00,2.0021591186523,1,versionA_stim.csv,READVersionA.csv,"Read Version A","Dissertation, read only version A",THING,STUFF,BUFFER2,Buffer,90,90,Study,User,-,,Study/JOL,BUFFER2,1662,,,-1,-1,,,,1
55b3120cfdf99b6ef6263a71,1xr498s82g,Nick_Dissertation_EX1,1,91,2020-06-02T09:18:20-07:00,1.6363208293915,1,versionA_stim.csv,READVersionA.csv,"Read Version A","Dissertation, read only version A",SHERRIF,POLICE,BUFFER2,Buffer,87,89,Study,User,-,,Study/JOL,BUFFER2,1322,,,-1,-1,,,,1
55b3120cfdf99b6ef6263a71,1xr498s82g,Nick_Dissertation_EX1,1,92,2020-06-02T09:18:22-07:00,2.3209910392761,1,versionA_stim.csv,READVersionA.csv,"Read Version A","Dissertation, read only version A",,,,,,0,Instruct,User,-,"You have completed this section. Please press Enter.",Filler_Instruction,Instruct2,1914,,,-1,-1,,,,1
55b3120cfdf99b6ef6263a71,1xr498s82g,Nick_Dissertation_EX1,1,93,2020-06-02T09:20:23-07:00,120.66965103149,1,versionA_stim.csv,READVersionA.csv,"Read Version A","Dissertation, read only version A",,,,,,0,FreeRecall,120,120,"Please list the 50 US states in alphabetical order. The task will automatically advance to the next screen after two minutes.",,Filler1,120015,"Alabama Alaska Arizona California Colorado Connecticut Hawaii Kansas Michigan Minnesota ",0,6785,116938,0,0,,1
55b3120cfdf99b6ef6263a71,1xr498s82g,Nick_Dissertation_EX1,1,94,2020-06-02T09:20:34-07:00,11.183620929718,1,versionA_stim.csv,READVersionA.csv,"Read Version A","Dissertation, read only version A",,,,,,0,Instruct,-,10,"You will now be presented with the first word from each of the previously studied item pairs. Please type the missing word. If you do not know the word, you may guess or press Enter to skip forward to the next pair.",,Instruct3,10217,,,-1,-1,,,,1
55b3120cfdf99b6ef6263a71,1xr498s82g,Nick_Dissertation_EX1,1,95,2020-06-02T09:20:40-07:00,6.0512180328369,1,versionA_stim.csv,READVersionA.csv,"Read Version A","Dissertation, read only version A",ARTERY,BRONZE,Study1,U,74,25,Test,User,-,,Recall,Recall1,5161,vein,20,2037,4035,0,0,,1
55b3120cfdf99b6ef6263a71,1xr498s82g,Nick_Dissertation_EX1,1,96,2020-06-02T09:20:44-07:00,3.6051890850067,1,versionA_stim.csv,READVersionA.csv,"Read Version A","Dissertation, read only version A",KIDNEY,LIVER,Study1,S,53,28,Test,User,-,,Recall,Recall1,2988,liver,100,1987,2777,1,1,,1
55b3120cfdf99b6ef6263a71,1xr498s82g,Nick_Dissertation_EX1,1,97,2020-06-02T09:20:53-07:00,8.9139249324799,1,versionA_stim.csv,READVersionA.csv,"Read Version A","Dissertation, read only version A",TRIAL,JURY,Study1,S,50,81,Test,User,-,,Recall,Recall1,8468,error,22.222222222222,2041,7940,0,0,,1
55b3120cfdf99b6ef6263a71,1xr498s82g,Nick_Dissertation_EX1,1,98,2020-06-02T09:20:57-07:00,3.9962201118469,1,versionA_stim.csv,READVersionA.csv,"Read Version A","Dissertation, read only version A",CASH,WOULD,Study1,U,83,19,Test,User,-,,Recall,Recall1,3147,money,20,2109,2738,0,0,,1
55b3120cfdf99b6ef6263a71,1xr498s82g,Nick_Dissertation_EX1,1,99,2020-06-02T09:21:09-07:00,11.893184900284,1,versionA_stim.csv,READVersionA.csv,"Read Version A","Dissertation, read only version A",NUMBER,AMOUNT,Study1,S,47,40,Test,User,-,,Recall,Recall1,10442,digit,18.181818181818,9326,10007,0,0,,1
55b3120cfdf99b6ef6263a71,1xr498s82g,Nick_Dissertation_EX1,1,100,2020-06-02T09:21:14-07:00,4.9876120090485,1,versionA_stim.csv,READVersionA.csv,"Read Version A","Dissertation, read only version A",HIDE,SICK,Study1,U,84,60,Test,User,-,,Recall,Recall1,3701,seek,50,1348,1952,0,0,,1
55b3120cfdf99b6ef6263a71,1xr498s82g,Nick_Dissertation_EX1,1,101,2020-06-02T09:21:20-07:00,5.8373758792877,1,versionA_stim.csv,READVersionA.csv,"Read Version A","Dissertation, read only version A",SHOE,FOOT,Study1,S,60,43,Test,User,-,,Recall,Recall1,5409,foot,100,4631,5197,1,1,,1
55b3120cfdf99b6ef6263a71,1xr498s82g,Nick_Dissertation_EX1,1,102,2020-06-02T09:21:24-07:00,4.276890039444,1,versionA_stim.csv,READVersionA.csv,"Read Version A","Dissertation, read only version A",FULL,ENOUGH,Study1,B,26,37,Test,User,-,,Recall,Recall1,3203,plate,18.181818181818,1865,2878,0,0,,1
55b3120cfdf99b6ef6263a71,1xr498s82g,Nick_Dissertation_EX1,1,103,2020-06-02T09:21:33-07:00,9.2705130577087,1,versionA_stim.csv,READVersionA.csv,"Read Version A","Dissertation, read only version A",LETTUCE,SALAD,Study1,S,59,13,Test,User,-,,Recall,Recall1,7746,salad,100,6276,7472,1,1,,1
55b3120cfdf99b6ef6263a71,1xr498s82g,Nick_Dissertation_EX1,1,104,2020-06-02T09:21:38-07:00,4.899423122406,1,versionA_stim.csv,READVersionA.csv,"Read Version A","Dissertation, read only version A",EDITOR,NEWS,Study1,F,10,33,Test,User,-,,Recall,Recall1,4466,news,100,3274,4068,1,1,,1
55b3120cfdf99b6ef6263a71,1xr498s82g,Nick_Dissertation_EX1,1,105,2020-06-02T09:21:44-07:00,5.8831338882446,1,versionA_stim.csv,READVersionA.csv,"Read Version A","Dissertation, read only version A",ARCHITECTURE,DESIGN,Study1,S,51,32,Test,User,-,,Recall,Recall1,4064,building,28.571428571429,2752,3711,0,0,,1
55b3120cfdf99b6ef6263a71,1xr498s82g,Nick_Dissertation_EX1,1,106,2020-06-02T09:21:52-07:00,7.8911769390106,1,versionA_stim.csv,READVersionA.csv,"Read Version A","Dissertation, read only version A",BATHROOM,TOILET,Study1,S,58,39,Test,User,-,,Recall,Recall1,7433,,0,-1,-1,0,0,,1
55b3120cfdf99b6ef6263a71,1xr498s82g,Nick_Dissertation_EX1,1,107,2020-06-02T09:21:54-07:00,2.5929770469666,1,versionA_stim.csv,READVersionA.csv,"Read Version A","Dissertation, read only version A",LOCATION,SITE,Study1,S,48,65,Test,User,-,,Recall,Recall1,2207,area,25,1323,1874,0,0,,1
55b3120cfdf99b6ef6263a71,1xr498s82g,Nick_Dissertation_EX1,1,108,2020-06-02T09:22:00-07:00,5.6375439167023,1,versionA_stim.csv,READVersionA.csv,"Read Version A","Dissertation, read only version A",PAST,FUTURE,Study1,S,61,59,Test,User,-,,Recall,Recall1,5239,future,100,3872,5090,1,1,,1
55b3120cfdf99b6ef6263a71,1xr498s82g,Nick_Dissertation_EX1,1,109,2020-06-02T09:22:07-07:00,7.4302170276642,1,versionA_stim.csv,READVersionA.csv,"Read Version A","Dissertation, read only version A",CLOTHES,ATTIRE,Study1,B,43,72,Test,User,-,,Recall,Recall1,6482,wear,20,5695,6255,0,0,,1
55b3120cfdf99b6ef6263a71,1xr498s82g,Nick_Dissertation_EX1,1,110,2020-06-02T09:22:14-07:00,6.8937499523163,1,versionA_stim.csv,READVersionA.csv,"Read Version A","Dissertation, read only version A",SLEEP,DROWSY,Study1,B,41,45,Test,User,-,,Recall,Recall1,5541,rest,40,4039,4950,0,0,,1
55b3120cfdf99b6ef6263a71,1xr498s82g,Nick_Dissertation_EX1,1,111,2020-06-02T09:22:20-07:00,5.329421043396,1,versionA_stim.csv,READVersionA.csv,"Read Version A","Dissertation, read only version A",DIETARY,SACKING,Study1,U,67,22,Test,User,-,,Recall,Recall1,4928,food,0,4084,4656,0,0,,1
55b3120cfdf99b6ef6263a71,1xr498s82g,Nick_Dissertation_EX1,1,112,2020-06-02T09:22:25-07:00,5.4258501529694,1,versionA_stim.csv,READVersionA.csv,"Read Version A","Dissertation, read only version A",TUNA,FISH,Study1,F,25,35,Test,User,-,,Recall,Recall1,3470,fish,100,1059,3160,1,1,,1
55b3120cfdf99b6ef6263a71,1xr498s82g,Nick_Dissertation_EX1,1,113,2020-06-02T09:22:29-07:00,3.3603258132935,1,versionA_stim.csv,READVersionA.csv,"Read Version A","Dissertation, read only version A",BRIDGE,WATER,Study1,F,18,15,Test,User,-,,Recall,Recall1,2672,water,100,1620,2321,1,1,,1
55b3120cfdf99b6ef6263a71,1xr498s82g,Nick_Dissertation_EX1,1,114,2020-06-02T09:22:34-07:00,5.1296181678772,1,versionA_stim.csv,READVersionA.csv,"Read Version A","Dissertation, read only version A",DUE,ASSIGNMENT,Study1,S,46,17,Test,User,-,,Recall,Recall1,3933,rent,42.857142857143,3223,3722,0,0,,1
55b3120cfdf99b6ef6263a71,1xr498s82g,Nick_Dissertation_EX1,1,115,2020-06-02T09:22:40-07:00,6.769800901413,1,versionA_stim.csv,READVersionA.csv,"Read Version A","Dissertation, read only version A",WINE,CHEESE,Study1,S,57,79,Test,User,-,,Recall,Recall1,5863,glass,18.181818181818,4345,5478,0,0,,1
55b3120cfdf99b6ef6263a71,1xr498s82g,Nick_Dissertation_EX1,1,116,2020-06-02T09:22:48-07:00,7.7227640151978,1,versionA_stim.csv,READVersionA.csv,"Read Version A","Dissertation, read only version A",LAW,ATTORNEY,Study1,B,34,48,Test,User,-,,Recall,Recall1,7281,order,46.153846153846,6208,7016,0,0,,1
55b3120cfdf99b6ef6263a71,1xr498s82g,Nick_Dissertation_EX1,1,117,2020-06-02T09:22:51-07:00,2.7114701271057,1,versionA_stim.csv,READVersionA.csv,"Read Version A","Dissertation, read only version A",CHISEL,HAMMER,Study1,F,9,9,Test,User,-,,Recall,Recall1,2099,hammer,100,1159,1786,1,1,,1
55b3120cfdf99b6ef6263a71,1xr498s82g,Nick_Dissertation_EX1,1,118,2020-06-02T09:22:56-07:00,4.9552159309387,1,versionA_stim.csv,READVersionA.csv,"Read Version A","Dissertation, read only version A",HEIGHT,GROWTH,Study1,B,30,82,Test,User,-,,Recall,Recall1,4077,tall,20,3299,3781,0,0,,1
55b3120cfdf99b6ef6263a71,1xr498s82g,Nick_Dissertation_EX1,1,119,2020-06-02T09:23:04-07:00,8.408194065094,1,versionA_stim.csv,READVersionA.csv,"Read Version A","Dissertation, read only version A",ALLOW,TUCK,Study1,U,78,47,Test,User,-,,Recall,Recall1,7083,,0,-1,-1,0,0,,1
55b3120cfdf99b6ef6263a71,1xr498s82g,Nick_Dissertation_EX1,1,120,2020-06-02T09:23:12-07:00,8.2332129478455,1,versionA_stim.csv,READVersionA.csv,"Read Version A","Dissertation, read only version A",DEATH,BUSINESS,Study1,U,72,16,Test,User,-,,Recall,Recall1,7446,,0,-1,-1,0,0,,1
55b3120cfdf99b6ef6263a71,1xr498s82g,Nick_Dissertation_EX1,1,121,2020-06-02T09:23:19-07:00,6.66725897789,1,versionA_stim.csv,READVersionA.csv,"Read Version A","Dissertation, read only version A",DISCUSSION,TALK,Study1,F,21,76,Test,User,-,,Recall,Recall1,5099,talk,100,4239,4816,1,1,,1
55b3120cfdf99b6ef6263a71,1xr498s82g,Nick_Dissertation_EX1,1,122,2020-06-02T09:23:23-07:00,3.6576828956604,1,versionA_stim.csv,READVersionA.csv,"Read Version A","Dissertation, read only version A",CREDIT,CARD,Study1,F,23,75,Test,User,-,,Recall,Recall1,3235,score,44.444444444444,2138,3034,0,0,,1
55b3120cfdf99b6ef6263a71,1xr498s82g,Nick_Dissertation_EX1,1,123,2020-06-02T09:23:29-07:00,5.7881150245667,1,versionA_stim.csv,READVersionA.csv,"Read Version A","Dissertation, read only version A",HOT,CHILI,Study1,B,37,54,Test,User,-,,Recall,Recall1,5381,chili,100,3076,5099,1,1,,1
55b3120cfdf99b6ef6263a71,1xr498s82g,Nick_Dissertation_EX1,1,124,2020-06-02T09:23:36-07:00,7.8412711620331,1,versionA_stim.csv,READVersionA.csv,"Read Version A","Dissertation, read only version A",ROOT,PLANT,Study1,F,13,55,Test,User,-,,Recall,Recall1,7422,tree,22.222222222222,3597,6571,0,0,,1
55b3120cfdf99b6ef6263a71,1xr498s82g,Nick_Dissertation_EX1,1,125,2020-06-02T09:23:40-07:00,4.0907797813416,1,versionA_stim.csv,READVersionA.csv,"Read Version A","Dissertation, read only version A",FIX,HAND,Study1,U,75,21,Test,User,-,,Recall,Recall1,3680,,0,-1,-1,0,0,,1
55b3120cfdf99b6ef6263a71,1xr498s82g,Nick_Dissertation_EX1,1,126,2020-06-02T09:23:46-07:00,5.2962682247162,1,versionA_stim.csv,READVersionA.csv,"Read Version A","Dissertation, read only version A",BITTER,COLD,Study1,F,12,12,Test,User,-,,Recall,Recall1,4770,lemon,22.222222222222,4000,4523,0,0,,1
55b3120cfdf99b6ef6263a71,1xr498s82g,Nick_Dissertation_EX1,1,127,2020-06-02T09:23:49-07:00,3.0896708965302,1,versionA_stim.csv,READVersionA.csv,"Read Version A","Dissertation, read only version A",SUGAR,RIDDLE,Study1,U,81,84,Test,User,-,,Recall,Recall1,2692,sweet,18.181818181818,1548,2411,0,0,,1
55b3120cfdf99b6ef6263a71,1xr498s82g,Nick_Dissertation_EX1,1,128,2020-06-02T09:23:52-07:00,3.3445360660553,1,versionA_stim.csv,READVersionA.csv,"Read Version A","Dissertation, read only version A",MEANING,DEFINITION,Study1,S,62,8,Test,User,-,,Recall,Recall1,2930,,0,-1,-1,0,0,,1
55b3120cfdf99b6ef6263a71,1xr498s82g,Nick_Dissertation_EX1,1,129,2020-06-02T09:23:55-07:00,2.674017906189,1,versionA_stim.csv,READVersionA.csv,"Read Version A","Dissertation, read only version A",GEOLOGY,ROCK,Study1,F,19,83,Test,User,-,,Recall,Recall1,2245,rock,100,1228,1714,1,1,,1
55b3120cfdf99b6ef6263a71,1xr498s82g,Nick_Dissertation_EX1,1,130,2020-06-02T09:24:00-07:00,4.9924941062927,1,versionA_stim.csv,READVersionA.csv,"Read Version A","Dissertation, read only version A",BUG,WASP,Study1,B,32,31,Test,User,-,,Recall,Recall1,4539,ant,28.571428571429,3975,4285,0,0,,1
55b3120cfdf99b6ef6263a71,1xr498s82g,Nick_Dissertation_EX1,1,131,2020-06-02T09:24:04-07:00,4.5134968757629,1,versionA_stim.csv,READVersionA.csv,"Read Version A","Dissertation, read only version A",SENTENCE,WORD,Study1,B,31,70,Test,User,-,,Recall,Recall1,4073,words,88.888888888889,2910,3861,0,1,,1
55b3120cfdf99b6ef6263a71,1xr498s82g,Nick_Dissertation_EX1,1,132,2020-06-02T09:24:08-07:00,4.0233881473541,1,versionA_stim.csv,READVersionA.csv,"Read Version A","Dissertation, read only version A",WORK,CHORE,Study1,B,39,61,Test,User,-,,Recall,Recall1,3582,play,0,2611,3161,0,0,,1
55b3120cfdf99b6ef6263a71,1xr498s82g,Nick_Dissertation_EX1,1,133,2020-06-02T09:24:12-07:00,3.4129889011383,1,versionA_stim.csv,READVersionA.csv,"Read Version A","Dissertation, read only version A",BALL,RACKET,Study1,B,38,38,Test,User,-,,Recall,Recall1,2990,catcher,30.769230769231,1731,2707,0,0,,1
55b3120cfdf99b6ef6263a71,1xr498s82g,Nick_Dissertation_EX1,1,134,2020-06-02T09:24:14-07:00,2.4243650436401,1,versionA_stim.csv,READVersionA.csv,"Read Version A","Dissertation, read only version A",LIFT,WOMAN,Study1,U,69,41,Test,User,-,,Recall,Recall1,2003,,0,-1,-1,0,0,,1
55b3120cfdf99b6ef6263a71,1xr498s82g,Nick_Dissertation_EX1,1,135,2020-06-02T09:24:17-07:00,2.2904448509216,1,versionA_stim.csv,READVersionA.csv,"Read Version A","Dissertation, read only version A",BEGIN,END,Study1,S,54,26,Test,User,-,,Recall,Recall1,1855,end,100,1271,1592,1,1,,1
55b3120cfdf99b6ef6263a71,1xr498s82g,Nick_Dissertation_EX1,1,136,2020-06-02T09:24:21-07:00,4.220813035965,1,versionA_stim.csv,READVersionA.csv,"Read Version A","Dissertation, read only version A",DIGESTION,STOMACH,Study1,F,7,7,Test,User,-,,Recall,Recall1,3809,hunger,15.384615384615,2146,3447,0,0,,1
55b3120cfdf99b6ef6263a71,1xr498s82g,Nick_Dissertation_EX1,1,137,2020-06-02T09:24:22-07:00,1.6508910655975,1,versionA_stim.csv,READVersionA.csv,"Read Version A","Dissertation, read only version A",PUSHER,CLUTTER,Study1,U,66,71,Test,User,-,,Recall,Recall1,1296,,0,-1,-1,0,0,,1
55b3120cfdf99b6ef6263a71,1xr498s82g,Nick_Dissertation_EX1,1,138,2020-06-02T09:24:28-07:00,5.4071960449219,1,versionA_stim.csv,READVersionA.csv,"Read Version A","Dissertation, read only version A",HUNGER,FAMINE,Study1,B,40,86,Test,User,-,,Recall,Recall1,5011,digest,33.333333333333,2705,4526,0,0,,1
55b3120cfdf99b6ef6263a71,1xr498s82g,Nick_Dissertation_EX1,1,139,2020-06-02T09:24:35-07:00,6.9829299449921,1,versionA_stim.csv,READVersionA.csv,"Read Version A","Dissertation, read only version A",DRINK,SIP,Study1,B,27,50,Test,User,-,,Recall,Recall1,6549,thristy,20,4185,6222,0,0,,1
55b3120cfdf99b6ef6263a71,1xr498s82g,Nick_Dissertation_EX1,1,140,2020-06-02T09:24:39-07:00,4.4245209693909,1,versionA_stim.csv,READVersionA.csv,"Read Version A","Dissertation, read only version A",PAW,DOG,Study1,F,15,27,Test,User,-,,Recall,Recall1,4004,dog,100,3407,3749,1,1,,1
55b3120cfdf99b6ef6263a71,1xr498s82g,Nick_Dissertation_EX1,1,141,2020-06-02T09:24:42-07:00,2.3602700233459,1,versionA_stim.csv,READVersionA.csv,"Read Version A","Dissertation, read only version A",SOON,BELT,Study1,U,70,69,Test,User,-,,Recall,Recall1,1986,,0,-1,-1,0,0,,1
55b3120cfdf99b6ef6263a71,1xr498s82g,Nick_Dissertation_EX1,1,142,2020-06-02T09:24:48-07:00,6.173975944519,1,versionA_stim.csv,READVersionA.csv,"Read Version A","Dissertation, read only version A",DELINQUENT,BAD,Study1,F,6,23,Test,User,-,,Recall,Recall1,5765,late,28.571428571429,4838,5428,0,0,,1
55b3120cfdf99b6ef6263a71,1xr498s82g,Nick_Dissertation_EX1,1,143,2020-06-02T09:24:50-07:00,2.6545331478119,1,versionA_stim.csv,READVersionA.csv,"Read Version A","Dissertation, read only version A",HORNET,STING,Study1,F,11,44,Test,User,-,,Recall,Recall1,2252,bee,0,1298,1978,0,0,,1
55b3120cfdf99b6ef6263a71,1xr498s82g,Nick_Dissertation_EX1,1,144,2020-06-02T09:24:55-07:00,4.2670090198517,1,versionA_stim.csv,READVersionA.csv,"Read Version A","Dissertation, read only version A",DEBATE,SIGHT,Study1,U,73,57,Test,User,-,,Recall,Recall1,3798,argue,20,1774,3481,0,0,,1
55b3120cfdf99b6ef6263a71,1xr498s82g,Nick_Dissertation_EX1,1,145,2020-06-02T09:25:00-07:00,4.9940497875214,1,versionA_stim.csv,READVersionA.csv,"Read Version A","Dissertation, read only version A",KEY,LATCH,Study1,B,36,85,Test,User,-,,Recall,Recall1,4583,lock,44.444444444444,2578,3363,0,0,,1
55b3120cfdf99b6ef6263a71,1xr498s82g,Nick_Dissertation_EX1,1,146,2020-06-02T09:25:02-07:00,2.7020041942596,1,versionA_stim.csv,READVersionA.csv,"Read Version A","Dissertation, read only version A",HERD,COW,Study1,F,22,80,Test,User,-,,Recall,Recall1,2278,cattle,22.222222222222,1410,2090,0,0,,1
55b3120cfdf99b6ef6263a71,1xr498s82g,Nick_Dissertation_EX1,1,147,2020-06-02T09:25:08-07:00,5.5817058086395,1,versionA_stim.csv,READVersionA.csv,"Read Version A","Dissertation, read only version A",DISCOVER,FLOOR,Study1,U,71,18,Test,User,-,,Recall,Recall1,5162,explore,50,3386,4960,0,0,,1
55b3120cfdf99b6ef6263a71,1xr498s82g,Nick_Dissertation_EX1,1,148,2020-06-02T09:25:11-07:00,3.0917301177979,1,versionA_stim.csv,READVersionA.csv,"Read Version A","Dissertation, read only version A",WAGE,MONEY,Study1,F,8,46,Test,User,-,,Recall,Recall1,2662,money,100,1775,2363,1,1,,1
55b3120cfdf99b6ef6263a71,1xr498s82g,Nick_Dissertation_EX1,1,149,2020-06-02T09:25:20-07:00,9.1703219413757,1,versionA_stim.csv,READVersionA.csv,"Read Version A","Dissertation, read only version A",KING,VASE,Study1,U,85,20,Test,User,-,,Recall,Recall1,8790,royality,16.666666666667,7361,8504,0,0,,1
55b3120cfdf99b6ef6263a71,1xr498s82g,Nick_Dissertation_EX1,1,150,2020-06-02T09:25:24-07:00,3.3107490539551,1,versionA_stim.csv,READVersionA.csv,"Read Version A","Dissertation, read only version A",BLOW,WIND,Study1,S,55,63,Test,User,-,,Recall,Recall1,2852,wind,100,2185,2588,1,1,,1
55b3120cfdf99b6ef6263a71,1xr498s82g,Nick_Dissertation_EX1,1,151,2020-06-02T09:25:29-07:00,5.6322419643402,1,versionA_stim.csv,READVersionA.csv,"Read Version A","Dissertation, read only version A",REVOLUTION,WAR,Study1,F,20,52,Test,User,-,,Recall,Recall1,5231,war,100,1296,3807,1,1,,1
55b3120cfdf99b6ef6263a71,1xr498s82g,Nick_Dissertation_EX1,1,152,2020-06-02T09:25:31-07:00,2.2974970340729,1,versionA_stim.csv,READVersionA.csv,"Read Version A","Dissertation, read only version A",HONEY,BEE,Study1,S,63,74,Test,User,-,,Recall,Recall1,1830,bee,100,1053,1490,1,1,,1
55b3120cfdf99b6ef6263a71,1xr498s82g,Nick_Dissertation_EX1,1,153,2020-06-02T09:25:35-07:00,3.9994518756866,1,versionA_stim.csv,READVersionA.csv,"Read Version A","Dissertation, read only version A",MATH,DIVISION,Study1,B,33,36,Test,User,-,,Recall,Recall1,3541,division,100,2197,3230,1,1,,1
55b3120cfdf99b6ef6263a71,1xr498s82g,Nick_Dissertation_EX1,1,154,2020-06-02T09:25:39-07:00,3.1753480434418,1,versionA_stim.csv,READVersionA.csv,"Read Version A","Dissertation, read only version A",ORCHID,FLOWER,Study1,F,24,30,Test,User,-,,Recall,Recall1,2774,flower,100,1840,2563,1,1,,1
55b3120cfdf99b6ef6263a71,1xr498s82g,Nick_Dissertation_EX1,1,155,2020-06-02T09:25:41-07:00,2.5125510692596,1,versionA_stim.csv,READVersionA.csv,"Read Version A","Dissertation, read only version A",TAKE,SEIZE,Study1,B,29,49,Test,User,-,,Recall,Recall1,2065,give,44.444444444444,1396,1904,0,0,,1
55b3120cfdf99b6ef6263a71,1xr498s82g,Nick_Dissertation_EX1,1,156,2020-06-02T09:25:45-07:00,3.4751439094543,1,versionA_stim.csv,READVersionA.csv,"Read Version A","Dissertation, read only version A",WAY,OUT,Study1,F,16,34,Test,User,-,,Recall,Recall1,3103,,0,-1,-1,0,0,,1
55b3120cfdf99b6ef6263a71,1xr498s82g,Nick_Dissertation_EX1,1,157,2020-06-02T09:25:50-07:00,4.9461832046509,1,versionA_stim.csv,READVersionA.csv,"Read Version A","Dissertation, read only version A",DARK,CAVE,Study1,B,28,73,Test,User,-,,Recall,Recall1,4503,moon,0,3104,3814,0,0,,1
55b3120cfdf99b6ef6263a71,1xr498s82g,Nick_Dissertation_EX1,1,158,2020-06-02T09:25:56-07:00,6.8413279056549,1,versionA_stim.csv,READVersionA.csv,"Read Version A","Dissertation, read only version A",HAPPY,CAR,Study1,U,77,11,Test,User,-,,Recall,Recall1,6368,,0,-1,-1,0,0,,1
55b3120cfdf99b6ef6263a71,1xr498s82g,Nick_Dissertation_EX1,1,159,2020-06-02T09:26:00-07:00,3.7163610458374,1,versionA_stim.csv,READVersionA.csv,"Read Version A","Dissertation, read only version A",CIRCLE,ROUND,Study1,S,65,66,Test,User,-,,Recall,Recall1,2190,round,100,1356,1911,1,1,,1
55b3120cfdf99b6ef6263a71,1xr498s82g,Nick_Dissertation_EX1,1,160,2020-06-02T09:26:06-07:00,5.9983508586884,1,versionA_stim.csv,READVersionA.csv,"Read Version A","Dissertation, read only version A",VALLEY,ADD,Study1,U,82,64,Test,User,-,,Recall,Recall1,5472,,0,-1,-1,0,0,,1
55b3120cfdf99b6ef6263a71,1xr498s82g,Nick_Dissertation_EX1,1,161,2020-06-02T09:26:19-07:00,12.519021987915,1,versionA_stim.csv,READVersionA.csv,"Read Version A","Dissertation, read only version A",ART,LION,Study1,U,79,67,Test,User,-,,Recall,Recall1,11084,color,22.222222222222,10060,10820,0,0,,1
55b3120cfdf99b6ef6263a71,1xr498s82g,Nick_Dissertation_EX1,1,162,2020-06-02T09:26:22-07:00,3.2637310028076,1,versionA_stim.csv,READVersionA.csv,"Read Version A","Dissertation, read only version A",HYGIENE,CLEAN,Study1,F,17,24,Test,User,-,,Recall,Recall1,2874,,0,-1,-1,0,0,,1
55b3120cfdf99b6ef6263a71,1xr498s82g,Nick_Dissertation_EX1,1,163,2020-06-02T09:26:24-07:00,2.3453590869904,1,versionA_stim.csv,READVersionA.csv,"Read Version A","Dissertation, read only version A",POP,SODA,Study1,S,56,68,Test,User,-,,Recall,Recall1,1916,soda,100,1188,1735,1,1,,1
55b3120cfdf99b6ef6263a71,1xr498s82g,Nick_Dissertation_EX1,1,164,2020-06-02T09:26:30-07:00,6.130471944809,1,versionA_stim.csv,READVersionA.csv,"Read Version A","Dissertation, read only version A",STRONG,ACCIDENT,Study1,U,80,62,Test,User,-,,Recall,Recall1,5694,muscle,28.571428571429,4398,5373,0,0,,1
55b3120cfdf99b6ef6263a71,1xr498s82g,Nick_Dissertation_EX1,1,165,2020-06-02T09:26:36-07:00,6.0575051307678,1,versionA_stim.csv,READVersionA.csv,"Read Version A","Dissertation, read only version A",FIRE,BLAZE,Study1,B,45,29,Test,User,-,,Recall,Recall1,5663,blaze,100,3680,5365,1,1,,1
55b3120cfdf99b6ef6263a71,1xr498s82g,Nick_Dissertation_EX1,1,166,2020-06-02T09:26:41-07:00,4.3353798389435,1,versionA_stim.csv,READVersionA.csv,"Read Version A","Dissertation, read only version A",SMELL,STENCH,Study1,B,42,77,Test,User,-,,Recall,Recall1,3905,odor,0,1112,3464,0,0,,1
55b3120cfdf99b6ef6263a71,1xr498s82g,Nick_Dissertation_EX1,1,167,2020-06-02T09:26:46-07:00,5.4482781887054,1,versionA_stim.csv,READVersionA.csv,"Read Version A","Dissertation, read only version A",PARK,HUNGRY,Study1,U,68,10,Test,User,-,,Recall,Recall1,4673,play,20,3794,4316,0,0,,1
55b3120cfdf99b6ef6263a71,1xr498s82g,Nick_Dissertation_EX1,1,168,2020-06-02T09:26:50-07:00,3.675616979599,1,versionA_stim.csv,READVersionA.csv,"Read Version A","Dissertation, read only version A",PLANE,PILOT,Study1,B,44,14,Test,User,-,,Recall,Recall1,3166,pilot,100,1877,2942,1,1,,1
55b3120cfdf99b6ef6263a71,1xr498s82g,Nick_Dissertation_EX1,1,169,2020-06-02T09:26:54-07:00,4.4185709953308,1,versionA_stim.csv,READVersionA.csv,"Read Version A","Dissertation, read only version A",DUMP,WASTE,Study1,S,49,51,Test,User,-,,Recall,Recall1,4002,trash,40,2310,3723,0,0,,1
55b3120cfdf99b6ef6263a71,1xr498s82g,Nick_Dissertation_EX1,1,170,2020-06-02T09:26:58-07:00,3.2770328521729,1,versionA_stim.csv,READVersionA.csv,"Read Version A","Dissertation, read only version A",BABY,CHILD,Study1,S,64,53,Test,User,-,,Recall,Recall1,2866,bottle,18.181818181818,2092,2712,0,0,,1
55b3120cfdf99b6ef6263a71,1xr498s82g,Nick_Dissertation_EX1,1,171,2020-06-02T09:27:02-07:00,4.4526941776276,1,versionA_stim.csv,READVersionA.csv,"Read Version A","Dissertation, read only version A",MACHINE,POSITION,Study1,U,76,58,Test,User,-,,Recall,Recall1,3972,,0,-1,-1,0,0,,1
55b3120cfdf99b6ef6263a71,1xr498s82g,Nick_Dissertation_EX1,1,172,2020-06-02T09:27:05-07:00,3.3897788524628,1,versionA_stim.csv,READVersionA.csv,"Read Version A","Dissertation, read only version A",SWAN,BIRD,Study1,F,14,42,Test,User,-,,Recall,Recall1,2990,bird,100,1497,2585,1,1,,1
55b3120cfdf99b6ef6263a71,1xr498s82g,Nick_Dissertation_EX1,1,173,2020-06-02T09:27:10-07:00,4.8068001270294,1,versionA_stim.csv,READVersionA.csv,"Read Version A","Dissertation, read only version A",GREAT,FANTASTIC,Study1,B,35,78,Test,User,-,,Recall,Recall1,4398,job,0,3730,4101,0,0,,1
55b3120cfdf99b6ef6263a71,1xr498s82g,Nick_Dissertation_EX1,1,174,2020-06-02T09:27:16-07:00,5.752947807312,1,versionA_stim.csv,READVersionA.csv,"Read Version A","Dissertation, read only version A",GRILL,BAR,Study1,S,52,56,Test,User,-,,Recall,Recall1,5355,meat,28.571428571429,4745,5169,0,0,,1
55b3120cfdf99b6ef6263a71,1xr498s82g,Nick_Dissertation_EX1,1,175,2020-06-02T09:33:26-07:00,370.26824712753,1,versionA_stim.csv,READVersionA.csv,"Read Version A","Dissertation, read only version A",,,,,,0,Instruct,-,10,"You will now be presented with a new set of word pairs. Please study each pair. Remember that your memory will be tested! When finished, press Enter to move to the next pair.",Initial_Instruct,Instruct4,369859,,,-1,-1,,,,1
55b3120cfdf99b6ef6263a71,1xr498s82g,Nick_Dissertation_EX1,1,176,2020-06-02T09:33:31-07:00,4.3554849624634,1,versionA_stim.csv,READVersionA.csv,"Read Version A","Dissertation, read only version A",NOODLE,STRING,BUFFER3,Buffer,92,96,Study,User,-,,Study/JOL,BUFFER3,3914,,,-1,-1,,,,1
55b3120cfdf99b6ef6263a71,1xr498s82g,Nick_Dissertation_EX1,1,177,2020-06-02T09:33:33-07:00,2.6444411277771,1,versionA_stim.csv,READVersionA.csv,"Read Version A","Dissertation, read only version A",ICE,FROZEN,BUFFER3,Buffer,94,94,Study,User,-,,Study/JOL,BUFFER3,2189,,,-1,-1,,,,1
55b3120cfdf99b6ef6263a71,1xr498s82g,Nick_Dissertation_EX1,1,178,2020-06-02T09:33:36-07:00,2.8416109085083,1,versionA_stim.csv,READVersionA.csv,"Read Version A","Dissertation, read only version A",SHRIMP,FISH,BUFFER3,Buffer,93,95,Study,User,-,,Study/JOL,BUFFER3,2319,,,-1,-1,,,,1
55b3120cfdf99b6ef6263a71,1xr498s82g,Nick_Dissertation_EX1,1,179,2020-06-02T09:33:39-07:00,3.3572099208832,1,versionA_stim.csv,READVersionA.csv,"Read Version A","Dissertation, read only version A",CARROT,POTATO,BUFFER3,Buffer,91,93,Study,User,-,,Study/JOL,BUFFER3,1926,,,-1,-1,,,,1
55b3120cfdf99b6ef6263a71,1xr498s82g,Nick_Dissertation_EX1,1,180,2020-06-02T09:33:42-07:00,2.6897599697113,1,versionA_stim.csv,READVersionA.csv,"Read Version A","Dissertation, read only version A",CAMP,ADVENTURE,BUFFER3,Buffer,95,92,Study,User,-,,Study/JOL,BUFFER3,2228,,,-1,-1,,,,1
55b3120cfdf99b6ef6263a71,1xr498s82g,Nick_Dissertation_EX1,1,181,2020-06-02T09:33:44-07:00,2.1407811641693,1,versionA_stim.csv,READVersionA.csv,"Read Version A","Dissertation, read only version A",ELEMENT,CARBON,Study2,S,141,162,Study,User,-,,Study/JOL,"Study Phase2",1783,,,-1,-1,,,,1
55b3120cfdf99b6ef6263a71,1xr498s82g,Nick_Dissertation_EX1,1,182,2020-06-02T09:33:47-07:00,2.2725069522858,1,versionA_stim.csv,READVersionA.csv,"Read Version A","Dissertation, read only version A",CAKE,CLOTHES,Study2,U,166,102,Study,User,-,,Study/JOL,"Study Phase2",1757,,,-1,-1,,,,1
55b3120cfdf99b6ef6263a71,1xr498s82g,Nick_Dissertation_EX1,1,183,2020-06-02T09:33:49-07:00,2.274600982666,1,versionA_stim.csv,READVersionA.csv,"Read Version A","Dissertation, read only version A",LOAN,SIGN,Study2,U,171,169,Study,User,-,,Study/JOL,"Study Phase2",1864,,,-1,-1,,,,1
55b3120cfdf99b6ef6263a71,1xr498s82g,Nick_Dissertation_EX1,1,184,2020-06-02T09:33:53-07:00,3.7209289073944,1,versionA_stim.csv,READVersionA.csv,"Read Version A","Dissertation, read only version A",TURN,FLIP,Study2,B,116,113,Study,User,-,,Study/JOL,"Study Phase2",2672,,,-1,-1,,,,1
55b3120cfdf99b6ef6263a71,1xr498s82g,Nick_Dissertation_EX1,1,185,2020-06-02T09:33:56-07:00,3.9000191688538,1,versionA_stim.csv,READVersionA.csv,"Read Version A","Dissertation, read only version A",JUSTICE,MAROON,Study2,U,156,119,Study,User,-,,Study/JOL,"Study Phase2",3533,,,-1,-1,,,,1
55b3120cfdf99b6ef6263a71,1xr498s82g,Nick_Dissertation_EX1,1,186,2020-06-02T09:34:00-07:00,3.0620179176331,1,versionA_stim.csv,READVersionA.csv,"Read Version A","Dissertation, read only version A",SHEARS,SCISSORS,Study2,F,112,140,Study,User,-,,Study/JOL,"Study Phase2",2127,,,-1,-1,,,,1
55b3120cfdf99b6ef6263a71,1xr498s82g,Nick_Dissertation_EX1,1,187,2020-06-02T09:34:01-07:00,1.7823030948639,1,versionA_stim.csv,READVersionA.csv,"Read Version A","Dissertation, read only version A",FRUIT,STRAWBERRY,Study2,B,124,170,Study,User,-,,Study/JOL,"Study Phase2",1370,,,-1,-1,,,,1
55b3120cfdf99b6ef6263a71,1xr498s82g,Nick_Dissertation_EX1,1,188,2020-06-02T09:34:04-07:00,2.5733098983765,1,versionA_stim.csv,READVersionA.csv,"Read Version A","Dissertation, read only version A",BIRD,PENGUIN,Study2,B,119,176,Study,User,-,,Study/JOL,"Study Phase2",2167,,,-1,-1,,,,1
55b3120cfdf99b6ef6263a71,1xr498s82g,Nick_Dissertation_EX1,1,189,2020-06-02T09:34:06-07:00,2.0233581066132,1,versionA_stim.csv,READVersionA.csv,"Read Version A","Dissertation, read only version A",GLASS,BREAKABLE,Study2,B,127,166,Study,User,-,,Study/JOL,"Study Phase2",1615,,,-1,-1,,,,1
55b3120cfdf99b6ef6263a71,1xr498s82g,Nick_Dissertation_EX1,1,190,2020-06-02T09:34:08-07:00,2.3192689418793,1,versionA_stim.csv,READVersionA.csv,"Read Version A","Dissertation, read only version A",GIVE,STEAK,Study2,U,158,134,Study,User,-,,Study/JOL,"Study Phase2",1926,,,-1,-1,,,,1
55b3120cfdf99b6ef6263a71,1xr498s82g,Nick_Dissertation_EX1,1,191,2020-06-02T09:34:10-07:00,1.9300339221954,1,versionA_stim.csv,READVersionA.csv,"Read Version A","Dissertation, read only version A",FEUD,FIGHT,Study2,F,113,139,Study,User,-,,Study/JOL,"Study Phase2",1535,,,-1,-1,,,,1
55b3120cfdf99b6ef6263a71,1xr498s82g,Nick_Dissertation_EX1,1,192,2020-06-02T09:34:12-07:00,1.8195440769196,1,versionA_stim.csv,READVersionA.csv,"Read Version A","Dissertation, read only version A",ROD,REEL,Study2,S,150,137,Study,User,-,,Study/JOL,"Study Phase2",1437,,,-1,-1,,,,1
55b3120cfdf99b6ef6263a71,1xr498s82g,Nick_Dissertation_EX1,1,193,2020-06-02T09:34:14-07:00,2.1547949314117,1,versionA_stim.csv,READVersionA.csv,"Read Version A","Dissertation, read only version A",MAIN,SCAR,Study2,U,175,151,Study,User,-,,Study/JOL,"Study Phase2",1793,,,-1,-1,,,,1
55b3120cfdf99b6ef6263a71,1xr498s82g,Nick_Dissertation_EX1,1,194,2020-06-02T09:34:17-07:00,2.8338599205017,1,versionA_stim.csv,READVersionA.csv,"Read Version A","Dissertation, read only version A",WRIST,BRACELET,Study2,S,140,158,Study,User,-,,Study/JOL,"Study Phase2",1493,,,-1,-1,,,,1
55b3120cfdf99b6ef6263a71,1xr498s82g,Nick_Dissertation_EX1,1,195,2020-06-02T09:34:19-07:00,2.4595191478729,1,versionA_stim.csv,READVersionA.csv,"Read Version A","Dissertation, read only version A",STAR,ACTRESS,Study2,B,120,117,Study,User,-,,Study/JOL,"Study Phase2",2046,,,-1,-1,,,,1
55b3120cfdf99b6ef6263a71,1xr498s82g,Nick_Dissertation_EX1,1,196,2020-06-02T09:34:22-07:00,2.9271578788757,1,versionA_stim.csv,READVersionA.csv,"Read Version A","Dissertation, read only version A",SAFETY,SEATBELT,Study2,S,147,118,Study,User,-,,Study/JOL,"Study Phase2",2472,,,-1,-1,,,,1
55b3120cfdf99b6ef6263a71,1xr498s82g,Nick_Dissertation_EX1,1,197,2020-06-02T09:34:25-07:00,2.3064150810242,1,versionA_stim.csv,READVersionA.csv,"Read Version A","Dissertation, read only version A",CANDLE,WAX,Study2,S,139,104,Study,User,-,,Study/JOL,"Study Phase2",1916,,,-1,-1,,,,1
55b3120cfdf99b6ef6263a71,1xr498s82g,Nick_Dissertation_EX1,1,198,2020-06-02T09:34:27-07:00,2.5238358974457,1,versionA_stim.csv,READVersionA.csv,"Read Version A","Dissertation, read only version A",CACTUS,PLANT,Study2,F,98,159,Study,User,-,,Study/JOL,"Study Phase2",2078,,,-1,-1,,,,1
55b3120cfdf99b6ef6263a71,1xr498s82g,Nick_Dissertation_EX1,1,199,2020-06-02T09:34:30-07:00,2.5641710758209,1,versionA_stim.csv,READVersionA.csv,"Read Version A","Dissertation, read only version A",FUZZY,BANG,Study2,U,168,101,Study,User,-,,Study/JOL,"Study Phase2",1878,,,-1,-1,,,,1
55b3120cfdf99b6ef6263a71,1xr498s82g,Nick_Dissertation_EX1,1,200,2020-06-02T09:34:32-07:00,1.8306069374084,1,versionA_stim.csv,READVersionA.csv,"Read Version A","Dissertation, read only version A",GONE,AWAY,Study2,S,142,160,Study,User,-,,Study/JOL,"Study Phase2",1435,,,-1,-1,,,,1
55b3120cfdf99b6ef6263a71,1xr498s82g,Nick_Dissertation_EX1,1,201,2020-06-02T09:34:34-07:00,2.4221060276031,1,versionA_stim.csv,READVersionA.csv,"Read Version A","Dissertation, read only version A",TRUTH,LIE,Study2,S,148,164,Study,User,-,,Study/JOL,"Study Phase2",1992,,,-1,-1,,,,1
55b3120cfdf99b6ef6263a71,1xr498s82g,Nick_Dissertation_EX1,1,202,2020-06-02T09:34:37-07:00,2.5680930614471,1,versionA_stim.csv,READVersionA.csv,"Read Version A","Dissertation, read only version A",RAZOR,SHAVE,Study2,S,136,135,Study,User,-,,Study/JOL,"Study Phase2",2143,,,-1,-1,,,,1
55b3120cfdf99b6ef6263a71,1xr498s82g,Nick_Dissertation_EX1,1,203,2020-06-02T09:34:42-07:00,5.1180191040039,1,versionA_stim.csv,READVersionA.csv,"Read Version A","Dissertation, read only version A",SCALP,HEAD,Study2,F,105,103,Study,User,-,,Study/JOL,"Study Phase2",4238,,,-1,-1,,,,1
55b3120cfdf99b6ef6263a71,1xr498s82g,Nick_Dissertation_EX1,1,204,2020-06-02T09:34:44-07:00,2.3321838378906,1,versionA_stim.csv,READVersionA.csv,"Read Version A","Dissertation, read only version A",MONEY,BANKER,Study2,B,132,108,Study,User,-,,Study/JOL,"Study Phase2",1931,,,-1,-1,,,,1
55b3120cfdf99b6ef6263a71,1xr498s82g,Nick_Dissertation_EX1,1,205,2020-06-02T09:34:46-07:00,1.7466380596161,1,versionA_stim.csv,READVersionA.csv,"Read Version A","Dissertation, read only version A",DRY,WET,Study2,S,146,148,Study,User,-,,Study/JOL,"Study Phase2",1381,,,-1,-1,,,,1
55b3120cfdf99b6ef6263a71,1xr498s82g,Nick_Dissertation_EX1,1,206,2020-06-02T09:34:50-07:00,3.8942680358887,1,versionA_stim.csv,READVersionA.csv,"Read Version A","Dissertation, read only version A",THREAD,THIMBLE,Study2,B,121,128,Study,User,-,,Study/JOL,"Study Phase2",3482,,,-1,-1,,,,1
55b3120cfdf99b6ef6263a71,1xr498s82g,Nick_Dissertation_EX1,1,207,2020-06-02T09:34:51-07:00,1.8198330402374,1,versionA_stim.csv,READVersionA.csv,"Read Version A","Dissertation, read only version A",BAD,VILLAIN,Study2,B,118,106,Study,User,-,,Study/JOL,"Study Phase2",1499,,,-1,-1,,,,1
55b3120cfdf99b6ef6263a71,1xr498s82g,Nick_Dissertation_EX1,1,208,2020-06-02T09:34:54-07:00,2.7544648647308,1,versionA_stim.csv,READVersionA.csv,"Read Version A","Dissertation, read only version A",DETECTIVE,MYSTERY,Study2,F,100,175,Study,User,-,,Study/JOL,"Study Phase2",2350,,,-1,-1,,,,1
55b3120cfdf99b6ef6263a71,1xr498s82g,Nick_Dissertation_EX1,1,209,2020-06-02T09:34:58-07:00,3.2821481227875,1,versionA_stim.csv,READVersionA.csv,"Read Version A","Dissertation, read only version A",MEAT,OBTAIN,Study2,U,161,115,Study,User,-,,Study/JOL,"Study Phase2",2834,,,-1,-1,,,,1
55b3120cfdf99b6ef6263a71,1xr498s82g,Nick_Dissertation_EX1,1,210,2020-06-02T09:34:59-07:00,1.8104610443115,1,versionA_stim.csv,READVersionA.csv,"Read Version A","Dissertation, read only version A",MASON,JAR,Study2,S,138,99,Study,User,-,,Study/JOL,"Study Phase2",1382,,,-1,-1,,,,1
55b3120cfdf99b6ef6263a71,1xr498s82g,Nick_Dissertation_EX1,1,211,2020-06-02T09:35:01-07:00,1.8542408943176,1,versionA_stim.csv,READVersionA.csv,"Read Version A","Dissertation, read only version A",CHOP,CUT,Study2,F,107,147,Study,User,-,,Study/JOL,"Study Phase2",1503,,,-1,-1,,,,1
55b3120cfdf99b6ef6263a71,1xr498s82g,Nick_Dissertation_EX1,1,212,2020-06-02T09:35:03-07:00,1.7415180206299,1,versionA_stim.csv,READVersionA.csv,"Read Version A","Dissertation, read only version A",VEHICLE,CHARM,Study2,U,160,133,Study,User,-,,Study/JOL,"Study Phase2",1389,,,-1,-1,,,,1
55b3120cfdf99b6ef6263a71,1xr498s82g,Nick_Dissertation_EX1,1,213,2020-06-02T09:35:05-07:00,2.0474538803101,1,versionA_stim.csv,READVersionA.csv,"Read Version A","Dissertation, read only version A",CHERRY,RED,Study2,F,104,163,Study,User,-,,Study/JOL,"Study Phase2",1660,,,-1,-1,,,,1
55b3120cfdf99b6ef6263a71,1xr498s82g,Nick_Dissertation_EX1,1,214,2020-06-02T09:35:07-07:00,1.6920621395111,1,versionA_stim.csv,READVersionA.csv,"Read Version A","Dissertation, read only version A",AFFECTION,LOVE,Study2,F,115,122,Study,User,-,,Study/JOL,"Study Phase2",1369,,,-1,-1,,,,1
55b3120cfdf99b6ef6263a71,1xr498s82g,Nick_Dissertation_EX1,1,215,2020-06-02T09:35:09-07:00,2.2885088920593,1,versionA_stim.csv,READVersionA.csv,"Read Version A","Dissertation, read only version A",CHILL,COLD,Study2,F,114,161,Study,User,-,,Study/JOL,"Study Phase2",1808,,,-1,-1,,,,1
55b3120cfdf99b6ef6263a71,1xr498s82g,Nick_Dissertation_EX1,1,216,2020-06-02T09:35:10-07:00,1.3609411716461,1,versionA_stim.csv,READVersionA.csv,"Read Version A","Dissertation, read only version A",CAR,WINDSHIELD,Study2,B,117,167,Study,User,-,,Study/JOL,"Study Phase2",1010,,,-1,-1,,,,1
55b3120cfdf99b6ef6263a71,1xr498s82g,Nick_Dissertation_EX1,1,217,2020-06-02T09:35:13-07:00,2.7753529548645,1,versionA_stim.csv,READVersionA.csv,"Read Version A","Dissertation, read only version A",PHONE,COMMUNICATION,Study2,S,149,129,Study,User,-,,Study/JOL,"Study Phase2",2348,,,-1,-1,,,,1
55b3120cfdf99b6ef6263a71,1xr498s82g,Nick_Dissertation_EX1,1,218,2020-06-02T09:35:16-07:00,2.9938600063324,1,versionA_stim.csv,READVersionA.csv,"Read Version A","Dissertation, read only version A",POP,BALLOON,Study2,B,123,98,Study,User,-,,Study/JOL,"Study Phase2",2414,,,-1,-1,,,,1
55b3120cfdf99b6ef6263a71,1xr498s82g,Nick_Dissertation_EX1,1,219,2020-06-02T09:35:19-07:00,2.6714668273926,1,versionA_stim.csv,READVersionA.csv,"Read Version A","Dissertation, read only version A",CLUE,GAME,Study2,F,97,154,Study,User,-,,Study/JOL,"Study Phase2",2226,,,-1,-1,,,,1
55b3120cfdf99b6ef6263a71,1xr498s82g,Nick_Dissertation_EX1,1,220,2020-06-02T09:35:21-07:00,2.1042490005493,1,versionA_stim.csv,READVersionA.csv,"Read Version A","Dissertation, read only version A",LEASE,TOIL,Study2,U,170,132,Study,User,-,,Study/JOL,"Study Phase2",1787,,,-1,-1,,,,1
55b3120cfdf99b6ef6263a71,1xr498s82g,Nick_Dissertation_EX1,1,221,2020-06-02T09:35:24-07:00,3.2124650478363,1,versionA_stim.csv,READVersionA.csv,"Read Version A","Dissertation, read only version A",OWN,HAVE,Study2,S,153,155,Study,User,-,,Study/JOL,"Study Phase2",2445,,,-1,-1,,,,1
55b3120cfdf99b6ef6263a71,1xr498s82g,Nick_Dissertation_EX1,1,222,2020-06-02T09:35:26-07:00,2.03360414505,1,versionA_stim.csv,READVersionA.csv,"Read Version A","Dissertation, read only version A",SUN,TAN,Study2,S,155,138,Study,User,-,,Study/JOL,"Study Phase2",1692,,,-1,-1,,,,1
55b3120cfdf99b6ef6263a71,1xr498s82g,Nick_Dissertation_EX1,1,223,2020-06-02T09:35:28-07:00,2.0578138828278,1,versionA_stim.csv,READVersionA.csv,"Read Version A","Dissertation, read only version A",DOCUMENT,PAPER,Study2,F,109,144,Study,User,-,,Study/JOL,"Study Phase2",1712,,,-1,-1,,,,1
55b3120cfdf99b6ef6263a71,1xr498s82g,Nick_Dissertation_EX1,1,224,2020-06-02T09:35:31-07:00,3.1213910579681,1,versionA_stim.csv,READVersionA.csv,"Read Version A","Dissertation, read only version A",BASEBALL,LEAGUE,Study2,B,131,131,Study,User,-,,Study/JOL,"Study Phase2",2614,,,-1,-1,,,,1
55b3120cfdf99b6ef6263a71,1xr498s82g,Nick_Dissertation_EX1,1,225,2020-06-02T09:35:33-07:00,1.637130022049,1,versionA_stim.csv,READVersionA.csv,"Read Version A","Dissertation, read only version A",LISTEN,FICTION,Study2,U,164,157,Study,User,-,,Study/JOL,"Study Phase2",1301,,,-1,-1,,,,1
55b3120cfdf99b6ef6263a71,1xr498s82g,Nick_Dissertation_EX1,1,226,2020-06-02T09:35:35-07:00,2.0915219783783,1,versionA_stim.csv,READVersionA.csv,"Read Version A","Dissertation, read only version A",PLANE,AIRCRAFT,Study2,B,129,174,Study,User,-,,Study/JOL,"Study Phase2",1750,,,-1,-1,,,,1
55b3120cfdf99b6ef6263a71,1xr498s82g,Nick_Dissertation_EX1,1,227,2020-06-02T09:35:37-07:00,2.2840709686279,1,versionA_stim.csv,READVersionA.csv,"Read Version A","Dissertation, read only version A",CRACKLE,ABLE,Study2,U,162,149,Study,User,-,,Study/JOL,"Study Phase2",1880,,,-1,-1,,,,1
55b3120cfdf99b6ef6263a71,1xr498s82g,Nick_Dissertation_EX1,1,228,2020-06-02T09:35:39-07:00,1.4650480747223,1,versionA_stim.csv,READVersionA.csv,"Read Version A","Dissertation, read only version A",EVEN,REVENGE,Study2,B,122,171,Study,User,-,,Study/JOL,"Study Phase2",1114,,,-1,-1,,,,1
55b3120cfdf99b6ef6263a71,1xr498s82g,Nick_Dissertation_EX1,1,229,2020-06-02T09:35:43-07:00,4.6481149196625,1,versionA_stim.csv,READVersionA.csv,"Read Version A","Dissertation, read only version A",KEYS,JOKE,Study2,U,165,141,Study,User,-,,Study/JOL,"Study Phase2",4182,,,-1,-1,,,,1
55b3120cfdf99b6ef6263a71,1xr498s82g,Nick_Dissertation_EX1,1,230,2020-06-02T09:35:46-07:00,2.458587884903,1,versionA_stim.csv,READVersionA.csv,"Read Version A","Dissertation, read only version A",DINE,EAT,Study2,F,111,127,Study,User,-,,Study/JOL,"Study Phase2",1985,,,-1,-1,,,,1
55b3120cfdf99b6ef6263a71,1xr498s82g,Nick_Dissertation_EX1,1,231,2020-06-02T09:35:47-07:00,1.5555171966553,1,versionA_stim.csv,READVersionA.csv,"Read Version A","Dissertation, read only version A",FURRY,DOG,Study2,F,102,156,Study,User,-,,Study/JOL,"Study Phase2",1182,,,-1,-1,,,,1
55b3120cfdf99b6ef6263a71,1xr498s82g,Nick_Dissertation_EX1,1,232,2020-06-02T09:35:50-07:00,2.3876478672028,1,versionA_stim.csv,READVersionA.csv,"Read Version A","Dissertation, read only version A",STRETCH,CLOTH,Study2,U,157,125,Study,User,-,,Study/JOL,"Study Phase2",1972,,,-1,-1,,,,1
55b3120cfdf99b6ef6263a71,1xr498s82g,Nick_Dissertation_EX1,1,233,2020-06-02T09:35:52-07:00,1.7817289829254,1,versionA_stim.csv,READVersionA.csv,"Read Version A","Dissertation, read only version A",MULE,DONKEY,Study2,F,108,168,Study,User,-,,Study/JOL,"Study Phase2",1444,,,-1,-1,,,,1
55b3120cfdf99b6ef6263a71,1xr498s82g,Nick_Dissertation_EX1,1,234,2020-06-02T09:35:54-07:00,2.4244070053101,1,versionA_stim.csv,READVersionA.csv,"Read Version A","Dissertation, read only version A",MIRROR,CHILDREN,Study2,U,174,116,Study,User,-,,Study/JOL,"Study Phase2",2004,,,-1,-1,,,,1
55b3120cfdf99b6ef6263a71,1xr498s82g,Nick_Dissertation_EX1,1,235,2020-06-02T09:35:56-07:00,2.1263670921326,1,versionA_stim.csv,READVersionA.csv,"Read Version A","Dissertation, read only version A",LITTER,TRASH,Study2,F,103,105,Study,User,-,,Study/JOL,"Study Phase2",727,,,-1,-1,,,,1
55b3120cfdf99b6ef6263a71,1xr498s82g,Nick_Dissertation_EX1,1,236,2020-06-02T09:35:59-07:00,2.6899988651276,1,versionA_stim.csv,READVersionA.csv,"Read Version A","Dissertation, read only version A",BOTH,OUNCE,Study2,U,172,143,Study,User,-,,Study/JOL,"Study Phase2",2253,,,-1,-1,,,,1
55b3120cfdf99b6ef6263a71,1xr498s82g,Nick_Dissertation_EX1,1,237,2020-06-02T09:36:01-07:00,1.7918210029602,1,versionA_stim.csv,READVersionA.csv,"Read Version A","Dissertation, read only version A",HONEST,TRUTHFUL,Study2,B,133,112,Study,User,-,,Study/JOL,"Study Phase2",1431,,,-1,-1,,,,1
55b3120cfdf99b6ef6263a71,1xr498s82g,Nick_Dissertation_EX1,1,238,2020-06-02T09:36:03-07:00,2.8416450023651,1,versionA_stim.csv,READVersionA.csv,"Read Version A","Dissertation, read only version A",SLEEP,NAP,Study2,B,134,111,Study,User,-,,Study/JOL,"Study Phase2",2422,,,-1,-1,,,,1
55b3120cfdf99b6ef6263a71,1xr498s82g,Nick_Dissertation_EX1,1,239,2020-06-02T09:36:05-07:00,1.9723291397095,1,versionA_stim.csv,READVersionA.csv,"Read Version A","Dissertation, read only version A",INCENSE,SMELL,Study2,F,110,150,Study,User,-,,Study/JOL,"Study Phase2",1615,,,-1,-1,,,,1
55b3120cfdf99b6ef6263a71,1xr498s82g,Nick_Dissertation_EX1,1,240,2020-06-02T09:36:08-07:00,2.750100851059,1,versionA_stim.csv,READVersionA.csv,"Read Version A","Dissertation, read only version A",ALONE,LONELY,Study2,S,145,152,Study,User,-,,Study/JOL,"Study Phase2",2323,,,-1,-1,,,,1
55b3120cfdf99b6ef6263a71,1xr498s82g,Nick_Dissertation_EX1,1,241,2020-06-02T09:36:10-07:00,1.7327511310577,1,versionA_stim.csv,READVersionA.csv,"Read Version A","Dissertation, read only version A",DEAD,COFFIN,Study2,B,128,172,Study,User,-,,Study/JOL,"Study Phase2",1346,,,-1,-1,,,,1
55b3120cfdf99b6ef6263a71,1xr498s82g,Nick_Dissertation_EX1,1,242,2020-06-02T09:36:12-07:00,2.1034650802612,1,versionA_stim.csv,READVersionA.csv,"Read Version A","Dissertation, read only version A",CAT,PANTHER,Study2,B,126,110,Study,User,-,,Study/JOL,"Study Phase2",1730,,,-1,-1,,,,1
55b3120cfdf99b6ef6263a71,1xr498s82g,Nick_Dissertation_EX1,1,243,2020-06-02T09:36:15-07:00,2.916562795639,1,versionA_stim.csv,READVersionA.csv,"Read Version A","Dissertation, read only version A",LOUD,NOISE,Study2,S,152,114,Study,User,-,,Study/JOL,"Study Phase2",1545,,,-1,-1,,,,1
55b3120cfdf99b6ef6263a71,1xr498s82g,Nick_Dissertation_EX1,1,244,2020-06-02T09:36:20-07:00,4.9985911846161,1,versionA_stim.csv,READVersionA.csv,"Read Version A","Dissertation, read only version A",TEMPERATURE,Morning,Study2,U,173,165,Study,User,-,,Study/JOL,"Study Phase2",3565,,,-1,-1,,,,1
55b3120cfdf99b6ef6263a71,1xr498s82g,Nick_Dissertation_EX1,1,245,2020-06-02T09:36:22-07:00,2.1476318836212,1,versionA_stim.csv,READVersionA.csv,"Read Version A","Dissertation, read only version A",EARTH,GROUND,Study2,S,144,153,Study,User,-,,Study/JOL,"Study Phase2",799,,,-1,-1,,,,1
55b3120cfdf99b6ef6263a71,1xr498s82g,Nick_Dissertation_EX1,1,246,2020-06-02T09:36:23-07:00,1.1656370162964,1,versionA_stim.csv,READVersionA.csv,"Read Version A","Dissertation, read only version A",WATER,DRINK,Study2,S,143,124,Study,User,-,,Study/JOL,"Study Phase2",851,,,-1,-1,,,,1
55b3120cfdf99b6ef6263a71,1xr498s82g,Nick_Dissertation_EX1,1,247,2020-06-02T09:36:25-07:00,1.8750290870667,1,versionA_stim.csv,READVersionA.csv,"Read Version A","Dissertation, read only version A",NAME,HATE,Study2,U,167,145,Study,User,-,,Study/JOL,"Study Phase2",1512,,,-1,-1,,,,1
55b3120cfdf99b6ef6263a71,1xr498s82g,Nick_Dissertation_EX1,1,248,2020-06-02T09:36:28-07:00,3.0269110202789,1,versionA_stim.csv,READVersionA.csv,"Read Version A","Dissertation, read only version A",ADJOURN,END,Study2,F,101,97,Study,User,-,,Study/JOL,"Study Phase2",2563,,,-1,-1,,,,1
55b3120cfdf99b6ef6263a71,1xr498s82g,Nick_Dissertation_EX1,1,249,2020-06-02T09:36:30-07:00,1.6108958721161,1,versionA_stim.csv,READVersionA.csv,"Read Version A","Dissertation, read only version A",MOAT,CLEAR,Study2,U,169,136,Study,User,-,,Study/JOL,"Study Phase2",1266,,,-1,-1,,,,1
55b3120cfdf99b6ef6263a71,1xr498s82g,Nick_Dissertation_EX1,1,250,2020-06-02T09:36:33-07:00,2.8736259937286,1,versionA_stim.csv,READVersionA.csv,"Read Version A","Dissertation, read only version A",FLEA,TICK,Study2,S,151,123,Study,User,-,,Study/JOL,"Study Phase2",2414,,,-1,-1,,,,1
55b3120cfdf99b6ef6263a71,1xr498s82g,Nick_Dissertation_EX1,1,251,2020-06-02T09:36:34-07:00,1.2806961536407,1,versionA_stim.csv,READVersionA.csv,"Read Version A","Dissertation, read only version A",MAZE,ELECTION,Study2,U,159,142,Study,User,-,,Study/JOL,"Study Phase2",927,,,-1,-1,,,,1
55b3120cfdf99b6ef6263a71,1xr498s82g,Nick_Dissertation_EX1,1,252,2020-06-02T09:36:35-07:00,1.3387038707733,1,versionA_stim.csv,READVersionA.csv,"Read Version A","Dissertation, read only version A",BEST,FAVORITE,Study2,B,125,146,Study,User,-,,Study/JOL,"Study Phase2",954,,,-1,-1,,,,1
55b3120cfdf99b6ef6263a71,1xr498s82g,Nick_Dissertation_EX1,1,253,2020-06-02T09:36:42-07:00,6.8880739212036,1,versionA_stim.csv,READVersionA.csv,"Read Version A","Dissertation, read only version A",FISH,SARDINE,Study2,B,130,130,Study,User,-,,Study/JOL,"Study Phase2",5526,,,-1,-1,,,,1
55b3120cfdf99b6ef6263a71,1xr498s82g,Nick_Dissertation_EX1,1,254,2020-06-02T09:36:46-07:00,3.6337571144104,1,versionA_stim.csv,READVersionA.csv,"Read Version A","Dissertation, read only version A",TANTRUM,TEMPER,Study2,S,154,173,Study,User,-,,Study/JOL,"Study Phase2",3203,,,-1,-1,,,,1
55b3120cfdf99b6ef6263a71,1xr498s82g,Nick_Dissertation_EX1,1,255,2020-06-02T09:36:48-07:00,2.5687439441681,1,versionA_stim.csv,READVersionA.csv,"Read Version A","Dissertation, read only version A",SHOELACE,TIE,Study2,F,99,107,Study,User,-,,Study/JOL,"Study Phase2",2087,,,-1,-1,,,,1
55b3120cfdf99b6ef6263a71,1xr498s82g,Nick_Dissertation_EX1,1,256,2020-06-02T09:36:51-07:00,2.4812710285187,1,versionA_stim.csv,READVersionA.csv,"Read Version A","Dissertation, read only version A",DRIVER,CAR,Study2,F,106,120,Study,User,-,,Study/JOL,"Study Phase2",2062,,,-1,-1,,,,1
55b3120cfdf99b6ef6263a71,1xr498s82g,Nick_Dissertation_EX1,1,257,2020-06-02T09:36:53-07:00,2.0306639671326,1,versionA_stim.csv,READVersionA.csv,"Read Version A","Dissertation, read only version A",RIGHTS,EQUAL,Study2,S,137,109,Study,User,-,,Study/JOL,"Study Phase2",1595,,,-1,-1,,,,1
55b3120cfdf99b6ef6263a71,1xr498s82g,Nick_Dissertation_EX1,1,258,2020-06-02T09:36:55-07:00,1.9595999717712,1,versionA_stim.csv,READVersionA.csv,"Read Version A","Dissertation, read only version A",FIGHT,BRAWL,Study2,B,135,100,Study,User,-,,Study/JOL,"Study Phase2",1574,,,-1,-1,,,,1
55b3120cfdf99b6ef6263a71,1xr498s82g,Nick_Dissertation_EX1,1,259,2020-06-02T09:36:59-07:00,3.6928660869598,1,versionA_stim.csv,READVersionA.csv,"Read Version A","Dissertation, read only version A",Shell,SHAKE,Study2,U,163,121,Study,User,-,,Study/JOL,"Study Phase2",3278,,,-1,-1,,,,1
55b3120cfdf99b6ef6263a71,1xr498s82g,Nick_Dissertation_EX1,1,260,2020-06-02T09:37:01-07:00,2.0402140617371,1,versionA_stim.csv,READVersionA.csv,"Read Version A","Dissertation, read only version A",EXTENSION,LONG,Study2,F,96,126,Study,User,-,,Study/JOL,"Study Phase2",1682,,,-1,-1,,,,1
55b3120cfdf99b6ef6263a71,1xr498s82g,Nick_Dissertation_EX1,1,261,2020-06-02T09:37:04-07:00,3.1403229236603,1,versionA_stim.csv,READVersionA.csv,"Read Version A","Dissertation, read only version A",SPRING,MARCH,BUFFER4,Buffer,179,181,Study,User,-,,Study/JOL,BUFFER4,2743,,,-1,-1,,,,1
55b3120cfdf99b6ef6263a71,1xr498s82g,Nick_Dissertation_EX1,1,262,2020-06-02T09:37:05-07:00,1.3444828987122,1,versionA_stim.csv,READVersionA.csv,"Read Version A","Dissertation, read only version A",DAYS,WEAKS,BUFFER4,Buffer,176,179,Study,User,-,,Study/JOL,BUFFER4,906,,,-1,-1,,,,1
55b3120cfdf99b6ef6263a71,1xr498s82g,Nick_Dissertation_EX1,1,263,2020-06-02T09:37:10-07:00,4.915295124054,1,versionA_stim.csv,READVersionA.csv,"Read Version A","Dissertation, read only version A",OCTOBER,SPOOKY,BUFFER4,Buffer,180,177,Study,User,-,,Study/JOL,BUFFER4,4322,,,-1,-1,,,,1
55b3120cfdf99b6ef6263a71,1xr498s82g,Nick_Dissertation_EX1,1,264,2020-06-02T09:37:11-07:00,1.5313608646393,1,versionA_stim.csv,READVersionA.csv,"Read Version A","Dissertation, read only version A",TOOL,SHED,BUFFER4,Buffer,178,180,Study,User,-,,Study/JOL,BUFFER4,1161,,,-1,-1,,,,1
55b3120cfdf99b6ef6263a71,1xr498s82g,Nick_Dissertation_EX1,1,265,2020-06-02T09:37:13-07:00,1.4762492179871,1,versionA_stim.csv,READVersionA.csv,"Read Version A","Dissertation, read only version A",MONTH,YEAR,BUFFER4,Buffer,177,178,Study,User,-,,Study/JOL,BUFFER4,1143,,,-1,-1,,,,1
55b3120cfdf99b6ef6263a71,1xr498s82g,Nick_Dissertation_EX1,1,266,2020-06-02T09:37:15-07:00,1.9068899154663,1,versionA_stim.csv,READVersionA.csv,"Read Version A","Dissertation, read only version A",,,,,,0,Instruct,User,-,"You have completed this section. Please press Enter.",Filler_Instruction,Instruct5,1544,,,-1,-1,,,,1
55b3120cfdf99b6ef6263a71,1xr498s82g,Nick_Dissertation_EX1,1,267,2020-06-02T09:39:15-07:00,120.57640504837,1,versionA_stim.csv,READVersionA.csv,"Read Version A","Dissertation, read only version A",,,,,,0,FreeRecall,120,120,"Please list the 50 US states in reverse alphabetical order (z - a). The task will automatically advance to the next screen after two minutes.",,Filler2,120040,"Wyoming Wisconsin West Virginia Washington Virginia Vermont Utah Texas Tennessee ",0,31949,102089,0,0,,0.913
55b3120cfdf99b6ef6263a71,1xr498s82g,Nick_Dissertation_EX1,1,268,2020-06-02T09:45:00-07:00,344.55957698822,1,versionA_stim.csv,READVersionA.csv,"Read Version A","Dissertation, read only version A",,,,,,0,Instruct,-,10,"You will now be presented with the first word from each of the previously studied item pairs. Please type the missing word. If you do not know the word, you may guess or press Enter to skip forward to the next pair.",,Instruct6,343843,,,-1,-1,,,,0.999
55b3120cfdf99b6ef6263a71,1xr498s82g,Nick_Dissertation_EX1,1,269,2020-06-02T09:45:14-07:00,13.748918056488,1,versionA_stim.csv,READVersionA.csv,"Read Version A","Dissertation, read only version A",SHOELACE,TIE,Study2,F,99,107,Test,User,-,,Recall,Recall2,13333,string,44.444444444444,4592,10059,0,0,,1
55b3120cfdf99b6ef6263a71,1xr498s82g,Nick_Dissertation_EX1,1,270,2020-06-02T09:45:24-07:00,9.9721558094025,1,versionA_stim.csv,READVersionA.csv,"Read Version A","Dissertation, read only version A",JUSTICE,MAROON,Study2,U,156,119,Test,User,-,,Recall,Recall2,9505,trial,18.181818181818,6683,8833,0,0,,1
55b3120cfdf99b6ef6263a71,1xr498s82g,Nick_Dissertation_EX1,1,271,2020-06-02T09:45:28-07:00,4.5509541034698,1,versionA_stim.csv,READVersionA.csv,"Read Version A","Dissertation, read only version A",FISH,SARDINE,Study2,B,130,130,Test,User,-,,Recall,Recall2,4047,sardine,100,2219,3533,1,1,,1
55b3120cfdf99b6ef6263a71,1xr498s82g,Nick_Dissertation_EX1,1,272,2020-06-02T09:45:35-07:00,6.4544038772583,1,versionA_stim.csv,READVersionA.csv,"Read Version A","Dissertation, read only version A",LOAN,SIGN,Study2,U,171,169,Test,User,-,,Recall,Recall2,6012,,0,-1,-1,0,0,,1
55b3120cfdf99b6ef6263a71,1xr498s82g,Nick_Dissertation_EX1,1,273,2020-06-02T09:45:39-07:00,4.1301550865173,1,versionA_stim.csv,READVersionA.csv,"Read Version A","Dissertation, read only version A",KEYS,JOKE,Study2,U,165,141,Test,User,-,,Recall,Recall2,3731,lock,50,2442,3202,0,0,,1
55b3120cfdf99b6ef6263a71,1xr498s82g,Nick_Dissertation_EX1,1,274,2020-06-02T09:45:46-07:00,7.0523810386658,1,versionA_stim.csv,READVersionA.csv,"Read Version A","Dissertation, read only version A",SAFETY,SEATBELT,Study2,S,147,118,Test,User,-,,Recall,Recall2,6652,glass,15.384615384615,5789,6451,0,0,,1
55b3120cfdf99b6ef6263a71,1xr498s82g,Nick_Dissertation_EX1,1,275,2020-06-02T09:45:59-07:00,13.253963947296,1,versionA_stim.csv,READVersionA.csv,"Read Version A","Dissertation, read only version A",DETECTIVE,MYSTERY,Study2,F,100,175,Test,User,-,,Recall,Recall2,12705,,0,-1,-1,0,0,,1
55b3120cfdf99b6ef6263a71,1xr498s82g,Nick_Dissertation_EX1,1,276,2020-06-02T09:46:12-07:00,12.760407924652,1,versionA_stim.csv,READVersionA.csv,"Read Version A","Dissertation, read only version A",CHERRY,RED,Study2,F,104,163,Test,User,-,,Recall,Recall2,12318,tart,28.571428571429,11483,11981,0,0,,1
55b3120cfdf99b6ef6263a71,1xr498s82g,Nick_Dissertation_EX1,1,277,2020-06-02T09:46:23-07:00,11.408370018005,1,versionA_stim.csv,READVersionA.csv,"Read Version A","Dissertation, read only version A",BASEBALL,LEAGUE,Study2,B,131,131,Test,User,-,,Recall,Recall2,10902,catcher,30.769230769231,8468,10659,0,0,,1
55b3120cfdf99b6ef6263a71,1xr498s82g,Nick_Dissertation_EX1,1,278,2020-06-02T09:46:30-07:00,6.1806571483612,1,versionA_stim.csv,READVersionA.csv,"Read Version A","Dissertation, read only version A",CLUE,GAME,Study2,F,97,154,Test,User,-,,Recall,Recall2,5743,,0,-1,-1,0,0,,1
55b3120cfdf99b6ef6263a71,1xr498s82g,Nick_Dissertation_EX1,1,279,2020-06-02T09:46:34-07:00,4.9718010425568,1,versionA_stim.csv,READVersionA.csv,"Read Version A","Dissertation, read only version A",PHONE,COMMUNICATION,Study2,S,149,129,Test,User,-,,Recall,Recall2,4558,number,10.526315789474,3285,4236,0,0,,1
55b3120cfdf99b6ef6263a71,1xr498s82g,Nick_Dissertation_EX1,1,280,2020-06-02T09:46:42-07:00,7.6352019309998,1,versionA_stim.csv,READVersionA.csv,"Read Version A","Dissertation, read only version A",DOCUMENT,PAPER,Study2,F,109,144,Test,User,-,,Recall,Recall2,6191,official,15.384615384615,4613,5853,0,0,,1
55b3120cfdf99b6ef6263a71,1xr498s82g,Nick_Dissertation_EX1,1,281,2020-06-02T09:46:45-07:00,2.9186160564423,1,versionA_stim.csv,READVersionA.csv,"Read Version A","Dissertation, read only version A",INCENSE,SMELL,Study2,F,110,150,Test,User,-,,Recall,Recall2,2326,smell,100,1450,2082,1,1,,1
55b3120cfdf99b6ef6263a71,1xr498s82g,Nick_Dissertation_EX1,1,282,2020-06-02T09:46:47-07:00,2.4196410179138,1,versionA_stim.csv,READVersionA.csv,"Read Version A","Dissertation, read only version A",STRETCH,CLOTH,Study2,U,157,125,Test,User,-,,Recall,Recall2,1974,,0,-1,-1,0,0,,1
55b3120cfdf99b6ef6263a71,1xr498s82g,Nick_Dissertation_EX1,1,283,2020-06-02T09:46:50-07:00,3.0361738204956,1,versionA_stim.csv,READVersionA.csv,"Read Version A","Dissertation, read only version A",CACTUS,PLANT,Study2,F,98,159,Test,User,-,,Recall,Recall2,2635,plant,100,1499,2217,1,1,,1
55b3120cfdf99b6ef6263a71,1xr498s82g,Nick_Dissertation_EX1,1,284,2020-06-02T09:46:56-07:00,5.2237451076508,1,versionA_stim.csv,READVersionA.csv,"Read Version A","Dissertation, read only version A",FURRY,DOG,Study2,F,102,156,Test,User,-,,Recall,Recall2,4768,dog,100,2731,4071,1,1,,1
55b3120cfdf99b6ef6263a71,1xr498s82g,Nick_Dissertation_EX1,1,285,2020-06-02T09:47:01-07:00,4.9364039897919,1,versionA_stim.csv,READVersionA.csv,"Read Version A","Dissertation, read only version A",FUZZY,BANG,Study2,U,168,101,Test,User,-,,Recall,Recall2,4463,warm,25,3755,4214,0,0,,1
55b3120cfdf99b6ef6263a71,1xr498s82g,Nick_Dissertation_EX1,1,286,2020-06-02T09:47:03-07:00,2.4174308776855,1,versionA_stim.csv,READVersionA.csv,"Read Version A","Dissertation, read only version A",CHILL,COLD,Study2,F,114,161,Test,User,-,,Recall,Recall2,1873,cold,100,1169,1634,1,1,,1
55b3120cfdf99b6ef6263a71,1xr498s82g,Nick_Dissertation_EX1,1,287,2020-06-02T09:47:06-07:00,2.6106081008911,1,versionA_stim.csv,READVersionA.csv,"Read Version A","Dissertation, read only version A",AFFECTION,LOVE,Study2,F,115,122,Test,User,-,,Recall,Recall2,2196,love,100,1378,2034,1,1,,1
55b3120cfdf99b6ef6263a71,1xr498s82g,Nick_Dissertation_EX1,1,288,2020-06-02T09:47:08-07:00,1.8691530227661,1,versionA_stim.csv,READVersionA.csv,"Read Version A","Dissertation, read only version A",MAZE,ELECTION,Study2,U,159,142,Test,User,-,,Recall,Recall2,1447,,0,-1,-1,0,0,,1
55b3120cfdf99b6ef6263a71,1xr498s82g,Nick_Dissertation_EX1,1,289,2020-06-02T09:47:19-07:00,11.402091026306,1,versionA_stim.csv,READVersionA.csv,"Read Version A","Dissertation, read only version A",STAR,ACTRESS,Study2,B,120,117,Test,User,-,,Recall,Recall2,10970,planet,30.769230769231,8887,10591,0,0,,1
55b3120cfdf99b6ef6263a71,1xr498s82g,Nick_Dissertation_EX1,1,290,2020-06-02T09:47:23-07:00,3.6962218284607,1,versionA_stim.csv,READVersionA.csv,"Read Version A","Dissertation, read only version A",HONEST,TRUTHFUL,Study2,B,133,112,Test,User,-,,Recall,Recall2,2980,,0,-1,-1,0,0,,1
55b3120cfdf99b6ef6263a71,1xr498s82g,Nick_Dissertation_EX1,1,291,2020-06-02T09:47:25-07:00,2.3410050868988,1,versionA_stim.csv,READVersionA.csv,"Read Version A","Dissertation, read only version A",SCALP,HEAD,Study2,F,105,103,Test,User,-,,Recall,Recall2,1886,head,100,1089,1662,1,1,,1
55b3120cfdf99b6ef6263a71,1xr498s82g,Nick_Dissertation_EX1,1,292,2020-06-02T09:47:32-07:00,7.2514901161194,1,versionA_stim.csv,READVersionA.csv,"Read Version A","Dissertation, read only version A",DRIVER,CAR,Study2,F,106,120,Test,User,-,,Recall,Recall2,6864,,0,-1,-1,0,0,,1
55b3120cfdf99b6ef6263a71,1xr498s82g,Nick_Dissertation_EX1,1,293,2020-06-02T09:47:37-07:00,4.3613028526306,1,versionA_stim.csv,READVersionA.csv,"Read Version A","Dissertation, read only version A",MULE,DONKEY,Study2,F,108,168,Test,User,-,,Recall,Recall2,3940,donkey,100,1359,3655,1,1,,1
55b3120cfdf99b6ef6263a71,1xr498s82g,Nick_Dissertation_EX1,1,294,2020-06-02T09:47:48-07:00,11.819977045059,1,versionA_stim.csv,READVersionA.csv,"Read Version A","Dissertation, read only version A",MEAT,OBTAIN,Study2,U,161,115,Test,User,-,,Recall,Recall2,11377,,0,-1,-1,0,0,,1
55b3120cfdf99b6ef6263a71,1xr498s82g,Nick_Dissertation_EX1,1,295,2020-06-02T09:47:57-07:00,8.3071670532227,1,versionA_stim.csv,READVersionA.csv,"Read Version A","Dissertation, read only version A",SHEARS,SCISSORS,Study2,F,112,140,Test,User,-,,Recall,Recall2,7809,sissors,93.333333333333,1981,7140,0,1,,1
55b3120cfdf99b6ef6263a71,1xr498s82g,Nick_Dissertation_EX1,1,296,2020-06-02T09:48:01-07:00,4.0651750564575,1,versionA_stim.csv,READVersionA.csv,"Read Version A","Dissertation, read only version A",RAZOR,SHAVE,Study2,S,136,135,Test,User,-,,Recall,Recall2,3620,sharp,60,2428,3253,0,0,,1
55b3120cfdf99b6ef6263a71,1xr498s82g,Nick_Dissertation_EX1,1,297,2020-06-02T09:48:04-07:00,3.3320639133453,1,versionA_stim.csv,READVersionA.csv,"Read Version A","Dissertation, read only version A",ALONE,LONELY,Study2,S,145,152,Test,User,-,,Recall,Recall2,2887,lonely,100,1468,2620,1,1,,1
55b3120cfdf99b6ef6263a71,1xr498s82g,Nick_Dissertation_EX1,1,298,2020-06-02T09:48:24-07:00,19.68673992157,1,versionA_stim.csv,READVersionA.csv,"Read Version A","Dissertation, read only version A",CANDLE,WAX,Study2,S,139,104,Test,User,-,,Recall,Recall2,19252,scent,0,2736,17758,0,0,,1
55b3120cfdf99b6ef6263a71,1xr498s82g,Nick_Dissertation_EX1,1,299,2020-06-02T09:48:29-07:00,4.8702380657196,1,versionA_stim.csv,READVersionA.csv,"Read Version A","Dissertation, read only version A",MONEY,BANKER,Study2,B,132,108,Test,User,-,,Recall,Recall2,3918,cash,20,2816,3594,0,0,,1
55b3120cfdf99b6ef6263a71,1xr498s82g,Nick_Dissertation_EX1,1,300,2020-06-02T09:48:32-07:00,2.8703179359436,1,versionA_stim.csv,READVersionA.csv,"Read Version A","Dissertation, read only version A",LITTER,TRASH,Study2,F,103,105,Test,User,-,,Recall,Recall2,2443,trash,100,1080,2197,1,1,,1
55b3120cfdf99b6ef6263a71,1xr498s82g,Nick_Dissertation_EX1,1,301,2020-06-02T09:48:41-07:00,8.9934711456299,1,versionA_stim.csv,READVersionA.csv,"Read Version A","Dissertation, read only version A",CHOP,CUT,Study2,F,107,147,Test,User,-,,Recall,Recall2,8567,sautee,44.444444444444,6671,7732,0,0,,1
55b3120cfdf99b6ef6263a71,1xr498s82g,Nick_Dissertation_EX1,1,302,2020-06-02T09:48:44-07:00,3.3694379329681,1,versionA_stim.csv,READVersionA.csv,"Read Version A","Dissertation, read only version A",MOAT,CLEAR,Study2,U,169,136,Test,User,-,,Recall,Recall2,2968,,0,-1,-1,0,0,,1
55b3120cfdf99b6ef6263a71,1xr498s82g,Nick_Dissertation_EX1,1,303,2020-06-02T09:48:48-07:00,4.2137398719788,1,versionA_stim.csv,READVersionA.csv,"Read Version A","Dissertation, read only version A",ROD,REEL,Study2,S,150,137,Test,User,-,,Recall,Recall2,3748,reel,100,1226,3059,1,1,,1
55b3120cfdf99b6ef6263a71,1xr498s82g,Nick_Dissertation_EX1,1,304,2020-06-02T09:48:51-07:00,2.5355131626129,1,versionA_stim.csv,READVersionA.csv,"Read Version A","Dissertation, read only version A",VEHICLE,CHARM,Study2,U,160,133,Test,User,-,,Recall,Recall2,2042,,0,-1,-1,0,0,,1
55b3120cfdf99b6ef6263a71,1xr498s82g,Nick_Dissertation_EX1,1,305,2020-06-02T09:48:54-07:00,3.3391129970551,1,versionA_stim.csv,READVersionA.csv,"Read Version A","Dissertation, read only version A",EVEN,REVENGE,Study2,B,122,171,Test,User,-,,Recall,Recall2,2931,odd,0,2371,2742,0,0,,1
55b3120cfdf99b6ef6263a71,1xr498s82g,Nick_Dissertation_EX1,1,306,2020-06-02T09:48:59-07:00,4.8508360385895,1,versionA_stim.csv,READVersionA.csv,"Read Version A","Dissertation, read only version A",FLEA,TICK,Study2,S,151,123,Test,User,-,,Recall,Recall2,4421,ticks,88.888888888889,2952,4171,0,1,,1
55b3120cfdf99b6ef6263a71,1xr498s82g,Nick_Dissertation_EX1,1,307,2020-06-02T09:49:22-07:00,22.817149877548,1,versionA_stim.csv,READVersionA.csv,"Read Version A","Dissertation, read only version A",SUN,TAN,Study2,S,155,138,Test,User,-,,Recall,Recall2,21428,hot,33.333333333333,15657,21106,0,0,,1
55b3120cfdf99b6ef6263a71,1xr498s82g,Nick_Dissertation_EX1,1,308,2020-06-02T09:49:24-07:00,1.9504959583282,1,versionA_stim.csv,READVersionA.csv,"Read Version A","Dissertation, read only version A",ELEMENT,CARBON,Study2,S,141,162,Test,User,-,,Recall,Recall2,1574,,0,-1,-1,0,0,,1
55b3120cfdf99b6ef6263a71,1xr498s82g,Nick_Dissertation_EX1,1,309,2020-06-02T09:49:26-07:00,2.1542019844055,1,versionA_stim.csv,READVersionA.csv,"Read Version A","Dissertation, read only version A",LEASE,TOIL,Study2,U,170,132,Test,User,-,,Recall,Recall2,1751,rent,25,1143,1579,0,0,,1
55b3120cfdf99b6ef6263a71,1xr498s82g,Nick_Dissertation_EX1,1,310,2020-06-02T09:49:29-07:00,3.5301361083984,1,versionA_stim.csv,READVersionA.csv,"Read Version A","Dissertation, read only version A",TURN,FLIP,Study2,B,116,113,Test,User,-,,Recall,Recall2,3092,take,0,1282,2879,0,0,,1
55b3120cfdf99b6ef6263a71,1xr498s82g,Nick_Dissertation_EX1,1,311,2020-06-02T09:49:34-07:00,4.5056738853455,1,versionA_stim.csv,READVersionA.csv,"Read Version A","Dissertation, read only version A",WRIST,BRACELET,Study2,S,140,158,Test,User,-,,Recall,Recall2,3990,watch,30.769230769231,2214,3533,0,0,,1
55b3120cfdf99b6ef6263a71,1xr498s82g,Nick_Dissertation_EX1,1,312,2020-06-02T09:49:40-07:00,6.1589410305023,1,versionA_stim.csv,READVersionA.csv,"Read Version A","Dissertation, read only version A",GONE,AWAY,Study2,S,142,160,Test,User,-,,Recall,Recall2,5751,,0,-1,-1,0,0,,1
55b3120cfdf99b6ef6263a71,1xr498s82g,Nick_Dissertation_EX1,1,313,2020-06-02T09:49:44-07:00,4.0951390266418,1,versionA_stim.csv,READVersionA.csv,"Read Version A","Dissertation, read only version A",MAIN,SCAR,Study2,U,175,151,Test,User,-,,Recall,Recall2,3655,event,0,2707,3440,0,0,,1
55b3120cfdf99b6ef6263a71,1xr498s82g,Nick_Dissertation_EX1,1,314,2020-06-02T09:49:53-07:00,8.5023050308228,1,versionA_stim.csv,READVersionA.csv,"Read Version A","Dissertation, read only version A",BIRD,PENGUIN,Study2,B,119,176,Test,User,-,,Recall,Recall2,8010,fly,0,7253,7673,0,0,,1
55b3120cfdf99b6ef6263a71,1xr498s82g,Nick_Dissertation_EX1,1,315,2020-06-02T09:50:00-07:00,7.5078120231628,1,versionA_stim.csv,READVersionA.csv,"Read Version A","Dissertation, read only version A",BAD,VILLAIN,Study2,B,118,106,Test,User,-,,Recall,Recall2,6897,deviant,57.142857142857,2825,6534,0,0,,1
55b3120cfdf99b6ef6263a71,1xr498s82g,Nick_Dissertation_EX1,1,316,2020-06-02T09:50:04-07:00,3.701171875,1,versionA_stim.csv,READVersionA.csv,"Read Version A","Dissertation, read only version A",BEST,FAVORITE,Study2,B,125,146,Test,User,-,,Recall,Recall2,3258,wort,50,2327,2905,0,0,,1
55b3120cfdf99b6ef6263a71,1xr498s82g,Nick_Dissertation_EX1,1,317,2020-06-02T09:50:12-07:00,7.7650830745697,1,versionA_stim.csv,READVersionA.csv,"Read Version A","Dissertation, read only version A",THREAD,THIMBLE,Study2,B,121,128,Test,User,-,,Recall,Recall2,7307,needle,30.769230769231,6021,7001,0,0,,1
55b3120cfdf99b6ef6263a71,1xr498s82g,Nick_Dissertation_EX1,1,318,2020-06-02T09:50:17-07:00,5.8974270820618,1,versionA_stim.csv,READVersionA.csv,"Read Version A","Dissertation, read only version A",CAT,PANTHER,Study2,B,126,110,Test,User,-,,Recall,Recall2,5505,dog,0,4468,5114,0,0,,1
55b3120cfdf99b6ef6263a71,1xr498s82g,Nick_Dissertation_EX1,1,319,2020-06-02T09:50:19-07:00,1.8182170391083,1,versionA_stim.csv,READVersionA.csv,"Read Version A","Dissertation, read only version A",GIVE,STEAK,Study2,U,158,134,Test,User,-,,Recall,Recall2,1494,take,66.666666666667,967,1322,0,0,,1
55b3120cfdf99b6ef6263a71,1xr498s82g,Nick_Dissertation_EX1,1,320,2020-06-02T09:50:23-07:00,3.6375739574432,1,versionA_stim.csv,READVersionA.csv,"Read Version A","Dissertation, read only version A",ADJOURN,END,Study2,F,101,97,Test,User,-,,Recall,Recall2,3162,meeting,40,1540,2397,0,0,,1
55b3120cfdf99b6ef6263a71,1xr498s82g,Nick_Dissertation_EX1,1,321,2020-06-02T09:50:33-07:00,9.9308619499207,1,versionA_stim.csv,READVersionA.csv,"Read Version A","Dissertation, read only version A",TEMPERATURE,Morning,Study2,U,173,165,Test,User,-,,Recall,Recall2,9445,,0,-1,-1,0,0,,1
55b3120cfdf99b6ef6263a71,1xr498s82g,Nick_Dissertation_EX1,1,322,2020-06-02T09:50:46-07:00,13.506313085556,1,versionA_stim.csv,READVersionA.csv,"Read Version A","Dissertation, read only version A",EXTENSION,LONG,Study2,F,96,126,Test,User,-,,Recall,Recall2,13064,longer,80,6206,12865,0,1,,1
55b3120cfdf99b6ef6263a71,1xr498s82g,Nick_Dissertation_EX1,1,323,2020-06-02T09:50:54-07:00,8.1151728630066,1,versionA_stim.csv,READVersionA.csv,"Read Version A","Dissertation, read only version A",SLEEP,NAP,Study2,B,134,111,Test,User,-,,Recall,Recall2,7638,nap,100,6988,7349,1,1,,1
55b3120cfdf99b6ef6263a71,1xr498s82g,Nick_Dissertation_EX1,1,324,2020-06-02T09:50:57-07:00,3.04421210289,1,versionA_stim.csv,READVersionA.csv,"Read Version A","Dissertation, read only version A",NAME,HATE,Study2,U,167,145,Test,User,-,,Recall,Recall2,2620,sake,50,1829,2286,0,0,,1
55b3120cfdf99b6ef6263a71,1xr498s82g,Nick_Dissertation_EX1,1,325,2020-06-02T09:51:11-07:00,13.884949922562,1,versionA_stim.csv,READVersionA.csv,"Read Version A","Dissertation, read only version A",Shell,SHAKE,Study2,U,163,121,Test,User,-,,Recall,Recall2,13382,sea,50,12410,12771,0,0,,1
55b3120cfdf99b6ef6263a71,1xr498s82g,Nick_Dissertation_EX1,1,326,2020-06-02T09:51:14-07:00,2.4630360603333,1,versionA_stim.csv,READVersionA.csv,"Read Version A","Dissertation, read only version A",LISTEN,FICTION,Study2,U,164,157,Test,User,-,,Recall,Recall2,2027,hear,0,1351,1720,0,0,,1
55b3120cfdf99b6ef6263a71,1xr498s82g,Nick_Dissertation_EX1,1,327,2020-06-02T09:51:24-07:00,10.231184959412,1,versionA_stim.csv,READVersionA.csv,"Read Version A","Dissertation, read only version A",TRUTH,LIE,Study2,S,148,164,Test,User,-,,Recall,Recall2,9799,lie,100,8828,9473,1,1,,1
55b3120cfdf99b6ef6263a71,1xr498s82g,Nick_Dissertation_EX1,1,328,2020-06-02T09:51:27-07:00,3.066682100296,1,versionA_stim.csv,READVersionA.csv,"Read Version A","Dissertation, read only version A",MASON,JAR,Study2,S,138,99,Test,User,-,,Recall,Recall2,2640,jar,100,1074,1406,1,1,,1
55b3120cfdf99b6ef6263a71,1xr498s82g,Nick_Dissertation_EX1,1,329,2020-06-02T09:51:44-07:00,16.914255857468,1,versionA_stim.csv,READVersionA.csv,"Read Version A","Dissertation, read only version A",TANTRUM,TEMPER,Study2,S,154,173,Test,User,-,,Recall,Recall2,16494,bad,0,10762,16268,0,0,,1
55b3120cfdf99b6ef6263a71,1xr498s82g,Nick_Dissertation_EX1,1,330,2020-06-02T09:51:49-07:00,4.8906111717224,1,versionA_stim.csv,READVersionA.csv,"Read Version A","Dissertation, read only version A",GLASS,BREAKABLE,Study2,B,127,166,Test,User,-,,Recall,Recall2,4410,jar,16.666666666667,3690,4119,0,0,,1
55b3120cfdf99b6ef6263a71,1xr498s82g,Nick_Dissertation_EX1,1,331,2020-06-02T09:51:53-07:00,3.8039457798004,1,versionA_stim.csv,READVersionA.csv,"Read Version A","Dissertation, read only version A",BOTH,OUNCE,Study2,U,172,143,Test,User,-,,Recall,Recall2,3278,,0,1789,2215,0,0,,1
55b3120cfdf99b6ef6263a71,1xr498s82g,Nick_Dissertation_EX1,1,332,2020-06-02T09:51:56-07:00,3.5958862304688,1,versionA_stim.csv,READVersionA.csv,"Read Version A","Dissertation, read only version A",CAR,WINDSHIELD,Study2,B,117,167,Test,User,-,,Recall,Recall2,3140,vehicle,35.294117647059,1926,2948,0,0,,1
55b3120cfdf99b6ef6263a71,1xr498s82g,Nick_Dissertation_EX1,1,333,2020-06-02T09:52:03-07:00,7.0265789031982,1,versionA_stim.csv,READVersionA.csv,"Read Version A","Dissertation, read only version A",EARTH,GROUND,Study2,S,144,153,Test,User,-,,Recall,Recall2,6591,ground,100,4114,6347,1,1,,1
55b3120cfdf99b6ef6263a71,1xr498s82g,Nick_Dissertation_EX1,1,334,2020-06-02T09:52:07-07:00,3.2095899581909,1,versionA_stim.csv,READVersionA.csv,"Read Version A","Dissertation, read only version A",CRACKLE,ABLE,Study2,U,162,149,Test,User,-,,Recall,Recall2,2792,pop,0,2175,2495,0,0,,1
55b3120cfdf99b6ef6263a71,1xr498s82g,Nick_Dissertation_EX1,1,335,2020-06-02T09:52:14-07:00,7.7579259872437,1,versionA_stim.csv,READVersionA.csv,"Read Version A","Dissertation, read only version A",DEAD,COFFIN,Study2,B,128,172,Test,User,-,,Recall,Recall2,7359,zone,40,3957,7178,0,0,,1
55b3120cfdf99b6ef6263a71,1xr498s82g,Nick_Dissertation_EX1,1,336,2020-06-02T09:52:19-07:00,4.1644239425659,1,versionA_stim.csv,READVersionA.csv,"Read Version A","Dissertation, read only version A",RIGHTS,EQUAL,Study2,S,137,109,Test,User,-,,Recall,Recall2,3739,,0,-1,-1,0,0,,1
55b3120cfdf99b6ef6263a71,1xr498s82g,Nick_Dissertation_EX1,1,337,2020-06-02T09:52:25-07:00,6.1180760860443,1,versionA_stim.csv,READVersionA.csv,"Read Version A","Dissertation, read only version A",OWN,HAVE,Study2,S,153,155,Test,User,-,,Recall,Recall2,5608,keep,25,1447,5339,0,0,,1
55b3120cfdf99b6ef6263a71,1xr498s82g,Nick_Dissertation_EX1,1,338,2020-06-02T09:52:32-07:00,7.0829930305481,1,versionA_stim.csv,READVersionA.csv,"Read Version A","Dissertation, read only version A",PLANE,AIRCRAFT,Study2,B,129,174,Test,User,-,,Recall,Recall2,6647,fly,18.181818181818,1349,6023,0,0,,1
55b3120cfdf99b6ef6263a71,1xr498s82g,Nick_Dissertation_EX1,1,339,2020-06-02T09:52:39-07:00,7.0940070152283,1,versionA_stim.csv,READVersionA.csv,"Read Version A","Dissertation, read only version A",MIRROR,CHILDREN,Study2,U,174,116,Test,User,-,,Recall,Recall2,6624,smoke,15.384615384615,2539,5959,0,0,,1
55b3120cfdf99b6ef6263a71,1xr498s82g,Nick_Dissertation_EX1,1,340,2020-06-02T09:52:41-07:00,1.9817900657654,1,versionA_stim.csv,READVersionA.csv,"Read Version A","Dissertation, read only version A",DINE,EAT,Study2,F,111,127,Test,User,-,,Recall,Recall2,1610,eat,100,1147,1386,1,1,,1
55b3120cfdf99b6ef6263a71,1xr498s82g,Nick_Dissertation_EX1,1,341,2020-06-02T09:53:02-07:00,21.416884899139,1,versionA_stim.csv,READVersionA.csv,"Read Version A","Dissertation, read only version A",CAKE,CLOTHES,Study2,U,166,102,Test,User,-,,Recall,Recall2,21012,,0,16698,16698,0,0,,1
55b3120cfdf99b6ef6263a71,1xr498s82g,Nick_Dissertation_EX1,1,342,2020-06-02T09:53:10-07:00,7.8719620704651,1,versionA_stim.csv,READVersionA.csv,"Read Version A","Dissertation, read only version A",POP,BALLOON,Study2,B,123,98,Test,User,-,,Recall,Recall2,7396,crackle,28.571428571429,5645,7198,0,0,,1
55b3120cfdf99b6ef6263a71,1xr498s82g,Nick_Dissertation_EX1,1,343,2020-06-02T09:53:17-07:00,6.8995869159698,1,versionA_stim.csv,READVersionA.csv,"Read Version A","Dissertation, read only version A",LOUD,NOISE,Study2,S,152,114,Test,User,-,,Recall,Recall2,6457,,0,-1,-1,0,0,,1
55b3120cfdf99b6ef6263a71,1xr498s82g,Nick_Dissertation_EX1,1,344,2020-06-02T09:53:22-07:00,4.7890429496765,1,versionA_stim.csv,READVersionA.csv,"Read Version A","Dissertation, read only version A",FIGHT,BRAWL,Study2,B,135,100,Test,User,-,,Recall,Recall2,3995,flight,18.181818181818,3032,3670,0,0,,1
55b3120cfdf99b6ef6263a71,1xr498s82g,Nick_Dissertation_EX1,1,345,2020-06-02T09:53:29-07:00,6.9719829559326,1,versionA_stim.csv,READVersionA.csv,"Read Version A","Dissertation, read only version A",WATER,DRINK,Study2,S,143,124,Test,User,-,,Recall,Recall2,6500,drink,100,5350,6179,1,1,,1
55b3120cfdf99b6ef6263a71,1xr498s82g,Nick_Dissertation_EX1,1,346,2020-06-02T09:53:47-07:00,17.799790143967,1,versionA_stim.csv,READVersionA.csv,"Read Version A","Dissertation, read only version A",FRUIT,STRAWBERRY,Study2,B,124,170,Test,User,-,,Recall,Recall2,17288,basket,25,10039,17003,0,0,,1
55b3120cfdf99b6ef6263a71,1xr498s82g,Nick_Dissertation_EX1,1,347,2020-06-02T09:53:49-07:00,2.7380650043488,1,versionA_stim.csv,READVersionA.csv,"Read Version A","Dissertation, read only version A",FEUD,FIGHT,Study2,F,113,139,Test,User,-,,Recall,Recall2,2261,fight,100,1553,2086,1,1,,1
55b3120cfdf99b6ef6263a71,1xr498s82g,Nick_Dissertation_EX1,1,348,2020-06-02T09:53:52-07:00,2.936548948288,1,versionA_stim.csv,READVersionA.csv,"Read Version A","Dissertation, read only version A",DRY,WET,Study2,S,146,148,Test,User,-,,Recall,Recall2,2508,wet,100,1945,2300,1,1,,1
