Username,ID,ExperimentName,Session,Trial,Date,TimeDif,"Condition Number","Stimuli File","Order File","Condition Description","Condition Notes",Stimuli*Cue,Stimuli*Answer,Stimuli*Shuffle,"Stimuli*Stimuli Notes",Stimuli*Value,Procedure*Item,"Procedure*Trial Type","Procedure*Max Time","Procedure*Min Time",Procedure*Text,"Procedure*Procedure Notes",Procedure*Shuffle,Response*RT,Response*Response,Response*Accuracy,Response*RTfirst,Response*RTlast,Response*strictAcc,Response*lenientAcc,Response*focus,Response*Focus
5eaad3ea17b8c30411098ec4,893f05zlsg,Nick_Dissertation_EX1,1,1,2020-06-02T09:58:58-07:00,12.512409925461,4,versionC_stim.csv,READVersionD.csv,"Read Version D","Dissertation, read only version D",,,,,,0,Instruct,-,10,"Please study each of the following word pairs. Remember that your memory will be tested! When finished, press Enter to move to the next pair.",Initial_Instruct,Instruct1,11858,,,-1,-1,,,,1
5eaad3ea17b8c30411098ec4,893f05zlsg,Nick_Dissertation_EX1,1,2,2020-06-02T09:59:18-07:00,19.740993022919,4,versionC_stim.csv,READVersionD.csv,"Read Version D","Dissertation, read only version D",ADVENTURE,CAMP,BUFFER3,Buffer,95,92,Study,User,-,,Study/JOL,BUFFER,17854,,,-1,-1,,,,0.963
5eaad3ea17b8c30411098ec4,893f05zlsg,Nick_Dissertation_EX1,1,3,2020-06-02T09:59:28-07:00,10.099627017975,4,versionC_stim.csv,READVersionD.csv,"Read Version D","Dissertation, read only version D",STRING,NOODLE,BUFFER3,Buffer,92,95,Study,User,-,,Study/JOL,BUFFER,6745,,,-1,-1,,,,1
5eaad3ea17b8c30411098ec4,893f05zlsg,Nick_Dissertation_EX1,1,4,2020-06-02T09:59:35-07:00,7.5198090076447,4,versionC_stim.csv,READVersionD.csv,"Read Version D","Dissertation, read only version D",FISH,SHRIMP,BUFFER3,Buffer,93,93,Study,User,-,,Study/JOL,BUFFER,6541,,,-1,-1,,,,1
5eaad3ea17b8c30411098ec4,893f05zlsg,Nick_Dissertation_EX1,1,5,2020-06-02T09:59:56-07:00,20.543330907822,4,versionC_stim.csv,READVersionD.csv,"Read Version D","Dissertation, read only version D",POTATO,CARROT,BUFFER3,Buffer,91,96,Study,User,-,,Study/JOL,BUFFER,17992,,,-1,-1,,,,0.948
5eaad3ea17b8c30411098ec4,893f05zlsg,Nick_Dissertation_EX1,1,6,2020-06-02T10:00:05-07:00,9.1609950065613,4,versionC_stim.csv,READVersionD.csv,"Read Version D","Dissertation, read only version D",FROZEN,ICE,BUFFER3,Buffer,94,94,Study,User,-,,Study/JOL,BUFFER,8427,,,-1,-1,,,,1
5eaad3ea17b8c30411098ec4,893f05zlsg,Nick_Dissertation_EX1,1,7,2020-06-02T10:00:12-07:00,6.8279001712799,4,versionC_stim.csv,READVersionD.csv,"Read Version D","Dissertation, read only version D",CAR,DRIVER,Study2,B,106,122,Study,User,-,,Study/JOL,"Study Phase",5878,,,-1,-1,,,,1
5eaad3ea17b8c30411098ec4,893f05zlsg,Nick_Dissertation_EX1,1,8,2020-06-02T10:00:18-07:00,5.8019800186157,4,versionC_stim.csv,READVersionD.csv,"Read Version D","Dissertation, read only version D",AWAY,GONE,Study2,S,142,155,Study,User,-,,Study/JOL,"Study Phase",5141,,,-1,-1,,,,1
5eaad3ea17b8c30411098ec4,893f05zlsg,Nick_Dissertation_EX1,1,9,2020-06-02T10:00:25-07:00,6.8713808059692,4,versionC_stim.csv,READVersionD.csv,"Read Version D","Dissertation, read only version D",SARDINE,FISH,Study2,F,130,123,Study,User,-,,Study/JOL,"Study Phase",6214,,,-1,-1,,,,1
5eaad3ea17b8c30411098ec4,893f05zlsg,Nick_Dissertation_EX1,1,10,2020-06-02T10:00:30-07:00,5.6070740222931,4,versionC_stim.csv,READVersionD.csv,"Read Version D","Dissertation, read only version D",TAN,SUN,Study2,S,155,127,Study,User,-,,Study/JOL,"Study Phase",4961,,,-1,-1,,,,1
5eaad3ea17b8c30411098ec4,893f05zlsg,Nick_Dissertation_EX1,1,11,2020-06-02T10:00:41-07:00,11.128220081329,4,versionC_stim.csv,READVersionD.csv,"Read Version D","Dissertation, read only version D",GROUND,EARTH,Study2,S,144,157,Study,User,-,,Study/JOL,"Study Phase",8263,,,-1,-1,,,,1
5eaad3ea17b8c30411098ec4,893f05zlsg,Nick_Dissertation_EX1,1,12,2020-06-02T10:00:53-07:00,11.747766017914,4,versionC_stim.csv,READVersionD.csv,"Read Version D","Dissertation, read only version D",Morning,TEMPERATURE,Study2,U,173,129,Study,User,-,,Study/JOL,"Study Phase",10437,,,-1,-1,,,,1
5eaad3ea17b8c30411098ec4,893f05zlsg,Nick_Dissertation_EX1,1,13,2020-06-02T10:01:02-07:00,8.4684760570526,4,versionC_stim.csv,READVersionD.csv,"Read Version D","Dissertation, read only version D",COMMUNICATION,PHONE,Study2,S,149,98,Study,User,-,,Study/JOL,"Study Phase",7785,,,-1,-1,,,,1
5eaad3ea17b8c30411098ec4,893f05zlsg,Nick_Dissertation_EX1,1,14,2020-06-02T10:01:11-07:00,9.6156098842621,4,versionC_stim.csv,READVersionD.csv,"Read Version D","Dissertation, read only version D",FAVORITE,BEST,Study2,F,125,171,Study,User,-,,Study/JOL,"Study Phase",5568,,,-1,-1,,,,1
5eaad3ea17b8c30411098ec4,893f05zlsg,Nick_Dissertation_EX1,1,15,2020-06-02T10:01:17-07:00,5.9694631099701,4,versionC_stim.csv,READVersionD.csv,"Read Version D","Dissertation, read only version D",BANG,FUZZY,Study2,U,168,119,Study,User,-,,Study/JOL,"Study Phase",5201,,,-1,-1,,,,1
5eaad3ea17b8c30411098ec4,893f05zlsg,Nick_Dissertation_EX1,1,16,2020-06-02T10:01:23-07:00,5.8231048583984,4,versionC_stim.csv,READVersionD.csv,"Read Version D","Dissertation, read only version D",NAP,SLEEP,Study2,F,134,158,Study,User,-,,Study/JOL,"Study Phase",4864,,,-1,-1,,,,1
5eaad3ea17b8c30411098ec4,893f05zlsg,Nick_Dissertation_EX1,1,17,2020-06-02T10:01:30-07:00,6.8310539722443,4,versionC_stim.csv,READVersionD.csv,"Read Version D","Dissertation, read only version D",BALLOON,POP,Study2,F,123,120,Study,User,-,,Study/JOL,"Study Phase",5867,,,-1,-1,,,,1
5eaad3ea17b8c30411098ec4,893f05zlsg,Nick_Dissertation_EX1,1,18,2020-06-02T10:01:46-07:00,16.02516412735,4,versionC_stim.csv,READVersionD.csv,"Read Version D","Dissertation, read only version D",LEAGUE,BASEBALL,Study2,F,131,152,Study,User,-,,Study/JOL,"Study Phase",15090,,,-1,-1,,,,0.971
5eaad3ea17b8c30411098ec4,893f05zlsg,Nick_Dissertation_EX1,1,19,2020-06-02T10:01:56-07:00,10.303853034973,4,versionC_stim.csv,READVersionD.csv,"Read Version D","Dissertation, read only version D",CHILDREN,MIRROR,Study2,U,174,173,Study,User,-,,Study/JOL,"Study Phase",9402,,,-1,-1,,,,1
5eaad3ea17b8c30411098ec4,893f05zlsg,Nick_Dissertation_EX1,1,20,2020-06-02T10:02:05-07:00,8.9549179077148,4,versionC_stim.csv,READVersionD.csv,"Read Version D","Dissertation, read only version D",BRACELET,WRIST,Study2,S,140,126,Study,User,-,,Study/JOL,"Study Phase",8180,,,-1,-1,,,,1
5eaad3ea17b8c30411098ec4,893f05zlsg,Nick_Dissertation_EX1,1,21,2020-06-02T10:02:20-07:00,14.55025601387,4,versionC_stim.csv,READVersionD.csv,"Read Version D","Dissertation, read only version D",FIGHT,FEUD,Study2,B,113,100,Study,User,-,,Study/JOL,"Study Phase",13357,,,-1,-1,,,,1
5eaad3ea17b8c30411098ec4,893f05zlsg,Nick_Dissertation_EX1,1,22,2020-06-02T10:02:29-07:00,9.3595259189606,4,versionC_stim.csv,READVersionD.csv,"Read Version D","Dissertation, read only version D",SEATBELT,SAFETY,Study2,S,147,153,Study,User,-,,Study/JOL,"Study Phase",8582,,,-1,-1,,,,1
5eaad3ea17b8c30411098ec4,893f05zlsg,Nick_Dissertation_EX1,1,23,2020-06-02T10:02:37-07:00,7.6949710845947,4,versionC_stim.csv,READVersionD.csv,"Read Version D","Dissertation, read only version D",OBTAIN,MEAT,Study2,U,161,130,Study,User,-,,Study/JOL,"Study Phase",6527,,,-1,-1,,,,1
5eaad3ea17b8c30411098ec4,893f05zlsg,Nick_Dissertation_EX1,1,24,2020-06-02T10:02:44-07:00,7.7191300392151,4,versionC_stim.csv,READVersionD.csv,"Read Version D","Dissertation, read only version D",HATE,NAME,Study2,U,167,167,Study,User,-,,Study/JOL,"Study Phase",5474,,,-1,-1,,,,1
5eaad3ea17b8c30411098ec4,893f05zlsg,Nick_Dissertation_EX1,1,25,2020-06-02T10:02:53-07:00,8.0598440170288,4,versionC_stim.csv,READVersionD.csv,"Read Version D","Dissertation, read only version D",REVENGE,EVEN,Study2,F,122,144,Study,User,-,,Study/JOL,"Study Phase",7151,,,-1,-1,,,,1
5eaad3ea17b8c30411098ec4,893f05zlsg,Nick_Dissertation_EX1,1,26,2020-06-02T10:03:01-07:00,8.4207768440247,4,versionC_stim.csv,READVersionD.csv,"Read Version D","Dissertation, read only version D",OUNCE,BOTH,Study2,U,172,163,Study,User,-,,Study/JOL,"Study Phase",6464,,,-1,-1,,,,1
5eaad3ea17b8c30411098ec4,893f05zlsg,Nick_Dissertation_EX1,1,27,2020-06-02T10:03:10-07:00,8.7212851047516,4,versionC_stim.csv,READVersionD.csv,"Read Version D","Dissertation, read only version D",EAT,DINE,Study2,B,111,109,Study,User,-,,Study/JOL,"Study Phase",6242,,,-1,-1,,,,1
5eaad3ea17b8c30411098ec4,893f05zlsg,Nick_Dissertation_EX1,1,28,2020-06-02T10:03:17-07:00,7.0899670124054,4,versionC_stim.csv,READVersionD.csv,"Read Version D","Dissertation, read only version D",REEL,ROD,Study2,S,150,125,Study,User,-,,Study/JOL,"Study Phase",5766,,,-1,-1,,,,1
5eaad3ea17b8c30411098ec4,893f05zlsg,Nick_Dissertation_EX1,1,29,2020-06-02T10:03:22-07:00,5.5394868850708,4,versionC_stim.csv,READVersionD.csv,"Read Version D","Dissertation, read only version D",WET,DRY,Study2,S,146,108,Study,User,-,,Study/JOL,"Study Phase",4837,,,-1,-1,,,,1
5eaad3ea17b8c30411098ec4,893f05zlsg,Nick_Dissertation_EX1,1,30,2020-06-02T10:03:31-07:00,8.4167010784149,4,versionC_stim.csv,READVersionD.csv,"Read Version D","Dissertation, read only version D",PANTHER,CAT,Study2,F,126,135,Study,User,-,,Study/JOL,"Study Phase",7091,,,-1,-1,,,,1
5eaad3ea17b8c30411098ec4,893f05zlsg,Nick_Dissertation_EX1,1,31,2020-06-02T10:03:39-07:00,8.4775259494781,4,versionC_stim.csv,READVersionD.csv,"Read Version D","Dissertation, read only version D",LOVE,AFFECTION,Study2,B,115,118,Study,User,-,,Study/JOL,"Study Phase",7712,,,-1,-1,,,,1
5eaad3ea17b8c30411098ec4,893f05zlsg,Nick_Dissertation_EX1,1,32,2020-06-02T10:03:48-07:00,8.7452771663666,4,versionC_stim.csv,READVersionD.csv,"Read Version D","Dissertation, read only version D",CLEAR,MOAT,Study2,U,169,136,Study,User,-,,Study/JOL,"Study Phase",5865,,,-1,-1,,,,1
5eaad3ea17b8c30411098ec4,893f05zlsg,Nick_Dissertation_EX1,1,33,2020-06-02T10:03:54-07:00,6.4140839576721,4,versionC_stim.csv,READVersionD.csv,"Read Version D","Dissertation, read only version D",DOG,FURRY,Study2,B,102,148,Study,User,-,,Study/JOL,"Study Phase",5757,,,-1,-1,,,,1
5eaad3ea17b8c30411098ec4,893f05zlsg,Nick_Dissertation_EX1,1,34,2020-06-02T10:04:04-07:00,9.2085609436035,4,versionC_stim.csv,READVersionD.csv,"Read Version D","Dissertation, read only version D",VILLAIN,BAD,Study2,F,118,134,Study,User,-,,Study/JOL,"Study Phase",6742,,,-1,-1,,,,1
5eaad3ea17b8c30411098ec4,893f05zlsg,Nick_Dissertation_EX1,1,35,2020-06-02T10:04:14-07:00,10.786000013351,4,versionC_stim.csv,READVersionD.csv,"Read Version D","Dissertation, read only version D",FICTION,LISTEN,Study2,U,164,102,Study,User,-,,Study/JOL,"Study Phase",9835,,,-1,-1,,,,1
5eaad3ea17b8c30411098ec4,893f05zlsg,Nick_Dissertation_EX1,1,36,2020-06-02T10:04:23-07:00,8.3653280735016,4,versionC_stim.csv,READVersionD.csv,"Read Version D","Dissertation, read only version D",LONG,EXTENSION,Study2,B,96,174,Study,User,-,,Study/JOL,"Study Phase",7667,,,-1,-1,,,,1
5eaad3ea17b8c30411098ec4,893f05zlsg,Nick_Dissertation_EX1,1,37,2020-06-02T10:04:31-07:00,8.4134709835052,4,versionC_stim.csv,READVersionD.csv,"Read Version D","Dissertation, read only version D",TRASH,LITTER,Study2,B,103,99,Study,User,-,,Study/JOL,"Study Phase",6853,,,-1,-1,,,,1
5eaad3ea17b8c30411098ec4,893f05zlsg,Nick_Dissertation_EX1,1,38,2020-06-02T10:04:38-07:00,6.714507818222,4,versionC_stim.csv,READVersionD.csv,"Read Version D","Dissertation, read only version D",JOKE,KEYS,Study2,U,165,111,Study,User,-,,Study/JOL,"Study Phase",6028,,,-1,-1,,,,1
5eaad3ea17b8c30411098ec4,893f05zlsg,Nick_Dissertation_EX1,1,39,2020-06-02T10:04:46-07:00,8.073958158493,4,versionC_stim.csv,READVersionD.csv,"Read Version D","Dissertation, read only version D",BANKER,MONEY,Study2,F,132,133,Study,User,-,,Study/JOL,"Study Phase",7391,,,-1,-1,,,,1
5eaad3ea17b8c30411098ec4,893f05zlsg,Nick_Dissertation_EX1,1,40,2020-06-02T10:04:57-07:00,11.009863853455,4,versionC_stim.csv,READVersionD.csv,"Read Version D","Dissertation, read only version D",COFFIN,DEAD,Study2,F,128,166,Study,User,-,,Study/JOL,"Study Phase",10096,,,-1,-1,,,,1
5eaad3ea17b8c30411098ec4,893f05zlsg,Nick_Dissertation_EX1,1,41,2020-06-02T10:05:04-07:00,7.2012059688568,4,versionC_stim.csv,READVersionD.csv,"Read Version D","Dissertation, read only version D",SMELL,INCENSE,Study2,B,110,137,Study,User,-,,Study/JOL,"Study Phase",6463,,,-1,-1,,,,1
5eaad3ea17b8c30411098ec4,893f05zlsg,Nick_Dissertation_EX1,1,42,2020-06-02T10:05:18-07:00,13.856037139893,4,versionC_stim.csv,READVersionD.csv,"Read Version D","Dissertation, read only version D",WINDSHIELD,CAR,Study2,F,117,128,Study,User,-,,Study/JOL,"Study Phase",11731,,,-1,-1,,,,1
5eaad3ea17b8c30411098ec4,893f05zlsg,Nick_Dissertation_EX1,1,43,2020-06-02T10:05:34-07:00,15.801003932953,4,versionC_stim.csv,READVersionD.csv,"Read Version D","Dissertation, read only version D",STRAWBERRY,FRUIT,Study2,F,124,176,Study,User,-,,Study/JOL,"Study Phase",12784,,,-1,-1,,,,1
5eaad3ea17b8c30411098ec4,893f05zlsg,Nick_Dissertation_EX1,1,44,2020-06-02T10:05:41-07:00,6.987673997879,4,versionC_stim.csv,READVersionD.csv,"Read Version D","Dissertation, read only version D",LIE,TRUTH,Study2,S,148,124,Study,User,-,,Study/JOL,"Study Phase",6317,,,-1,-1,,,,1
5eaad3ea17b8c30411098ec4,893f05zlsg,Nick_Dissertation_EX1,1,45,2020-06-02T10:05:53-07:00,11.857587099075,4,versionC_stim.csv,READVersionD.csv,"Read Version D","Dissertation, read only version D",MAROON,JUSTICE,Study2,U,156,150,Study,User,-,,Study/JOL,"Study Phase",9673,,,-1,-1,,,,1
5eaad3ea17b8c30411098ec4,893f05zlsg,Nick_Dissertation_EX1,1,46,2020-06-02T10:06:01-07:00,8.7854208946228,4,versionC_stim.csv,READVersionD.csv,"Read Version D","Dissertation, read only version D",JAR,MASON,Study2,S,138,139,Study,User,-,,Study/JOL,"Study Phase",5574,,,-1,-1,,,,1
5eaad3ea17b8c30411098ec4,893f05zlsg,Nick_Dissertation_EX1,1,47,2020-06-02T10:06:25-07:00,23.482128143311,4,versionC_stim.csv,READVersionD.csv,"Read Version D","Dissertation, read only version D",END,ADJOURN,Study2,B,101,161,Study,User,-,,Study/JOL,"Study Phase",20264,,,-1,-1,,,,0.797
5eaad3ea17b8c30411098ec4,893f05zlsg,Nick_Dissertation_EX1,1,48,2020-06-02T10:06:35-07:00,10.463600873947,4,versionC_stim.csv,READVersionD.csv,"Read Version D","Dissertation, read only version D",TIE,SHOELACE,Study2,B,99,114,Study,User,-,,Study/JOL,"Study Phase",6457,,,-1,-1,,,,1
5eaad3ea17b8c30411098ec4,893f05zlsg,Nick_Dissertation_EX1,1,49,2020-06-02T10:07:04-07:00,29.080742120743,4,versionC_stim.csv,READVersionD.csv,"Read Version D","Dissertation, read only version D",ACTRESS,STAR,Study2,F,120,141,Study,User,-,,Study/JOL,"Study Phase",26914,,,-1,-1,,,,0.348
5eaad3ea17b8c30411098ec4,893f05zlsg,Nick_Dissertation_EX1,1,50,2020-06-02T10:07:11-07:00,6.26735496521,4,versionC_stim.csv,READVersionD.csv,"Read Version D","Dissertation, read only version D",WAX,CANDLE,Study2,S,139,113,Study,User,-,,Study/JOL,"Study Phase",5477,,,-1,-1,,,,1
5eaad3ea17b8c30411098ec4,893f05zlsg,Nick_Dissertation_EX1,1,51,2020-06-02T10:07:20-07:00,8.8293209075928,4,versionC_stim.csv,READVersionD.csv,"Read Version D","Dissertation, read only version D",TRUTHFUL,HONEST,Study2,F,133,142,Study,User,-,,Study/JOL,"Study Phase",7424,,,-1,-1,,,,1
5eaad3ea17b8c30411098ec4,893f05zlsg,Nick_Dissertation_EX1,1,52,2020-06-02T10:07:25-07:00,5.812824010849,4,versionC_stim.csv,READVersionD.csv,"Read Version D","Dissertation, read only version D",TOIL,LEASE,Study2,U,170,172,Study,User,-,,Study/JOL,"Study Phase",5147,,,-1,-1,,,,1
5eaad3ea17b8c30411098ec4,893f05zlsg,Nick_Dissertation_EX1,1,53,2020-06-02T10:07:36-07:00,10.569020986557,4,versionC_stim.csv,READVersionD.csv,"Read Version D","Dissertation, read only version D",BREAKABLE,GLASS,Study2,F,127,146,Study,User,-,,Study/JOL,"Study Phase",8523,,,-1,-1,,,,1
5eaad3ea17b8c30411098ec4,893f05zlsg,Nick_Dissertation_EX1,1,54,2020-06-02T10:07:43-07:00,6.8071060180664,4,versionC_stim.csv,READVersionD.csv,"Read Version D","Dissertation, read only version D",STEAK,GIVE,Study2,U,158,154,Study,User,-,,Study/JOL,"Study Phase",6076,,,-1,-1,,,,1
5eaad3ea17b8c30411098ec4,893f05zlsg,Nick_Dissertation_EX1,1,55,2020-06-02T10:07:52-07:00,9.4294650554657,4,versionC_stim.csv,READVersionD.csv,"Read Version D","Dissertation, read only version D",ABLE,CRACKLE,Study2,U,162,116,Study,User,-,,Study/JOL,"Study Phase",8672,,,-1,-1,,,,1
5eaad3ea17b8c30411098ec4,893f05zlsg,Nick_Dissertation_EX1,1,56,2020-06-02T10:08:01-07:00,9.0417358875275,4,versionC_stim.csv,READVersionD.csv,"Read Version D","Dissertation, read only version D",THIMBLE,THREAD,Study2,F,121,175,Study,User,-,,Study/JOL,"Study Phase",8319,,,-1,-1,,,,1
5eaad3ea17b8c30411098ec4,893f05zlsg,Nick_Dissertation_EX1,1,57,2020-06-02T10:08:10-07:00,8.5373191833496,4,versionC_stim.csv,READVersionD.csv,"Read Version D","Dissertation, read only version D",TICK,FLEA,Study2,S,151,160,Study,User,-,,Study/JOL,"Study Phase",5401,,,-1,-1,,,,1
5eaad3ea17b8c30411098ec4,893f05zlsg,Nick_Dissertation_EX1,1,58,2020-06-02T10:08:20-07:00,10.240459918976,4,versionC_stim.csv,READVersionD.csv,"Read Version D","Dissertation, read only version D",TEMPER,TANTRUM,Study2,S,154,112,Study,User,-,,Study/JOL,"Study Phase",8782,,,-1,-1,,,,1
5eaad3ea17b8c30411098ec4,893f05zlsg,Nick_Dissertation_EX1,1,59,2020-06-02T10:08:27-07:00,7.0931088924408,4,versionC_stim.csv,READVersionD.csv,"Read Version D","Dissertation, read only version D",SCAR,MAIN,Study2,U,175,117,Study,User,-,,Study/JOL,"Study Phase",5364,,,-1,-1,,,,1
5eaad3ea17b8c30411098ec4,893f05zlsg,Nick_Dissertation_EX1,1,60,2020-06-02T10:08:35-07:00,8.3293211460114,4,versionC_stim.csv,READVersionD.csv,"Read Version D","Dissertation, read only version D",CLOTH,STRETCH,Study2,U,157,104,Study,User,-,,Study/JOL,"Study Phase",6218,,,-1,-1,,,,1
5eaad3ea17b8c30411098ec4,893f05zlsg,Nick_Dissertation_EX1,1,61,2020-06-02T10:08:45-07:00,9.4375648498535,4,versionC_stim.csv,READVersionD.csv,"Read Version D","Dissertation, read only version D",PAPER,DOCUMENT,Study2,B,109,138,Study,User,-,,Study/JOL,"Study Phase",8348,,,-1,-1,,,,1
5eaad3ea17b8c30411098ec4,893f05zlsg,Nick_Dissertation_EX1,1,62,2020-06-02T10:08:51-07:00,6.3142621517181,4,versionC_stim.csv,READVersionD.csv,"Read Version D","Dissertation, read only version D",CUT,CHOP,Study2,B,107,147,Study,User,-,,Study/JOL,"Study Phase",5575,,,-1,-1,,,,1
5eaad3ea17b8c30411098ec4,893f05zlsg,Nick_Dissertation_EX1,1,63,2020-06-02T10:08:59-07:00,8.1166958808899,4,versionC_stim.csv,READVersionD.csv,"Read Version D","Dissertation, read only version D",COLD,CHILL,Study2,B,114,107,Study,User,-,,Study/JOL,"Study Phase",5506,,,-1,-1,,,,1
5eaad3ea17b8c30411098ec4,893f05zlsg,Nick_Dissertation_EX1,1,64,2020-06-02T10:09:01-07:00,2.13338804245,4,versionC_stim.csv,READVersionD.csv,"Read Version D","Dissertation, read only version D",MYSTERY,DETECTIVE,Study2,B,100,101,Study,User,-,,Study/JOL,"Study Phase",1464,,,-1,-1,,,,1
5eaad3ea17b8c30411098ec4,893f05zlsg,Nick_Dissertation_EX1,1,65,2020-06-02T10:09:14-07:00,12.179393053055,4,versionC_stim.csv,READVersionD.csv,"Read Version D","Dissertation, read only version D",PLANT,CACTUS,Study2,B,98,162,Study,User,-,,Study/JOL,"Study Phase",11295,,,-1,-1,,,,1
5eaad3ea17b8c30411098ec4,893f05zlsg,Nick_Dissertation_EX1,1,66,2020-06-02T10:09:16-07:00,2.1873259544373,4,versionC_stim.csv,READVersionD.csv,"Read Version D","Dissertation, read only version D",HAVE,OWN,Study2,S,153,140,Study,User,-,,Study/JOL,"Study Phase",1492,,,-1,-1,,,,1
5eaad3ea17b8c30411098ec4,893f05zlsg,Nick_Dissertation_EX1,1,67,2020-06-02T10:09:22-07:00,5.8258249759674,4,versionC_stim.csv,READVersionD.csv,"Read Version D","Dissertation, read only version D",NOISE,LOUD,Study2,S,152,169,Study,User,-,,Study/JOL,"Study Phase",5012,,,-1,-1,,,,1
5eaad3ea17b8c30411098ec4,893f05zlsg,Nick_Dissertation_EX1,1,68,2020-06-02T10:09:31-07:00,9.2695829868317,4,versionC_stim.csv,READVersionD.csv,"Read Version D","Dissertation, read only version D",SHAKE,Shell,Study2,U,163,131,Study,User,-,,Study/JOL,"Study Phase",6677,,,-1,-1,,,,1
5eaad3ea17b8c30411098ec4,893f05zlsg,Nick_Dissertation_EX1,1,69,2020-06-02T10:09:43-07:00,11.994303941727,4,versionC_stim.csv,READVersionD.csv,"Read Version D","Dissertation, read only version D",LONELY,ALONE,Study2,S,145,156,Study,User,-,,Study/JOL,"Study Phase",10625,,,-1,-1,,,,1
5eaad3ea17b8c30411098ec4,893f05zlsg,Nick_Dissertation_EX1,1,70,2020-06-02T10:09:53-07:00,10.155852079391,4,versionC_stim.csv,READVersionD.csv,"Read Version D","Dissertation, read only version D",AIRCRAFT,PLANE,Study2,F,129,121,Study,User,-,,Study/JOL,"Study Phase",7667,,,-1,-1,,,,1
5eaad3ea17b8c30411098ec4,893f05zlsg,Nick_Dissertation_EX1,1,71,2020-06-02T10:10:03-07:00,10.433474063873,4,versionC_stim.csv,READVersionD.csv,"Read Version D","Dissertation, read only version D",SCISSORS,SHEARS,Study2,B,112,165,Study,User,-,,Study/JOL,"Study Phase",8327,,,-1,-1,,,,1
5eaad3ea17b8c30411098ec4,893f05zlsg,Nick_Dissertation_EX1,1,72,2020-06-02T10:10:12-07:00,8.4820818901062,4,versionC_stim.csv,READVersionD.csv,"Read Version D","Dissertation, read only version D",EQUAL,RIGHTS,Study2,S,137,149,Study,User,-,,Study/JOL,"Study Phase",6896,,,-1,-1,,,,1
5eaad3ea17b8c30411098ec4,893f05zlsg,Nick_Dissertation_EX1,1,73,2020-06-02T10:10:19-07:00,6.8930139541626,4,versionC_stim.csv,READVersionD.csv,"Read Version D","Dissertation, read only version D",SIGN,LOAN,Study2,U,171,143,Study,User,-,,Study/JOL,"Study Phase",5561,,,-1,-1,,,,1
5eaad3ea17b8c30411098ec4,893f05zlsg,Nick_Dissertation_EX1,1,74,2020-06-02T10:10:27-07:00,8.5089840888977,4,versionC_stim.csv,READVersionD.csv,"Read Version D","Dissertation, read only version D",CARBON,ELEMENT,Study2,S,141,164,Study,User,-,,Study/JOL,"Study Phase",7831,,,-1,-1,,,,1
5eaad3ea17b8c30411098ec4,893f05zlsg,Nick_Dissertation_EX1,1,75,2020-06-02T10:10:35-07:00,7.5535659790039,4,versionC_stim.csv,READVersionD.csv,"Read Version D","Dissertation, read only version D",HEAD,SCALP,Study2,B,105,115,Study,User,-,,Study/JOL,"Study Phase",5866,,,-1,-1,,,,1
5eaad3ea17b8c30411098ec4,893f05zlsg,Nick_Dissertation_EX1,1,76,2020-06-02T10:10:43-07:00,8.0865790843964,4,versionC_stim.csv,READVersionD.csv,"Read Version D","Dissertation, read only version D",SHAVE,RAZOR,Study2,S,136,151,Study,User,-,,Study/JOL,"Study Phase",5626,,,-1,-1,,,,1
5eaad3ea17b8c30411098ec4,893f05zlsg,Nick_Dissertation_EX1,1,77,2020-06-02T10:10:50-07:00,7.4430539608002,4,versionC_stim.csv,READVersionD.csv,"Read Version D","Dissertation, read only version D",DONKEY,MULE,Study2,B,108,170,Study,User,-,,Study/JOL,"Study Phase",6312,,,-1,-1,,,,1
5eaad3ea17b8c30411098ec4,893f05zlsg,Nick_Dissertation_EX1,1,78,2020-06-02T10:11:00-07:00,9.9527740478516,4,versionC_stim.csv,READVersionD.csv,"Read Version D","Dissertation, read only version D",FLIP,TURN,Study2,F,116,103,Study,User,-,,Study/JOL,"Study Phase",6856,,,-1,-1,,,,1
5eaad3ea17b8c30411098ec4,893f05zlsg,Nick_Dissertation_EX1,1,79,2020-06-02T10:11:10-07:00,9.9152870178223,4,versionC_stim.csv,READVersionD.csv,"Read Version D","Dissertation, read only version D",RED,CHERRY,Study2,B,104,110,Study,User,-,,Study/JOL,"Study Phase",7977,,,-1,-1,,,,1
5eaad3ea17b8c30411098ec4,893f05zlsg,Nick_Dissertation_EX1,1,80,2020-06-02T10:11:16-07:00,5.4279658794403,4,versionC_stim.csv,READVersionD.csv,"Read Version D","Dissertation, read only version D",DRINK,WATER,Study2,S,143,97,Study,User,-,,Study/JOL,"Study Phase",1494,,,-1,-1,,,,1
5eaad3ea17b8c30411098ec4,893f05zlsg,Nick_Dissertation_EX1,1,81,2020-06-02T10:11:19-07:00,2.8953261375427,4,versionC_stim.csv,READVersionD.csv,"Read Version D","Dissertation, read only version D",PENGUIN,BIRD,Study2,F,119,168,Study,User,-,,Study/JOL,"Study Phase",1202,,,-1,-1,,,,1
5eaad3ea17b8c30411098ec4,893f05zlsg,Nick_Dissertation_EX1,1,82,2020-06-02T10:11:33-07:00,14.002465963364,4,versionC_stim.csv,READVersionD.csv,"Read Version D","Dissertation, read only version D",ELECTION,MAZE,Study2,U,159,106,Study,User,-,,Study/JOL,"Study Phase",13067,,,-1,-1,,,,1
5eaad3ea17b8c30411098ec4,893f05zlsg,Nick_Dissertation_EX1,1,83,2020-06-02T10:11:34-07:00,1.0598359107971,4,versionC_stim.csv,READVersionD.csv,"Read Version D","Dissertation, read only version D",GAME,CLUE,Study2,B,97,159,Study,User,-,,Study/JOL,"Study Phase",356,,,-1,-1,,,,1
5eaad3ea17b8c30411098ec4,893f05zlsg,Nick_Dissertation_EX1,1,84,2020-06-02T10:11:40-07:00,6.2555739879608,4,versionC_stim.csv,READVersionD.csv,"Read Version D","Dissertation, read only version D",CHARM,VEHICLE,Study2,U,160,132,Study,User,-,,Study/JOL,"Study Phase",5549,,,-1,-1,,,,1
5eaad3ea17b8c30411098ec4,893f05zlsg,Nick_Dissertation_EX1,1,85,2020-06-02T10:11:49-07:00,9.0910301208496,4,versionC_stim.csv,READVersionD.csv,"Read Version D","Dissertation, read only version D",CLOTHES,CAKE,Study2,U,166,145,Study,User,-,,Study/JOL,"Study Phase",8398,,,-1,-1,,,,1
5eaad3ea17b8c30411098ec4,893f05zlsg,Nick_Dissertation_EX1,1,86,2020-06-02T10:11:58-07:00,9.1171329021454,4,versionC_stim.csv,READVersionD.csv,"Read Version D","Dissertation, read only version D",BRAWL,FIGHT,Study2,F,135,105,Study,User,-,,Study/JOL,"Study Phase",8410,,,-1,-1,,,,1
5eaad3ea17b8c30411098ec4,893f05zlsg,Nick_Dissertation_EX1,1,87,2020-06-02T10:12:07-07:00,8.5088980197906,4,versionC_stim.csv,READVersionD.csv,"Read Version D","Dissertation, read only version D",SPOOKY,OCTOBER,BUFFER4,Buffer,180,179,Study,User,-,,Study/JOL,BUFFER2,7716,,,-1,-1,,,,1
5eaad3ea17b8c30411098ec4,893f05zlsg,Nick_Dissertation_EX1,1,88,2020-06-02T10:12:23-07:00,16.144613981247,4,versionC_stim.csv,READVersionD.csv,"Read Version D","Dissertation, read only version D",SHED,TOOL,BUFFER4,Buffer,178,181,Study,User,-,,Study/JOL,BUFFER2,10858,,,-1,-1,,,,1
5eaad3ea17b8c30411098ec4,893f05zlsg,Nick_Dissertation_EX1,1,89,2020-06-02T10:12:40-07:00,16.768774032593,4,versionC_stim.csv,READVersionD.csv,"Read Version D","Dissertation, read only version D",WEAKS,DAYS,BUFFER4,Buffer,176,180,Study,User,-,,Study/JOL,BUFFER2,15819,,,-1,-1,,,,0.898
5eaad3ea17b8c30411098ec4,893f05zlsg,Nick_Dissertation_EX1,1,90,2020-06-02T10:12:52-07:00,12.47598695755,4,versionC_stim.csv,READVersionD.csv,"Read Version D","Dissertation, read only version D",YEAR,MONTH,BUFFER4,Buffer,177,178,Study,User,-,,Study/JOL,BUFFER2,11534,,,-1,-1,,,,1
5eaad3ea17b8c30411098ec4,893f05zlsg,Nick_Dissertation_EX1,1,91,2020-06-02T10:13:00-07:00,7.5522100925446,4,versionC_stim.csv,READVersionD.csv,"Read Version D","Dissertation, read only version D",MARCH,SPRING,BUFFER4,Buffer,179,177,Study,User,-,,Study/JOL,BUFFER2,6790,,,-1,-1,,,,1
5eaad3ea17b8c30411098ec4,893f05zlsg,Nick_Dissertation_EX1,1,92,2020-06-02T10:13:04-07:00,3.9936199188232,4,versionC_stim.csv,READVersionD.csv,"Read Version D","Dissertation, read only version D",,,,,,0,Instruct,User,-,"You have completed this section. Please press Enter.",Filler_Instruction,Instruct2,3131,,,-1,-1,,,,1
5eaad3ea17b8c30411098ec4,893f05zlsg,Nick_Dissertation_EX1,1,93,2020-06-02T10:15:17-07:00,133.40357112885,4,versionC_stim.csv,READVersionD.csv,"Read Version D","Dissertation, read only version D",,,,,,0,FreeRecall,120,120,"Please list the 50 US states in alphabetical order. The task will automatically advance to the next screen after two minutes.",,Filler1,120001,"alabama alaska arizona arkansas california colorado connecticut delaware florida georgia hawai idaho illinois indiana iowa kansas kentucky lousiana maine maryland massachusetts michigan minnesota missi",0,6744,119631,0,0,,0.778
5eaad3ea17b8c30411098ec4,893f05zlsg,Nick_Dissertation_EX1,1,94,2020-06-02T10:15:36-07:00,18.728583812714,4,versionC_stim.csv,READVersionD.csv,"Read Version D","Dissertation, read only version D",,,,,,0,Instruct,-,10,"You will now be presented with the first word from each of the previously studied item pairs. Please type the missing word. If you do not know the word, you may guess or press Enter to skip forward to the next pair.",,Instruct3,17160,,,-1,-1,,,,0.711
5eaad3ea17b8c30411098ec4,893f05zlsg,Nick_Dissertation_EX1,1,95,2020-06-02T10:15:48-07:00,12.742830991745,4,versionC_stim.csv,READVersionD.csv,"Read Version D","Dissertation, read only version D",BANKER,MONEY,Study2,F,132,133,Test,User,-,,Recall,Recall1,9177,money,100,6900,8373,1,1,,1
5eaad3ea17b8c30411098ec4,893f05zlsg,Nick_Dissertation_EX1,1,96,2020-06-02T10:15:55-07:00,6.8706870079041,4,versionC_stim.csv,READVersionD.csv,"Read Version D","Dissertation, read only version D",REEL,ROD,Study2,S,150,125,Test,User,-,,Recall,Recall1,5381,rod,100,3363,4335,1,1,,1
5eaad3ea17b8c30411098ec4,893f05zlsg,Nick_Dissertation_EX1,1,97,2020-06-02T10:16:43-07:00,47.326503038406,4,versionC_stim.csv,READVersionD.csv,"Read Version D","Dissertation, read only version D",GAME,CLUE,Study2,B,97,159,Test,User,-,,Recall,Recall1,46370,sport,0,43816,45812,0,0,,1
5eaad3ea17b8c30411098ec4,893f05zlsg,Nick_Dissertation_EX1,1,98,2020-06-02T10:16:56-07:00,13.401849985123,4,versionC_stim.csv,READVersionD.csv,"Read Version D","Dissertation, read only version D",CHARM,VEHICLE,Study2,U,160,132,Test,User,-,,Recall,Recall1,10322,vehicle,100,6382,8990,1,1,,1
5eaad3ea17b8c30411098ec4,893f05zlsg,Nick_Dissertation_EX1,1,99,2020-06-02T10:17:07-07:00,10.906773090363,4,versionC_stim.csv,READVersionD.csv,"Read Version D","Dissertation, read only version D",PANTHER,CAT,Study2,F,126,135,Test,User,-,,Recall,Recall1,8807,,0,-1,-1,0,0,,1
5eaad3ea17b8c30411098ec4,893f05zlsg,Nick_Dissertation_EX1,1,100,2020-06-02T10:17:12-07:00,4.7040910720825,4,versionC_stim.csv,READVersionD.csv,"Read Version D","Dissertation, read only version D",DRINK,WATER,Study2,S,143,97,Test,User,-,,Recall,Recall1,3774,water,100,2020,3021,1,1,,1
5eaad3ea17b8c30411098ec4,893f05zlsg,Nick_Dissertation_EX1,1,101,2020-06-02T10:17:31-07:00,19.10858798027,4,versionC_stim.csv,READVersionD.csv,"Read Version D","Dissertation, read only version D",PAPER,DOCUMENT,Study2,B,109,138,Test,User,-,,Recall,Recall1,17170,document,100,14558,16333,1,1,,1
5eaad3ea17b8c30411098ec4,893f05zlsg,Nick_Dissertation_EX1,1,102,2020-06-02T10:17:46-07:00,14.933266878128,4,versionC_stim.csv,READVersionD.csv,"Read Version D","Dissertation, read only version D",HAVE,OWN,Study2,S,153,140,Test,User,-,,Recall,Recall1,13976,own,100,13212,13628,1,1,,1
5eaad3ea17b8c30411098ec4,893f05zlsg,Nick_Dissertation_EX1,1,103,2020-06-02T10:18:28-07:00,41.847639083862,4,versionC_stim.csv,READVersionD.csv,"Read Version D","Dissertation, read only version D",LONG,EXTENSION,Study2,B,96,174,Test,User,-,,Recall,Recall1,40486,,0,-1,-1,0,0,,1
5eaad3ea17b8c30411098ec4,893f05zlsg,Nick_Dissertation_EX1,1,104,2020-06-02T10:18:43-07:00,15.212801933289,4,versionC_stim.csv,READVersionD.csv,"Read Version D","Dissertation, read only version D",HATE,NAME,Study2,U,167,167,Test,User,-,,Recall,Recall1,14225,love,25,12344,13593,0,0,,1
5eaad3ea17b8c30411098ec4,893f05zlsg,Nick_Dissertation_EX1,1,105,2020-06-02T10:19:04-07:00,21.70595908165,4,versionC_stim.csv,READVersionD.csv,"Read Version D","Dissertation, read only version D",GROUND,EARTH,Study2,S,144,157,Test,User,-,,Recall,Recall1,18781,earth,100,17389,18168,1,1,,1
5eaad3ea17b8c30411098ec4,893f05zlsg,Nick_Dissertation_EX1,1,106,2020-06-02T10:19:26-07:00,21.69598698616,4,versionC_stim.csv,READVersionD.csv,"Read Version D","Dissertation, read only version D",NAP,SLEEP,Study2,F,134,158,Test,User,-,,Recall,Recall1,20473,sleep,100,18846,19759,1,1,,0.699
5eaad3ea17b8c30411098ec4,893f05zlsg,Nick_Dissertation_EX1,1,107,2020-06-02T10:19:34-07:00,8.2394649982452,4,versionC_stim.csv,READVersionD.csv,"Read Version D","Dissertation, read only version D",AIRCRAFT,PLANE,Study2,F,129,121,Test,User,-,,Recall,Recall1,6042,plane,100,2055,5488,1,1,,1
5eaad3ea17b8c30411098ec4,893f05zlsg,Nick_Dissertation_EX1,1,108,2020-06-02T10:19:40-07:00,5.9768979549408,4,versionC_stim.csv,READVersionD.csv,"Read Version D","Dissertation, read only version D",BRAWL,FIGHT,Study2,F,135,105,Test,User,-,,Recall,Recall1,3164,fight,100,2060,2632,1,1,,1
5eaad3ea17b8c30411098ec4,893f05zlsg,Nick_Dissertation_EX1,1,109,2020-06-02T10:20:00-07:00,20.076605081558,4,versionC_stim.csv,READVersionD.csv,"Read Version D","Dissertation, read only version D",SMELL,INCENSE,Study2,B,110,137,Test,User,-,,Recall,Recall1,15290,incense,100,13800,14694,1,1,,1
5eaad3ea17b8c30411098ec4,893f05zlsg,Nick_Dissertation_EX1,1,110,2020-06-02T10:20:05-07:00,4.1187078952789,4,versionC_stim.csv,READVersionD.csv,"Read Version D","Dissertation, read only version D",TRUTHFUL,HONEST,Study2,F,133,142,Test,User,-,,Recall,Recall1,3414,honest,100,1887,2699,1,1,,1
5eaad3ea17b8c30411098ec4,893f05zlsg,Nick_Dissertation_EX1,1,111,2020-06-02T10:20:08-07:00,3.7806780338287,4,versionC_stim.csv,READVersionD.csv,"Read Version D","Dissertation, read only version D",BRACELET,WRIST,Study2,S,140,126,Test,User,-,,Recall,Recall1,3024,wrist,100,1479,2114,1,1,,1
5eaad3ea17b8c30411098ec4,893f05zlsg,Nick_Dissertation_EX1,1,112,2020-06-02T10:20:30-07:00,22.066979885101,4,versionC_stim.csv,READVersionD.csv,"Read Version D","Dissertation, read only version D",AWAY,GONE,Study2,S,142,155,Test,User,-,,Recall,Recall1,20776,home,50,19743,20242,0,0,,1
5eaad3ea17b8c30411098ec4,893f05zlsg,Nick_Dissertation_EX1,1,113,2020-06-02T10:20:39-07:00,8.6882691383362,4,versionC_stim.csv,READVersionD.csv,"Read Version D","Dissertation, read only version D",NOISE,LOUD,Study2,S,152,169,Test,User,-,,Recall,Recall1,7011,loud,100,5592,6332,1,1,,1
5eaad3ea17b8c30411098ec4,893f05zlsg,Nick_Dissertation_EX1,1,114,2020-06-02T10:20:55-07:00,16.021112918854,4,versionC_stim.csv,READVersionD.csv,"Read Version D","Dissertation, read only version D",CAR,DRIVER,Study2,B,106,122,Test,User,-,,Recall,Recall1,15060,driver,100,13114,14646,1,1,,1
5eaad3ea17b8c30411098ec4,893f05zlsg,Nick_Dissertation_EX1,1,115,2020-06-02T10:21:42-07:00,46.594540119171,4,versionC_stim.csv,READVersionD.csv,"Read Version D","Dissertation, read only version D",DOG,FURRY,Study2,B,102,148,Test,User,-,,Recall,Recall1,45621,bark,22.222222222222,41780,43623,0,0,,1
5eaad3ea17b8c30411098ec4,893f05zlsg,Nick_Dissertation_EX1,1,116,2020-06-02T10:21:57-07:00,15.36283993721,4,versionC_stim.csv,READVersionD.csv,"Read Version D","Dissertation, read only version D",THIMBLE,THREAD,Study2,F,121,175,Test,User,-,,Recall,Recall1,14314,,0,-1,-1,0,0,,1
5eaad3ea17b8c30411098ec4,893f05zlsg,Nick_Dissertation_EX1,1,117,2020-06-02T10:22:03-07:00,5.926362991333,4,versionC_stim.csv,READVersionD.csv,"Read Version D","Dissertation, read only version D",SIGN,LOAN,Study2,U,171,143,Test,User,-,,Recall,Recall1,5161,loan,100,4019,4542,1,1,,1
5eaad3ea17b8c30411098ec4,893f05zlsg,Nick_Dissertation_EX1,1,118,2020-06-02T10:23:11-07:00,67.737582921982,4,versionC_stim.csv,READVersionD.csv,"Read Version D","Dissertation, read only version D",CLEAR,MOAT,Study2,U,169,136,Test,User,-,,Recall,Recall1,66816,,0,-1,-1,0,0,,1
5eaad3ea17b8c30411098ec4,893f05zlsg,Nick_Dissertation_EX1,1,119,2020-06-02T10:23:16-07:00,5.2525780200958,4,versionC_stim.csv,READVersionD.csv,"Read Version D","Dissertation, read only version D",OBTAIN,MEAT,Study2,U,161,130,Test,User,-,,Recall,Recall1,3516,take,25,2217,2723,0,0,,1
5eaad3ea17b8c30411098ec4,893f05zlsg,Nick_Dissertation_EX1,1,120,2020-06-02T10:23:25-07:00,8.6774930953979,4,versionC_stim.csv,READVersionD.csv,"Read Version D","Dissertation, read only version D",PLANT,CACTUS,Study2,B,98,162,Test,User,-,,Recall,Recall1,5687,cactus,100,3994,5095,1,1,,1
5eaad3ea17b8c30411098ec4,893f05zlsg,Nick_Dissertation_EX1,1,121,2020-06-02T10:23:31-07:00,6.4057400226593,4,versionC_stim.csv,READVersionD.csv,"Read Version D","Dissertation, read only version D",TICK,FLEA,Study2,S,151,160,Test,User,-,,Recall,Recall1,5305,bug,0,4334,5152,0,0,,0.917
5eaad3ea17b8c30411098ec4,893f05zlsg,Nick_Dissertation_EX1,1,122,2020-06-02T10:23:54-07:00,22.796486854553,4,versionC_stim.csv,READVersionD.csv,"Read Version D","Dissertation, read only version D",MYSTERY,DETECTIVE,Study2,B,100,101,Test,User,-,,Recall,Recall1,21857,detective,100,19150,21367,1,1,,1
5eaad3ea17b8c30411098ec4,893f05zlsg,Nick_Dissertation_EX1,1,123,2020-06-02T10:23:59-07:00,5.3194251060486,4,versionC_stim.csv,READVersionD.csv,"Read Version D","Dissertation, read only version D",CLOTHES,CAKE,Study2,U,166,145,Test,User,-,,Recall,Recall1,4528,,0,-1,-1,0,0,,1
5eaad3ea17b8c30411098ec4,893f05zlsg,Nick_Dissertation_EX1,1,124,2020-06-02T10:24:24-07:00,24.345392942429,4,versionC_stim.csv,READVersionD.csv,"Read Version D","Dissertation, read only version D",FAVORITE,BEST,Study2,F,125,171,Test,User,-,,Recall,Recall1,21584,,0,-1,-1,0,0,,1
5eaad3ea17b8c30411098ec4,893f05zlsg,Nick_Dissertation_EX1,1,125,2020-06-02T10:24:35-07:00,11.9125020504,4,versionC_stim.csv,READVersionD.csv,"Read Version D","Dissertation, read only version D",MAROON,JUSTICE,Study2,U,156,150,Test,User,-,,Recall,Recall1,10945,color,16.666666666667,9529,10131,0,0,,1
5eaad3ea17b8c30411098ec4,893f05zlsg,Nick_Dissertation_EX1,1,126,2020-06-02T10:25:01-07:00,25.150424957275,4,versionC_stim.csv,READVersionD.csv,"Read Version D","Dissertation, read only version D",HEAD,SCALP,Study2,B,105,115,Test,User,-,,Recall,Recall1,24210,scalp,100,22400,23645,1,1,,1
5eaad3ea17b8c30411098ec4,893f05zlsg,Nick_Dissertation_EX1,1,127,2020-06-02T10:25:07-07:00,6.4813270568848,4,versionC_stim.csv,READVersionD.csv,"Read Version D","Dissertation, read only version D",DONKEY,MULE,Study2,B,108,170,Test,User,-,,Recall,Recall1,5708,animal,40,3199,5412,0,0,,1
5eaad3ea17b8c30411098ec4,893f05zlsg,Nick_Dissertation_EX1,1,128,2020-06-02T10:25:21-07:00,13.905746936798,4,versionC_stim.csv,READVersionD.csv,"Read Version D","Dissertation, read only version D",COMMUNICATION,PHONE,Study2,S,149,98,Test,User,-,,Recall,Recall1,12912,phone,100,9375,12181,1,1,,1
5eaad3ea17b8c30411098ec4,893f05zlsg,Nick_Dissertation_EX1,1,129,2020-06-02T10:25:33-07:00,12.33610701561,4,versionC_stim.csv,READVersionD.csv,"Read Version D","Dissertation, read only version D",EAT,DINE,Study2,B,111,109,Test,User,-,,Recall,Recall1,11348,dine,100,10514,10862,1,1,,1
5eaad3ea17b8c30411098ec4,893f05zlsg,Nick_Dissertation_EX1,1,130,2020-06-02T10:25:41-07:00,7.3022470474243,4,versionC_stim.csv,READVersionD.csv,"Read Version D","Dissertation, read only version D",SHAVE,RAZOR,Study2,S,136,151,Test,User,-,,Recall,Recall1,2802,cut,0,2244,2526,0,0,,1
5eaad3ea17b8c30411098ec4,893f05zlsg,Nick_Dissertation_EX1,1,131,2020-06-02T10:26:14-07:00,33.233193874359,4,versionC_stim.csv,READVersionD.csv,"Read Version D","Dissertation, read only version D",SCAR,MAIN,Study2,U,175,117,Test,User,-,,Recall,Recall1,29046,,0,-1,-1,0,0,,1
5eaad3ea17b8c30411098ec4,893f05zlsg,Nick_Dissertation_EX1,1,132,2020-06-02T10:26:41-07:00,27.222892999649,4,versionC_stim.csv,READVersionD.csv,"Read Version D","Dissertation, read only version D",END,ADJOURN,Study2,B,101,161,Test,User,-,,Recall,Recall1,24249,adjourn,100,18892,23555,1,1,,1
5eaad3ea17b8c30411098ec4,893f05zlsg,Nick_Dissertation_EX1,1,133,2020-06-02T10:27:02-07:00,21.369506120682,4,versionC_stim.csv,READVersionD.csv,"Read Version D","Dissertation, read only version D",BANG,FUZZY,Study2,U,168,119,Test,User,-,,Recall,Recall1,18191,fuzzy,100,14650,17822,1,1,,1
5eaad3ea17b8c30411098ec4,893f05zlsg,Nick_Dissertation_EX1,1,134,2020-06-02T10:27:19-07:00,16.661159992218,4,versionC_stim.csv,READVersionD.csv,"Read Version D","Dissertation, read only version D",EQUAL,RIGHTS,Study2,S,137,149,Test,User,-,,Recall,Recall1,10876,rights,100,9343,10326,1,1,,1
5eaad3ea17b8c30411098ec4,893f05zlsg,Nick_Dissertation_EX1,1,135,2020-06-02T10:27:35-07:00,16.223692893982,4,versionC_stim.csv,READVersionD.csv,"Read Version D","Dissertation, read only version D",CHILDREN,MIRROR,Study2,U,174,173,Test,User,-,,Recall,Recall1,13726,,0,2761,2761,0,0,,1
5eaad3ea17b8c30411098ec4,893f05zlsg,Nick_Dissertation_EX1,1,136,2020-06-02T10:27:39-07:00,3.7790191173553,4,versionC_stim.csv,READVersionD.csv,"Read Version D","Dissertation, read only version D",TOIL,LEASE,Study2,U,170,172,Test,User,-,,Recall,Recall1,3079,,0,-1,-1,0,0,,1
5eaad3ea17b8c30411098ec4,893f05zlsg,Nick_Dissertation_EX1,1,137,2020-06-02T10:27:53-07:00,13.717619895935,4,versionC_stim.csv,READVersionD.csv,"Read Version D","Dissertation, read only version D",WET,DRY,Study2,S,146,108,Test,User,-,,Recall,Recall1,12166,dry,100,11096,11510,1,1,,1
5eaad3ea17b8c30411098ec4,893f05zlsg,Nick_Dissertation_EX1,1,138,2020-06-02T10:27:57-07:00,4.5928211212158,4,versionC_stim.csv,READVersionD.csv,"Read Version D","Dissertation, read only version D",SCISSORS,SHEARS,Study2,B,112,165,Test,User,-,,Recall,Recall1,3859,shears,100,1518,3049,1,1,,1
5eaad3ea17b8c30411098ec4,893f05zlsg,Nick_Dissertation_EX1,1,139,2020-06-02T10:28:14-07:00,16.636569023132,4,versionC_stim.csv,READVersionD.csv,"Read Version D","Dissertation, read only version D",TAN,SUN,Study2,S,155,127,Test,User,-,,Recall,Recall1,12227,sun,100,11620,11907,1,1,,1
5eaad3ea17b8c30411098ec4,893f05zlsg,Nick_Dissertation_EX1,1,140,2020-06-02T10:28:52-07:00,37.885267972946,4,versionC_stim.csv,READVersionD.csv,"Read Version D","Dissertation, read only version D",Morning,TEMPERATURE,Study2,U,173,129,Test,User,-,,Recall,Recall1,9041,day,14.285714285714,7749,8721,0,0,,1
5eaad3ea17b8c30411098ec4,893f05zlsg,Nick_Dissertation_EX1,1,141,2020-06-02T10:34:25-07:00,333.16444301605,4,versionC_stim.csv,READVersionD.csv,"Read Version D","Dissertation, read only version D",CLOTH,STRETCH,Study2,U,157,104,Test,User,-,,Recall,Recall1,27101,wear,18.181818181818,25834,26601,0,0,,1
5eaad3ea17b8c30411098ec4,893f05zlsg,Nick_Dissertation_EX1,1,142,2020-06-02T10:34:34-07:00,9.1655600070953,4,versionC_stim.csv,READVersionD.csv,"Read Version D","Dissertation, read only version D",CUT,CHOP,Study2,B,107,147,Test,User,-,,Recall,Recall1,8452,shear,22.222222222222,4653,7662,0,0,,1
5eaad3ea17b8c30411098ec4,893f05zlsg,Nick_Dissertation_EX1,1,143,2020-06-02T10:34:40-07:00,5.589292049408,4,versionC_stim.csv,READVersionD.csv,"Read Version D","Dissertation, read only version D",ABLE,CRACKLE,Study2,U,162,116,Test,User,-,,Recall,Recall1,4654,,0,-1,-1,0,0,,1
5eaad3ea17b8c30411098ec4,893f05zlsg,Nick_Dissertation_EX1,1,144,2020-06-02T10:34:54-07:00,14.097725868225,4,versionC_stim.csv,READVersionD.csv,"Read Version D","Dissertation, read only version D",LOVE,AFFECTION,Study2,B,115,118,Test,User,-,,Recall,Recall1,12854,hate,30.769230769231,11787,12191,0,0,,1
5eaad3ea17b8c30411098ec4,893f05zlsg,Nick_Dissertation_EX1,1,145,2020-06-02T10:35:19-07:00,25.229288101196,4,versionC_stim.csv,READVersionD.csv,"Read Version D","Dissertation, read only version D",TEMPER,TANTRUM,Study2,S,154,112,Test,User,-,,Recall,Recall1,20738,,0,-1,-1,0,0,,1
5eaad3ea17b8c30411098ec4,893f05zlsg,Nick_Dissertation_EX1,1,146,2020-06-02T10:35:34-07:00,14.653417825699,4,versionC_stim.csv,READVersionD.csv,"Read Version D","Dissertation, read only version D",LEAGUE,BASEBALL,Study2,F,131,152,Test,User,-,,Recall,Recall1,10057,baseball,100,8379,9604,1,1,,1
5eaad3ea17b8c30411098ec4,893f05zlsg,Nick_Dissertation_EX1,1,147,2020-06-02T10:35:40-07:00,6.2826941013336,4,versionC_stim.csv,READVersionD.csv,"Read Version D","Dissertation, read only version D",FIGHT,FEUD,Study2,B,113,100,Test,User,-,,Recall,Recall1,5455,brawl,0,1890,5148,0,0,,1
5eaad3ea17b8c30411098ec4,893f05zlsg,Nick_Dissertation_EX1,1,148,2020-06-02T10:35:42-07:00,1.9099769592285,4,versionC_stim.csv,READVersionD.csv,"Read Version D","Dissertation, read only version D",ACTRESS,STAR,Study2,F,120,141,Test,User,-,,Recall,Recall1,1166,,0,-1,-1,0,0,,1
5eaad3ea17b8c30411098ec4,893f05zlsg,Nick_Dissertation_EX1,1,149,2020-06-02T10:35:46-07:00,3.6966660022736,4,versionC_stim.csv,READVersionD.csv,"Read Version D","Dissertation, read only version D",LIE,TRUTH,Study2,S,148,124,Test,User,-,,Recall,Recall1,2659,detector,30.769230769231,1110,2402,0,0,,1
5eaad3ea17b8c30411098ec4,893f05zlsg,Nick_Dissertation_EX1,1,150,2020-06-02T10:36:18-07:00,32.584453105927,4,versionC_stim.csv,READVersionD.csv,"Read Version D","Dissertation, read only version D",BREAKABLE,GLASS,Study2,F,127,146,Test,User,-,,Recall,Recall1,22550,glass,100,18348,21977,1,1,,1
5eaad3ea17b8c30411098ec4,893f05zlsg,Nick_Dissertation_EX1,1,151,2020-06-02T10:36:34-07:00,15.154345035553,4,versionC_stim.csv,READVersionD.csv,"Read Version D","Dissertation, read only version D",REVENGE,EVEN,Study2,F,122,144,Test,User,-,,Recall,Recall1,13447,even,100,11495,13081,1,1,,1
5eaad3ea17b8c30411098ec4,893f05zlsg,Nick_Dissertation_EX1,1,152,2020-06-02T10:36:37-07:00,3.7537608146667,4,versionC_stim.csv,READVersionD.csv,"Read Version D","Dissertation, read only version D",FLIP,TURN,Study2,F,116,103,Test,User,-,,Recall,Recall1,2725,turn,100,2025,2435,1,1,,1
5eaad3ea17b8c30411098ec4,893f05zlsg,Nick_Dissertation_EX1,1,153,2020-06-02T10:36:43-07:00,5.9737460613251,4,versionC_stim.csv,READVersionD.csv,"Read Version D","Dissertation, read only version D",ELECTION,MAZE,Study2,U,159,106,Test,User,-,,Recall,Recall1,4934,maze,100,3729,4551,1,1,,1
5eaad3ea17b8c30411098ec4,893f05zlsg,Nick_Dissertation_EX1,1,154,2020-06-02T10:37:01-07:00,18.174926996231,4,versionC_stim.csv,READVersionD.csv,"Read Version D","Dissertation, read only version D",FICTION,LISTEN,Study2,U,164,102,Test,User,-,,Recall,Recall1,17257,novel,18.181818181818,4753,16980,0,0,,1
5eaad3ea17b8c30411098ec4,893f05zlsg,Nick_Dissertation_EX1,1,155,2020-06-02T10:37:05-07:00,3.6654810905457,4,versionC_stim.csv,READVersionD.csv,"Read Version D","Dissertation, read only version D",JOKE,KEYS,Study2,U,165,111,Test,User,-,,Recall,Recall1,2647,,0,-1,-1,0,0,,1
5eaad3ea17b8c30411098ec4,893f05zlsg,Nick_Dissertation_EX1,1,156,2020-06-02T10:37:09-07:00,3.743793964386,4,versionC_stim.csv,READVersionD.csv,"Read Version D","Dissertation, read only version D",LONELY,ALONE,Study2,S,145,156,Test,User,-,,Recall,Recall1,2298,alone,100,1468,2098,1,1,,1
5eaad3ea17b8c30411098ec4,893f05zlsg,Nick_Dissertation_EX1,1,157,2020-06-02T10:37:14-07:00,5.0870468616486,4,versionC_stim.csv,READVersionD.csv,"Read Version D","Dissertation, read only version D",PENGUIN,BIRD,Study2,F,119,168,Test,User,-,,Recall,Recall1,3941,bird,100,3191,3724,1,1,,1
5eaad3ea17b8c30411098ec4,893f05zlsg,Nick_Dissertation_EX1,1,158,2020-06-02T10:37:18-07:00,4.4360761642456,4,versionC_stim.csv,READVersionD.csv,"Read Version D","Dissertation, read only version D",VILLAIN,BAD,Study2,F,118,134,Test,User,-,,Recall,Recall1,3721,bad,100,3101,3483,1,1,,1
5eaad3ea17b8c30411098ec4,893f05zlsg,Nick_Dissertation_EX1,1,159,2020-06-02T10:37:25-07:00,6.4686629772186,4,versionC_stim.csv,READVersionD.csv,"Read Version D","Dissertation, read only version D",CARBON,ELEMENT,Study2,S,141,164,Test,User,-,,Recall,Recall1,3518,element,100,2584,3302,1,1,,1
5eaad3ea17b8c30411098ec4,893f05zlsg,Nick_Dissertation_EX1,1,160,2020-06-02T10:37:30-07:00,5.2212629318237,4,versionC_stim.csv,READVersionD.csv,"Read Version D","Dissertation, read only version D",STRAWBERRY,FRUIT,Study2,F,124,176,Test,User,-,,Recall,Recall1,4132,fruit,100,1317,4008,1,1,,1
5eaad3ea17b8c30411098ec4,893f05zlsg,Nick_Dissertation_EX1,1,161,2020-06-02T10:37:35-07:00,5.2081761360168,4,versionC_stim.csv,READVersionD.csv,"Read Version D","Dissertation, read only version D",COLD,CHILL,Study2,B,114,107,Test,User,-,,Recall,Recall1,2976,hot,25,2271,2551,0,0,,1
5eaad3ea17b8c30411098ec4,893f05zlsg,Nick_Dissertation_EX1,1,162,2020-06-02T10:37:41-07:00,5.7240250110626,4,versionC_stim.csv,READVersionD.csv,"Read Version D","Dissertation, read only version D",WINDSHIELD,CAR,Study2,F,117,128,Test,User,-,,Recall,Recall1,4973,car,100,4400,4812,1,1,,1
5eaad3ea17b8c30411098ec4,893f05zlsg,Nick_Dissertation_EX1,1,163,2020-06-02T10:37:50-07:00,9.3211379051208,4,versionC_stim.csv,READVersionD.csv,"Read Version D","Dissertation, read only version D",TIE,SHOELACE,Study2,B,99,114,Test,User,-,,Recall,Recall1,6899,shoelace,100,2330,6711,1,1,,1
5eaad3ea17b8c30411098ec4,893f05zlsg,Nick_Dissertation_EX1,1,164,2020-06-02T10:38:00-07:00,9.6232318878174,4,versionC_stim.csv,READVersionD.csv,"Read Version D","Dissertation, read only version D",OUNCE,BOTH,Study2,U,172,163,Test,User,-,,Recall,Recall1,8621,,0,-1,-1,0,0,,1
5eaad3ea17b8c30411098ec4,893f05zlsg,Nick_Dissertation_EX1,1,165,2020-06-02T10:38:03-07:00,2.6315820217133,4,versionC_stim.csv,READVersionD.csv,"Read Version D","Dissertation, read only version D",STEAK,GIVE,Study2,U,158,154,Test,User,-,,Recall,Recall1,1938,,0,-1,-1,0,0,,1
5eaad3ea17b8c30411098ec4,893f05zlsg,Nick_Dissertation_EX1,1,166,2020-06-02T10:38:12-07:00,9.5596339702606,4,versionC_stim.csv,READVersionD.csv,"Read Version D","Dissertation, read only version D",RED,CHERRY,Study2,B,104,110,Test,User,-,,Recall,Recall1,7938,colour,33.333333333333,2893,7760,0,0,,1
5eaad3ea17b8c30411098ec4,893f05zlsg,Nick_Dissertation_EX1,1,167,2020-06-02T10:38:30-07:00,17.77432012558,4,versionC_stim.csv,READVersionD.csv,"Read Version D","Dissertation, read only version D",COFFIN,DEAD,Study2,F,128,166,Test,User,-,,Recall,Recall1,12916,death,66.666666666667,1236,5537,0,0,,1
5eaad3ea17b8c30411098ec4,893f05zlsg,Nick_Dissertation_EX1,1,168,2020-06-02T10:38:36-07:00,6.1778380870819,4,versionC_stim.csv,READVersionD.csv,"Read Version D","Dissertation, read only version D",JAR,MASON,Study2,S,138,139,Test,User,-,,Recall,Recall1,2192,,0,-1,-1,0,0,,1
5eaad3ea17b8c30411098ec4,893f05zlsg,Nick_Dissertation_EX1,1,169,2020-06-02T10:38:46-07:00,10.355606794357,4,versionC_stim.csv,READVersionD.csv,"Read Version D","Dissertation, read only version D",WAX,CANDLE,Study2,S,139,113,Test,User,-,,Recall,Recall1,4976,melt,20,3701,4671,0,0,,0.9
5eaad3ea17b8c30411098ec4,893f05zlsg,Nick_Dissertation_EX1,1,170,2020-06-02T10:38:50-07:00,3.3296132087708,4,versionC_stim.csv,READVersionD.csv,"Read Version D","Dissertation, read only version D",SARDINE,FISH,Study2,F,130,123,Test,User,-,,Recall,Recall1,2618,,0,1038,1038,0,0,,1
5eaad3ea17b8c30411098ec4,893f05zlsg,Nick_Dissertation_EX1,1,171,2020-06-02T10:39:09-07:00,19.55827999115,4,versionC_stim.csv,READVersionD.csv,"Read Version D","Dissertation, read only version D",BALLOON,POP,Study2,F,123,120,Test,User,-,,Recall,Recall1,17417,pop,100,16343,16619,1,1,,1
5eaad3ea17b8c30411098ec4,893f05zlsg,Nick_Dissertation_EX1,1,172,2020-06-02T10:39:11-07:00,1.8093810081482,4,versionC_stim.csv,READVersionD.csv,"Read Version D","Dissertation, read only version D",SEATBELT,SAFETY,Study2,S,147,153,Test,User,-,,Recall,Recall1,1034,,0,-1,-1,0,0,,1
5eaad3ea17b8c30411098ec4,893f05zlsg,Nick_Dissertation_EX1,1,173,2020-06-02T10:39:14-07:00,2.9096028804779,4,versionC_stim.csv,READVersionD.csv,"Read Version D","Dissertation, read only version D",TRASH,LITTER,Study2,B,103,99,Test,User,-,,Recall,Recall1,2159,,0,-1,-1,0,0,,1
5eaad3ea17b8c30411098ec4,893f05zlsg,Nick_Dissertation_EX1,1,174,2020-06-02T10:39:16-07:00,1.7593469619751,4,versionC_stim.csv,READVersionD.csv,"Read Version D","Dissertation, read only version D",SHAKE,Shell,Study2,U,163,131,Test,User,-,,Recall,Recall1,1033,,0,-1,-1,0,0,,1
5eaad3ea17b8c30411098ec4,893f05zlsg,Nick_Dissertation_EX1,1,175,2020-06-02T10:39:29-07:00,13.398661136627,4,versionC_stim.csv,READVersionD.csv,"Read Version D","Dissertation, read only version D",,,,,,0,Instruct,-,10,"You will now be presented with a new set of word pairs. Please study each pair. Remember that your memory will be tested! When finished, press Enter to move to the next pair.",Initial_Instruct,Instruct4,12372,,,-1,-1,,,,1
5eaad3ea17b8c30411098ec4,893f05zlsg,Nick_Dissertation_EX1,1,176,2020-06-02T10:39:31-07:00,2.2630789279938,4,versionC_stim.csv,READVersionD.csv,"Read Version D","Dissertation, read only version D",GREEN,TREES,BUFFER1,Buffer,1,6,Study,User,-,,Study/JOL,BUFFER3,1532,,,-1,-1,,,,1
5eaad3ea17b8c30411098ec4,893f05zlsg,Nick_Dissertation_EX1,1,177,2020-06-02T10:39:34-07:00,2.1031000614166,4,versionC_stim.csv,READVersionD.csv,"Read Version D","Dissertation, read only version D",HIDE,SCARE,BUFFER1,Buffer,4,5,Study,User,-,,Study/JOL,BUFFER3,1225,,,-1,-1,,,,1
5eaad3ea17b8c30411098ec4,893f05zlsg,Nick_Dissertation_EX1,1,178,2020-06-02T10:39:37-07:00,3.0673198699951,4,versionC_stim.csv,READVersionD.csv,"Read Version D","Dissertation, read only version D",CATCHER,BASEBALL,BUFFER1,Buffer,2,3,Study,User,-,,Study/JOL,BUFFER3,2318,,,-1,-1,,,,1
5eaad3ea17b8c30411098ec4,893f05zlsg,Nick_Dissertation_EX1,1,179,2020-06-02T10:39:39-07:00,1.9329869747162,4,versionC_stim.csv,READVersionD.csv,"Read Version D","Dissertation, read only version D",BUTTER,PEANUT,BUFFER1,Buffer,3,2,Study,User,-,,Study/JOL,BUFFER3,919,,,-1,-1,,,,1
5eaad3ea17b8c30411098ec4,893f05zlsg,Nick_Dissertation_EX1,1,180,2020-06-02T10:39:40-07:00,1.3668501377106,4,versionC_stim.csv,READVersionD.csv,"Read Version D","Dissertation, read only version D",JAM,SPACE,BUFFER1,Buffer,5,4,Study,User,-,,Study/JOL,BUFFER3,580,,,-1,-1,,,,1
5eaad3ea17b8c30411098ec4,893f05zlsg,Nick_Dissertation_EX1,1,181,2020-06-02T10:39:41-07:00,1.4750390052795,4,versionC_stim.csv,READVersionD.csv,"Read Version D","Dissertation, read only version D",SALAD,LETTUCE,Study1,S,59,57,Study,User,-,,Study/JOL,"Study Phase2",568,,,-1,-1,,,,1
5eaad3ea17b8c30411098ec4,893f05zlsg,Nick_Dissertation_EX1,1,182,2020-06-02T10:39:43-07:00,1.2199568748474,4,versionC_stim.csv,READVersionD.csv,"Read Version D","Dissertation, read only version D",SEIZE,TAKE,Study1,F,29,29,Study,User,-,,Study/JOL,"Study Phase2",564,,,-1,-1,,,,1
5eaad3ea17b8c30411098ec4,893f05zlsg,Nick_Dissertation_EX1,1,183,2020-06-02T10:39:44-07:00,1.8597531318665,4,versionC_stim.csv,READVersionD.csv,"Read Version D","Dissertation, read only version D",CHORE,WORK,Study1,F,39,15,Study,User,-,,Study/JOL,"Study Phase2",538,,,-1,-1,,,,1
5eaad3ea17b8c30411098ec4,893f05zlsg,Nick_Dissertation_EX1,1,184,2020-06-02T10:39:46-07:00,1.3720359802246,4,versionC_stim.csv,READVersionD.csv,"Read Version D","Dissertation, read only version D",OUT,WAY,Study1,B,16,39,Study,User,-,,Study/JOL,"Study Phase2",566,,,-1,-1,,,,1
5eaad3ea17b8c30411098ec4,893f05zlsg,Nick_Dissertation_EX1,1,185,2020-06-02T10:40:06-07:00,20.51152586937,4,versionC_stim.csv,READVersionD.csv,"Read Version D","Dissertation, read only version D",RACKET,BALL,Study1,F,38,81,Study,User,-,,Study/JOL,"Study Phase2",1400,,,-1,-1,,,,1
5eaad3ea17b8c30411098ec4,893f05zlsg,Nick_Dissertation_EX1,1,186,2020-06-02T10:40:44-07:00,37.908244132996,4,versionC_stim.csv,READVersionD.csv,"Read Version D","Dissertation, read only version D",TUCK,ALLOW,Study1,U,78,76,Study,User,-,,Study/JOL,"Study Phase2",30776,,,-1,-1,,,,1
5eaad3ea17b8c30411098ec4,893f05zlsg,Nick_Dissertation_EX1,1,187,2020-06-02T10:40:46-07:00,1.8694739341736,4,versionC_stim.csv,READVersionD.csv,"Read Version D","Dissertation, read only version D",CARD,CREDIT,Study1,B,23,31,Study,User,-,,Study/JOL,"Study Phase2",1205,,,-1,-1,,,,1
5eaad3ea17b8c30411098ec4,893f05zlsg,Nick_Dissertation_EX1,1,188,2020-06-02T10:40:48-07:00,1.4128570556641,4,versionC_stim.csv,READVersionD.csv,"Read Version D","Dissertation, read only version D",BRONZE,ARTERY,Study1,U,74,37,Study,User,-,,Study/JOL,"Study Phase2",724,,,-1,-1,,,,1
5eaad3ea17b8c30411098ec4,893f05zlsg,Nick_Dissertation_EX1,1,189,2020-06-02T10:40:49-07:00,1.29217004776,4,versionC_stim.csv,READVersionD.csv,"Read Version D","Dissertation, read only version D",HAMMER,CHISEL,Study1,B,9,74,Study,User,-,,Study/JOL,"Study Phase2",611,,,-1,-1,,,,1
5eaad3ea17b8c30411098ec4,893f05zlsg,Nick_Dissertation_EX1,1,190,2020-06-02T10:40:50-07:00,1.2701828479767,4,versionC_stim.csv,READVersionD.csv,"Read Version D","Dissertation, read only version D",STING,HORNET,Study1,B,11,10,Study,User,-,,Study/JOL,"Study Phase2",592,,,-1,-1,,,,1
5eaad3ea17b8c30411098ec4,893f05zlsg,Nick_Dissertation_EX1,1,191,2020-06-02T10:40:51-07:00,1.2318229675293,4,versionC_stim.csv,READVersionD.csv,"Read Version D","Dissertation, read only version D",MONEY,WAGE,Study1,B,8,46,Study,User,-,,Study/JOL,"Study Phase2",564,,,-1,-1,,,,1
5eaad3ea17b8c30411098ec4,893f05zlsg,Nick_Dissertation_EX1,1,192,2020-06-02T10:40:53-07:00,1.1689581871033,4,versionC_stim.csv,READVersionD.csv,"Read Version D","Dissertation, read only version D",FLOOR,DISCOVER,Study1,U,71,80,Study,User,-,,Study/JOL,"Study Phase2",481,,,-1,-1,,,,1
5eaad3ea17b8c30411098ec4,893f05zlsg,Nick_Dissertation_EX1,1,193,2020-06-02T10:40:54-07:00,1.3232498168945,4,versionC_stim.csv,READVersionD.csv,"Read Version D","Dissertation, read only version D",BAR,GRILL,Study1,S,52,16,Study,User,-,,Study/JOL,"Study Phase2",539,,,-1,-1,,,,1
5eaad3ea17b8c30411098ec4,893f05zlsg,Nick_Dissertation_EX1,1,194,2020-06-02T10:40:55-07:00,1.1345369815826,4,versionC_stim.csv,READVersionD.csv,"Read Version D","Dissertation, read only version D",WOULD,CASH,Study1,U,83,79,Study,User,-,,Study/JOL,"Study Phase2",449,,,-1,-1,,,,1
5eaad3ea17b8c30411098ec4,893f05zlsg,Nick_Dissertation_EX1,1,195,2020-06-02T10:40:56-07:00,1.2071170806885,4,versionC_stim.csv,READVersionD.csv,"Read Version D","Dissertation, read only version D",PLANT,ROOT,Study1,B,13,67,Study,User,-,,Study/JOL,"Study Phase2",490,,,-1,-1,,,,1
5eaad3ea17b8c30411098ec4,893f05zlsg,Nick_Dissertation_EX1,1,196,2020-06-02T10:40:57-07:00,1.2874319553375,4,versionC_stim.csv,READVersionD.csv,"Read Version D","Dissertation, read only version D",WAR,REVOLUTION,Study1,B,20,64,Study,User,-,,Study/JOL,"Study Phase2",567,,,-1,-1,,,,1
5eaad3ea17b8c30411098ec4,893f05zlsg,Nick_Dissertation_EX1,1,197,2020-06-02T10:40:59-07:00,1.1578240394592,4,versionC_stim.csv,READVersionD.csv,"Read Version D","Dissertation, read only version D",CAVE,DARK,Study1,F,28,45,Study,User,-,,Study/JOL,"Study Phase2",473,,,-1,-1,,,,1
5eaad3ea17b8c30411098ec4,893f05zlsg,Nick_Dissertation_EX1,1,198,2020-06-02T10:41:00-07:00,1.4958920478821,4,versionC_stim.csv,READVersionD.csv,"Read Version D","Dissertation, read only version D",BIRD,SWAN,Study1,B,14,49,Study,User,-,,Study/JOL,"Study Phase2",746,,,-1,-1,,,,1
5eaad3ea17b8c30411098ec4,893f05zlsg,Nick_Dissertation_EX1,1,199,2020-06-02T10:41:02-07:00,1.6780400276184,4,versionC_stim.csv,READVersionD.csv,"Read Version D","Dissertation, read only version D",ASSIGNMENT,DUE,Study1,S,46,72,Study,User,-,,Study/JOL,"Study Phase2",923,,,-1,-1,,,,1
5eaad3ea17b8c30411098ec4,893f05zlsg,Nick_Dissertation_EX1,1,200,2020-06-02T10:41:03-07:00,1.2608630657196,4,versionC_stim.csv,READVersionD.csv,"Read Version D","Dissertation, read only version D",CLUTTER,PUSHER,Study1,U,66,44,Study,User,-,,Study/JOL,"Study Phase2",535,,,-1,-1,,,,1
5eaad3ea17b8c30411098ec4,893f05zlsg,Nick_Dissertation_EX1,1,201,2020-06-02T10:41:05-07:00,1.7037057876587,4,versionC_stim.csv,READVersionD.csv,"Read Version D","Dissertation, read only version D",BLAZE,FIRE,Study1,F,45,51,Study,User,-,,Study/JOL,"Study Phase2",956,,,-1,-1,,,,1
5eaad3ea17b8c30411098ec4,893f05zlsg,Nick_Dissertation_EX1,1,202,2020-06-02T10:41:07-07:00,2.7088470458984,4,versionC_stim.csv,READVersionD.csv,"Read Version D","Dissertation, read only version D",WASP,BUG,Study1,F,32,35,Study,User,-,,Study/JOL,"Study Phase2",690,,,-1,-1,,,,1
5eaad3ea17b8c30411098ec4,893f05zlsg,Nick_Dissertation_EX1,1,203,2020-06-02T10:41:09-07:00,1.7902629375458,4,versionC_stim.csv,READVersionD.csv,"Read Version D","Dissertation, read only version D",DEFINITION,MEANING,Study1,S,62,82,Study,User,-,,Study/JOL,"Study Phase2",1073,,,-1,-1,,,,1
5eaad3ea17b8c30411098ec4,893f05zlsg,Nick_Dissertation_EX1,1,204,2020-06-02T10:41:11-07:00,1.5307462215424,4,versionC_stim.csv,READVersionD.csv,"Read Version D","Dissertation, read only version D",WATER,BRIDGE,Study1,B,18,11,Study,User,-,,Study/JOL,"Study Phase2",858,,,-1,-1,,,,1
5eaad3ea17b8c30411098ec4,893f05zlsg,Nick_Dissertation_EX1,1,205,2020-06-02T10:41:12-07:00,1.6646227836609,4,versionC_stim.csv,READVersionD.csv,"Read Version D","Dissertation, read only version D",DROWSY,SLEEP,Study1,F,41,24,Study,User,-,,Study/JOL,"Study Phase2",1006,,,-1,-1,,,,1
5eaad3ea17b8c30411098ec4,893f05zlsg,Nick_Dissertation_EX1,1,206,2020-06-02T10:41:14-07:00,1.9371092319489,4,versionC_stim.csv,READVersionD.csv,"Read Version D","Dissertation, read only version D",LION,ART,Study1,U,79,78,Study,User,-,,Study/JOL,"Study Phase2",1233,,,-1,-1,,,,1
5eaad3ea17b8c30411098ec4,893f05zlsg,Nick_Dissertation_EX1,1,207,2020-06-02T10:41:16-07:00,1.5425608158112,4,versionC_stim.csv,READVersionD.csv,"Read Version D","Dissertation, read only version D",TALK,DISCUSSION,Study1,B,21,42,Study,User,-,,Study/JOL,"Study Phase2",841,,,-1,-1,,,,1
5eaad3ea17b8c30411098ec4,893f05zlsg,Nick_Dissertation_EX1,1,208,2020-06-02T10:41:17-07:00,1.5204250812531,4,versionC_stim.csv,READVersionD.csv,"Read Version D","Dissertation, read only version D",SIGHT,DEBATE,Study1,U,73,28,Study,User,-,,Study/JOL,"Study Phase2",849,,,-1,-1,,,,1
5eaad3ea17b8c30411098ec4,893f05zlsg,Nick_Dissertation_EX1,1,209,2020-06-02T10:41:19-07:00,1.6543219089508,4,versionC_stim.csv,READVersionD.csv,"Read Version D","Dissertation, read only version D",TOILET,BATHROOM,Study1,S,58,8,Study,User,-,,Study/JOL,"Study Phase2",992,,,-1,-1,,,,1
5eaad3ea17b8c30411098ec4,893f05zlsg,Nick_Dissertation_EX1,1,210,2020-06-02T10:41:21-07:00,1.5319621562958,4,versionC_stim.csv,READVersionD.csv,"Read Version D","Dissertation, read only version D",WIND,BLOW,Study1,S,55,19,Study,User,-,,Study/JOL,"Study Phase2",862,,,-1,-1,,,,1
5eaad3ea17b8c30411098ec4,893f05zlsg,Nick_Dissertation_EX1,1,211,2020-06-02T10:41:22-07:00,1.5716459751129,4,versionC_stim.csv,READVersionD.csv,"Read Version D","Dissertation, read only version D",SIP,DRINK,Study1,F,27,62,Study,User,-,,Study/JOL,"Study Phase2",904,,,-1,-1,,,,1
5eaad3ea17b8c30411098ec4,893f05zlsg,Nick_Dissertation_EX1,1,212,2020-06-02T10:41:24-07:00,1.3812618255615,4,versionC_stim.csv,READVersionD.csv,"Read Version D","Dissertation, read only version D",BUSINESS,DEATH,Study1,U,72,86,Study,User,-,,Study/JOL,"Study Phase2",717,,,-1,-1,,,,1
5eaad3ea17b8c30411098ec4,893f05zlsg,Nick_Dissertation_EX1,1,213,2020-06-02T10:41:25-07:00,1.3727481365204,4,versionC_stim.csv,READVersionD.csv,"Read Version D","Dissertation, read only version D",LIVER,KIDNEY,Study1,S,53,13,Study,User,-,,Study/JOL,"Study Phase2",697,,,-1,-1,,,,1
5eaad3ea17b8c30411098ec4,893f05zlsg,Nick_Dissertation_EX1,1,214,2020-06-02T10:41:27-07:00,2.1580669879913,4,versionC_stim.csv,READVersionD.csv,"Read Version D","Dissertation, read only version D",COW,HERD,Study1,B,22,14,Study,User,-,,Study/JOL,"Study Phase2",482,,,-1,-1,,,,1
5eaad3ea17b8c30411098ec4,893f05zlsg,Nick_Dissertation_EX1,1,215,2020-06-02T10:41:28-07:00,1.2098999023438,4,versionC_stim.csv,READVersionD.csv,"Read Version D","Dissertation, read only version D",VASE,KING,Study1,U,85,52,Study,User,-,,Study/JOL,"Study Phase2",480,,,-1,-1,,,,1
5eaad3ea17b8c30411098ec4,893f05zlsg,Nick_Dissertation_EX1,1,216,2020-06-02T10:41:30-07:00,1.2264180183411,4,versionC_stim.csv,READVersionD.csv,"Read Version D","Dissertation, read only version D",FANTASTIC,GREAT,Study1,F,35,26,Study,User,-,,Study/JOL,"Study Phase2",482,,,-1,-1,,,,1
5eaad3ea17b8c30411098ec4,893f05zlsg,Nick_Dissertation_EX1,1,217,2020-06-02T10:41:31-07:00,1.0251100063324,4,versionC_stim.csv,READVersionD.csv,"Read Version D","Dissertation, read only version D",DESIGN,ARCHITECTURE,Study1,S,51,22,Study,User,-,,Study/JOL,"Study Phase2",372,,,-1,-1,,,,1
5eaad3ea17b8c30411098ec4,893f05zlsg,Nick_Dissertation_EX1,1,218,2020-06-02T10:41:32-07:00,0.93136215209961,4,versionC_stim.csv,READVersionD.csv,"Read Version D","Dissertation, read only version D",WORD,SENTENCE,Study1,F,31,53,Study,User,-,,Study/JOL,"Study Phase2",294,,,-1,-1,,,,1
5eaad3ea17b8c30411098ec4,893f05zlsg,Nick_Dissertation_EX1,1,219,2020-06-02T10:41:32-07:00,0.948077917099,4,versionC_stim.csv,READVersionD.csv,"Read Version D","Dissertation, read only version D",ATTIRE,CLOTHES,Study1,F,43,85,Study,User,-,,Study/JOL,"Study Phase2",290,,,-1,-1,,,,1
5eaad3ea17b8c30411098ec4,893f05zlsg,Nick_Dissertation_EX1,1,220,2020-06-02T10:41:33-07:00,0.96447610855103,4,versionC_stim.csv,READVersionD.csv,"Read Version D","Dissertation, read only version D",ADD,VALLEY,Study1,U,82,71,Study,User,-,,Study/JOL,"Study Phase2",277,,,-1,-1,,,,1
5eaad3ea17b8c30411098ec4,893f05zlsg,Nick_Dissertation_EX1,1,221,2020-06-02T10:41:35-07:00,1.3105549812317,4,versionC_stim.csv,READVersionD.csv,"Read Version D","Dissertation, read only version D",CLEAN,HYGIENE,Study1,B,17,56,Study,User,-,,Study/JOL,"Study Phase2",636,,,-1,-1,,,,1
5eaad3ea17b8c30411098ec4,893f05zlsg,Nick_Dissertation_EX1,1,222,2020-06-02T10:41:36-07:00,0.99300098419189,4,versionC_stim.csv,READVersionD.csv,"Read Version D","Dissertation, read only version D",SODA,POP,Study1,S,56,23,Study,User,-,,Study/JOL,"Study Phase2",307,,,-1,-1,,,,1
5eaad3ea17b8c30411098ec4,893f05zlsg,Nick_Dissertation_EX1,1,223,2020-06-02T10:41:37-07:00,0.99395990371704,4,versionC_stim.csv,READVersionD.csv,"Read Version D","Dissertation, read only version D",FOOT,SHOE,Study1,S,60,36,Study,User,-,,Study/JOL,"Study Phase2",310,,,-1,-1,,,,1
5eaad3ea17b8c30411098ec4,893f05zlsg,Nick_Dissertation_EX1,1,224,2020-06-02T10:41:38-07:00,1.0645129680634,4,versionC_stim.csv,READVersionD.csv,"Read Version D","Dissertation, read only version D",ROUND,CIRCLE,Study1,S,65,65,Study,User,-,,Study/JOL,"Study Phase2",319,,,-1,-1,,,,1
5eaad3ea17b8c30411098ec4,893f05zlsg,Nick_Dissertation_EX1,1,225,2020-06-02T10:41:39-07:00,0.96796703338623,4,versionC_stim.csv,READVersionD.csv,"Read Version D","Dissertation, read only version D",RIDDLE,SUGAR,Study1,U,81,70,Study,User,-,,Study/JOL,"Study Phase2",297,,,-1,-1,,,,1
5eaad3ea17b8c30411098ec4,893f05zlsg,Nick_Dissertation_EX1,1,226,2020-06-02T10:41:40-07:00,1.4223830699921,4,versionC_stim.csv,READVersionD.csv,"Read Version D","Dissertation, read only version D",ACCIDENT,STRONG,Study1,U,80,17,Study,User,-,,Study/JOL,"Study Phase2",770,,,-1,-1,,,,1
5eaad3ea17b8c30411098ec4,893f05zlsg,Nick_Dissertation_EX1,1,227,2020-06-02T10:41:41-07:00,0.9958610534668,4,versionC_stim.csv,READVersionD.csv,"Read Version D","Dissertation, read only version D",FLOWER,ORCHID,Study1,B,24,12,Study,User,-,,Study/JOL,"Study Phase2",333,,,-1,-1,,,,1
5eaad3ea17b8c30411098ec4,893f05zlsg,Nick_Dissertation_EX1,1,228,2020-06-02T10:41:42-07:00,0.85154700279236,4,versionC_stim.csv,READVersionD.csv,"Read Version D","Dissertation, read only version D",LATCH,KEY,Study1,F,36,69,Study,User,-,,Study/JOL,"Study Phase2",214,,,-1,-1,,,,1
5eaad3ea17b8c30411098ec4,893f05zlsg,Nick_Dissertation_EX1,1,229,2020-06-02T10:41:43-07:00,0.93224096298218,4,versionC_stim.csv,READVersionD.csv,"Read Version D","Dissertation, read only version D",WASTE,DUMP,Study1,S,49,50,Study,User,-,,Study/JOL,"Study Phase2",266,,,-1,-1,,,,1
5eaad3ea17b8c30411098ec4,893f05zlsg,Nick_Dissertation_EX1,1,230,2020-06-02T10:41:44-07:00,0.95693397521973,4,versionC_stim.csv,READVersionD.csv,"Read Version D","Dissertation, read only version D",ROCK,GEOLOGY,Study1,B,19,61,Study,User,-,,Study/JOL,"Study Phase2",306,,,-1,-1,,,,1
5eaad3ea17b8c30411098ec4,893f05zlsg,Nick_Dissertation_EX1,1,231,2020-06-02T10:41:45-07:00,0.90078687667847,4,versionC_stim.csv,READVersionD.csv,"Read Version D","Dissertation, read only version D",HAND,FIX,Study1,U,75,63,Study,User,-,,Study/JOL,"Study Phase2",266,,,-1,-1,,,,1
5eaad3ea17b8c30411098ec4,893f05zlsg,Nick_Dissertation_EX1,1,232,2020-06-02T10:41:46-07:00,1.4316079616547,4,versionC_stim.csv,READVersionD.csv,"Read Version D","Dissertation, read only version D",STOMACH,DIGESTION,Study1,B,7,68,Study,User,-,,Study/JOL,"Study Phase2",728,,,-1,-1,,,,1
5eaad3ea17b8c30411098ec4,893f05zlsg,Nick_Dissertation_EX1,1,233,2020-06-02T10:41:47-07:00,0.96453499794006,4,versionC_stim.csv,READVersionD.csv,"Read Version D","Dissertation, read only version D",POSITION,MACHINE,Study1,U,76,27,Study,User,-,,Study/JOL,"Study Phase2",309,,,-1,-1,,,,1
5eaad3ea17b8c30411098ec4,893f05zlsg,Nick_Dissertation_EX1,1,234,2020-06-02T10:41:49-07:00,2.165598154068,4,versionC_stim.csv,READVersionD.csv,"Read Version D","Dissertation, read only version D",GROWTH,HEIGHT,Study1,F,30,84,Study,User,-,,Study/JOL,"Study Phase2",460,,,-1,-1,,,,1
5eaad3ea17b8c30411098ec4,893f05zlsg,Nick_Dissertation_EX1,1,235,2020-06-02T10:41:50-07:00,0.9483699798584,4,versionC_stim.csv,READVersionD.csv,"Read Version D","Dissertation, read only version D",DIVISION,MATH,Study1,F,33,32,Study,User,-,,Study/JOL,"Study Phase2",311,,,-1,-1,,,,1
5eaad3ea17b8c30411098ec4,893f05zlsg,Nick_Dissertation_EX1,1,236,2020-06-02T10:41:51-07:00,1.0168609619141,4,versionC_stim.csv,READVersionD.csv,"Read Version D","Dissertation, read only version D",SACKING,DIETARY,Study1,U,67,58,Study,User,-,,Study/JOL,"Study Phase2",309,,,-1,-1,,,,1
5eaad3ea17b8c30411098ec4,893f05zlsg,Nick_Dissertation_EX1,1,237,2020-06-02T10:41:52-07:00,1.1606359481812,4,versionC_stim.csv,READVersionD.csv,"Read Version D","Dissertation, read only version D",WOMAN,LIFT,Study1,U,69,59,Study,User,-,,Study/JOL,"Study Phase2",502,,,-1,-1,,,,1
5eaad3ea17b8c30411098ec4,893f05zlsg,Nick_Dissertation_EX1,1,238,2020-06-02T10:41:54-07:00,1.0875689983368,4,versionC_stim.csv,READVersionD.csv,"Read Version D","Dissertation, read only version D",PILOT,PLANE,Study1,F,44,66,Study,User,-,,Study/JOL,"Study Phase2",413,,,-1,-1,,,,1
5eaad3ea17b8c30411098ec4,893f05zlsg,Nick_Dissertation_EX1,1,239,2020-06-02T10:41:55-07:00,0.94406414031982,4,versionC_stim.csv,READVersionD.csv,"Read Version D","Dissertation, read only version D",BAD,DELINQUENT,Study1,B,6,9,Study,User,-,,Study/JOL,"Study Phase2",274,,,-1,-1,,,,1
5eaad3ea17b8c30411098ec4,893f05zlsg,Nick_Dissertation_EX1,1,240,2020-06-02T10:41:56-07:00,1.0438148975372,4,versionC_stim.csv,READVersionD.csv,"Read Version D","Dissertation, read only version D",SICK,HIDE,Study1,U,84,25,Study,User,-,,Study/JOL,"Study Phase2",311,,,-1,-1,,,,1
5eaad3ea17b8c30411098ec4,893f05zlsg,Nick_Dissertation_EX1,1,241,2020-06-02T10:41:57-07:00,0.99833512306213,4,versionC_stim.csv,READVersionD.csv,"Read Version D","Dissertation, read only version D",AMOUNT,NUMBER,Study1,S,47,20,Study,User,-,,Study/JOL,"Study Phase2",309,,,-1,-1,,,,1
5eaad3ea17b8c30411098ec4,893f05zlsg,Nick_Dissertation_EX1,1,242,2020-06-02T10:41:58-07:00,1.0281329154968,4,versionC_stim.csv,READVersionD.csv,"Read Version D","Dissertation, read only version D",END,BEGIN,Study1,S,54,38,Study,User,-,,Study/JOL,"Study Phase2",316,,,-1,-1,,,,1
5eaad3ea17b8c30411098ec4,893f05zlsg,Nick_Dissertation_EX1,1,243,2020-06-02T10:41:59-07:00,1.0357179641724,4,versionC_stim.csv,READVersionD.csv,"Read Version D","Dissertation, read only version D",CHILI,HOT,Study1,F,37,34,Study,User,-,,Study/JOL,"Study Phase2",293,,,-1,-1,,,,1
5eaad3ea17b8c30411098ec4,893f05zlsg,Nick_Dissertation_EX1,1,244,2020-06-02T10:42:00-07:00,0.92612099647522,4,versionC_stim.csv,READVersionD.csv,"Read Version D","Dissertation, read only version D",DOG,PAW,Study1,B,15,48,Study,User,-,,Study/JOL,"Study Phase2",261,,,-1,-1,,,,1
5eaad3ea17b8c30411098ec4,893f05zlsg,Nick_Dissertation_EX1,1,245,2020-06-02T10:42:01-07:00,1.0838680267334,4,versionC_stim.csv,READVersionD.csv,"Read Version D","Dissertation, read only version D",BELT,SOON,Study1,U,70,60,Study,User,-,,Study/JOL,"Study Phase2",389,,,-1,-1,,,,1
5eaad3ea17b8c30411098ec4,893f05zlsg,Nick_Dissertation_EX1,1,246,2020-06-02T10:42:02-07:00,0.9586079120636,4,versionC_stim.csv,READVersionD.csv,"Read Version D","Dissertation, read only version D",BEE,HONEY,Study1,S,63,73,Study,User,-,,Study/JOL,"Study Phase2",283,,,-1,-1,,,,1
5eaad3ea17b8c30411098ec4,893f05zlsg,Nick_Dissertation_EX1,1,247,2020-06-02T10:42:03-07:00,0.97534704208374,4,versionC_stim.csv,READVersionD.csv,"Read Version D","Dissertation, read only version D",CAR,HAPPY,Study1,U,77,18,Study,User,-,,Study/JOL,"Study Phase2",287,,,-1,-1,,,,1
5eaad3ea17b8c30411098ec4,893f05zlsg,Nick_Dissertation_EX1,1,248,2020-06-02T10:42:04-07:00,0.98355603218079,4,versionC_stim.csv,READVersionD.csv,"Read Version D","Dissertation, read only version D",SITE,LOCATION,Study1,S,48,55,Study,User,-,,Study/JOL,"Study Phase2",288,,,-1,-1,,,,1
5eaad3ea17b8c30411098ec4,893f05zlsg,Nick_Dissertation_EX1,1,249,2020-06-02T10:42:05-07:00,0.97997403144836,4,versionC_stim.csv,READVersionD.csv,"Read Version D","Dissertation, read only version D",NEWS,EDITOR,Study1,B,10,43,Study,User,-,,Study/JOL,"Study Phase2",275,,,-1,-1,,,,1
5eaad3ea17b8c30411098ec4,893f05zlsg,Nick_Dissertation_EX1,1,250,2020-06-02T10:42:06-07:00,0.96121311187744,4,versionC_stim.csv,READVersionD.csv,"Read Version D","Dissertation, read only version D",ENOUGH,FULL,Study1,F,26,75,Study,User,-,,Study/JOL,"Study Phase2",256,,,-1,-1,,,,1
5eaad3ea17b8c30411098ec4,893f05zlsg,Nick_Dissertation_EX1,1,251,2020-06-02T10:42:06-07:00,0.88950085639954,4,versionC_stim.csv,READVersionD.csv,"Read Version D","Dissertation, read only version D",CHEESE,WINE,Study1,S,57,7,Study,User,-,,Study/JOL,"Study Phase2",218,,,-1,-1,,,,1
5eaad3ea17b8c30411098ec4,893f05zlsg,Nick_Dissertation_EX1,1,252,2020-06-02T10:42:07-07:00,0.9466540813446,4,versionC_stim.csv,READVersionD.csv,"Read Version D","Dissertation, read only version D",STENCH,SMELL,Study1,F,42,47,Study,User,-,,Study/JOL,"Study Phase2",275,,,-1,-1,,,,1
5eaad3ea17b8c30411098ec4,893f05zlsg,Nick_Dissertation_EX1,1,253,2020-06-02T10:42:08-07:00,0.98370504379272,4,versionC_stim.csv,READVersionD.csv,"Read Version D","Dissertation, read only version D",ATTORNEY,LAW,Study1,F,34,41,Study,User,-,,Study/JOL,"Study Phase2",301,,,-1,-1,,,,1
5eaad3ea17b8c30411098ec4,893f05zlsg,Nick_Dissertation_EX1,1,254,2020-06-02T10:42:09-07:00,1.0097839832306,4,versionC_stim.csv,READVersionD.csv,"Read Version D","Dissertation, read only version D",FUTURE,PAST,Study1,S,61,40,Study,User,-,,Study/JOL,"Study Phase2",274,,,-1,-1,,,,1
5eaad3ea17b8c30411098ec4,893f05zlsg,Nick_Dissertation_EX1,1,255,2020-06-02T10:42:10-07:00,1.0024349689484,4,versionC_stim.csv,READVersionD.csv,"Read Version D","Dissertation, read only version D",HUNGRY,PARK,Study1,U,68,77,Study,User,-,,Study/JOL,"Study Phase2",278,,,-1,-1,,,,1
5eaad3ea17b8c30411098ec4,893f05zlsg,Nick_Dissertation_EX1,1,256,2020-06-02T10:42:11-07:00,0.98109698295593,4,versionC_stim.csv,READVersionD.csv,"Read Version D","Dissertation, read only version D",FAMINE,HUNGER,Study1,F,40,83,Study,User,-,,Study/JOL,"Study Phase2",281,,,-1,-1,,,,1
5eaad3ea17b8c30411098ec4,893f05zlsg,Nick_Dissertation_EX1,1,257,2020-06-02T10:42:12-07:00,0.95805191993713,4,versionC_stim.csv,READVersionD.csv,"Read Version D","Dissertation, read only version D",FISH,TUNA,Study1,B,25,33,Study,User,-,,Study/JOL,"Study Phase2",293,,,-1,-1,,,,1
5eaad3ea17b8c30411098ec4,893f05zlsg,Nick_Dissertation_EX1,1,258,2020-06-02T10:42:13-07:00,0.97806000709534,4,versionC_stim.csv,READVersionD.csv,"Read Version D","Dissertation, read only version D",COLD,BITTER,Study1,B,12,54,Study,User,-,,Study/JOL,"Study Phase2",264,,,-1,-1,,,,1
5eaad3ea17b8c30411098ec4,893f05zlsg,Nick_Dissertation_EX1,1,259,2020-06-02T10:42:14-07:00,0.99567699432373,4,versionC_stim.csv,READVersionD.csv,"Read Version D","Dissertation, read only version D",JURY,TRIAL,Study1,S,50,21,Study,User,-,,Study/JOL,"Study Phase2",293,,,-1,-1,,,,1
5eaad3ea17b8c30411098ec4,893f05zlsg,Nick_Dissertation_EX1,1,260,2020-06-02T10:42:15-07:00,0.93636894226074,4,versionC_stim.csv,READVersionD.csv,"Read Version D","Dissertation, read only version D",CHILD,BABY,Study1,S,64,30,Study,User,-,,Study/JOL,"Study Phase2",278,,,-1,-1,,,,1
5eaad3ea17b8c30411098ec4,893f05zlsg,Nick_Dissertation_EX1,1,261,2020-06-02T10:42:16-07:00,0.91718101501465,4,versionC_stim.csv,READVersionD.csv,"Read Version D","Dissertation, read only version D",STUFF,THING,BUFFER2,Buffer,90,87,Study,User,-,,Study/JOL,BUFFER4,234,,,-1,-1,,,,1
5eaad3ea17b8c30411098ec4,893f05zlsg,Nick_Dissertation_EX1,1,262,2020-06-02T10:42:17-07:00,0.90766501426697,4,versionC_stim.csv,READVersionD.csv,"Read Version D","Dissertation, read only version D",POLICE,SHERRIF,BUFFER2,Buffer,87,88,Study,User,-,,Study/JOL,BUFFER4,194,,,-1,-1,,,,1
5eaad3ea17b8c30411098ec4,893f05zlsg,Nick_Dissertation_EX1,1,263,2020-06-02T10:42:18-07:00,0.90435314178467,4,versionC_stim.csv,READVersionD.csv,"Read Version D","Dissertation, read only version D",SPACE,MOON,BUFFER2,Buffer,89,90,Study,User,-,,Study/JOL,BUFFER4,234,,,-1,-1,,,,1
5eaad3ea17b8c30411098ec4,893f05zlsg,Nick_Dissertation_EX1,1,264,2020-06-02T10:42:19-07:00,0.87829899787903,4,versionC_stim.csv,READVersionD.csv,"Read Version D","Dissertation, read only version D",GOOSE,GEESE,BUFFER2,Buffer,86,91,Study,User,-,,Study/JOL,BUFFER4,176,,,-1,-1,,,,1
5eaad3ea17b8c30411098ec4,893f05zlsg,Nick_Dissertation_EX1,1,265,2020-06-02T10:42:20-07:00,0.96356201171875,4,versionC_stim.csv,READVersionD.csv,"Read Version D","Dissertation, read only version D",CHOCOLATE,MALT,BUFFER2,Buffer,88,89,Study,User,-,,Study/JOL,BUFFER4,283,,,-1,-1,,,,1
5eaad3ea17b8c30411098ec4,893f05zlsg,Nick_Dissertation_EX1,1,266,2020-06-02T10:42:21-07:00,0.90973281860352,4,versionC_stim.csv,READVersionD.csv,"Read Version D","Dissertation, read only version D",,,,,,0,Instruct,User,-,"You have completed this section. Please press Enter.",Filler_Instruction,Instruct5,250,,,-1,-1,,,,1
5eaad3ea17b8c30411098ec4,893f05zlsg,Nick_Dissertation_EX1,1,267,2020-06-02T10:44:22-07:00,120.92153501511,4,versionC_stim.csv,READVersionD.csv,"Read Version D","Dissertation, read only version D",,,,,,0,FreeRecall,120,120,"Please list the 50 US states in reverse alphabetical order (z - a). The task will automatically advance to the next screen after two minutes.",,Filler2,120002,"alabama alaska arizona arkansas carlifornia colorado connecticut delaware florida georgia hawaii idaho illinoids indiana iowa kansas kentucky lousiana maine maryland massachussets michitan minessota missisipi misouri ",0,13581,114729,0,0,,0.772
5eaad3ea17b8c30411098ec4,893f05zlsg,Nick_Dissertation_EX1,1,268,2020-06-02T10:44:42-07:00,20.243861198425,4,versionC_stim.csv,READVersionD.csv,"Read Version D","Dissertation, read only version D",,,,,,0,Instruct,-,10,"You will now be presented with the first word from each of the previously studied item pairs. Please type the missing word. If you do not know the word, you may guess or press Enter to skip forward to the next pair.",,Instruct6,11355,,,-1,-1,,,,0.654
5eaad3ea17b8c30411098ec4,893f05zlsg,Nick_Dissertation_EX1,1,269,2020-06-02T10:44:50-07:00,7.7433397769928,4,versionC_stim.csv,READVersionD.csv,"Read Version D","Dissertation, read only version D",CHORE,WORK,Study1,F,39,15,Test,User,-,,Recall,Recall2,3322,work,100,1902,3083,1,1,,1
5eaad3ea17b8c30411098ec4,893f05zlsg,Nick_Dissertation_EX1,1,270,2020-06-02T10:44:56-07:00,6.4513671398163,4,versionC_stim.csv,READVersionD.csv,"Read Version D","Dissertation, read only version D",SACKING,DIETARY,Study1,U,67,58,Test,User,-,,Recall,Recall2,2163,,0,-1,-1,0,0,,1
5eaad3ea17b8c30411098ec4,893f05zlsg,Nick_Dissertation_EX1,1,271,2020-06-02T10:45:18-07:00,22.444278001785,4,versionC_stim.csv,READVersionD.csv,"Read Version D","Dissertation, read only version D",CLEAN,HYGIENE,Study1,B,17,56,Test,User,-,,Recall,Recall2,8025,dirty,16.666666666667,5217,7749,0,0,,1
5eaad3ea17b8c30411098ec4,893f05zlsg,Nick_Dissertation_EX1,1,272,2020-06-02T10:45:24-07:00,5.4401190280914,4,versionC_stim.csv,READVersionD.csv,"Read Version D","Dissertation, read only version D",CHILI,HOT,Study1,F,37,34,Test,User,-,,Recall,Recall2,4481,hot,100,3968,4211,1,1,,1
5eaad3ea17b8c30411098ec4,893f05zlsg,Nick_Dissertation_EX1,1,273,2020-06-02T10:45:28-07:00,3.867516040802,4,versionC_stim.csv,READVersionD.csv,"Read Version D","Dissertation, read only version D",COLD,BITTER,Study1,B,12,54,Test,User,-,,Recall,Recall2,3124,,0,-1,-1,0,0,,1
5eaad3ea17b8c30411098ec4,893f05zlsg,Nick_Dissertation_EX1,1,274,2020-06-02T10:45:31-07:00,2.8984649181366,4,versionC_stim.csv,READVersionD.csv,"Read Version D","Dissertation, read only version D",BUSINESS,DEATH,Study1,U,72,86,Test,User,-,,Recall,Recall2,2188,death,100,1360,1954,1,1,,1
5eaad3ea17b8c30411098ec4,893f05zlsg,Nick_Dissertation_EX1,1,275,2020-06-02T10:45:34-07:00,2.9976849555969,4,versionC_stim.csv,READVersionD.csv,"Read Version D","Dissertation, read only version D",FLOOR,DISCOVER,Study1,U,71,80,Test,User,-,,Recall,Recall2,2281,clean,30.769230769231,1558,2102,0,0,,1
5eaad3ea17b8c30411098ec4,893f05zlsg,Nick_Dissertation_EX1,1,276,2020-06-02T10:45:36-07:00,2.6385810375214,4,versionC_stim.csv,READVersionD.csv,"Read Version D","Dissertation, read only version D",DOG,PAW,Study1,B,15,48,Test,User,-,,Recall,Recall2,1736,pae,66.666666666667,1237,1522,0,0,,1
5eaad3ea17b8c30411098ec4,893f05zlsg,Nick_Dissertation_EX1,1,277,2020-06-02T10:45:45-07:00,8.4930150508881,4,versionC_stim.csv,READVersionD.csv,"Read Version D","Dissertation, read only version D",TOILET,BATHROOM,Study1,S,58,8,Test,User,-,,Recall,Recall2,3400,bathroom,100,1633,3186,1,1,,1
5eaad3ea17b8c30411098ec4,893f05zlsg,Nick_Dissertation_EX1,1,278,2020-06-02T10:45:48-07:00,3.4823889732361,4,versionC_stim.csv,READVersionD.csv,"Read Version D","Dissertation, read only version D",LIVER,KIDNEY,Study1,S,53,13,Test,User,-,,Recall,Recall2,2388,kidney,100,1234,2152,1,1,,1
5eaad3ea17b8c30411098ec4,893f05zlsg,Nick_Dissertation_EX1,1,279,2020-06-02T10:45:54-07:00,5.3838548660278,4,versionC_stim.csv,READVersionD.csv,"Read Version D","Dissertation, read only version D",SITE,LOCATION,Study1,S,48,55,Test,User,-,,Recall,Recall2,4002,building,25,2172,3858,0,0,,1
5eaad3ea17b8c30411098ec4,893f05zlsg,Nick_Dissertation_EX1,1,280,2020-06-02T10:45:57-07:00,3.811487197876,4,versionC_stim.csv,READVersionD.csv,"Read Version D","Dissertation, read only version D",ROCK,GEOLOGY,Study1,B,19,61,Test,User,-,,Recall,Recall2,2454,geology,100,1107,2236,1,1,,1
5eaad3ea17b8c30411098ec4,893f05zlsg,Nick_Dissertation_EX1,1,281,2020-06-02T10:46:07-07:00,9.459568977356,4,versionC_stim.csv,READVersionD.csv,"Read Version D","Dissertation, read only version D",CAVE,DARK,Study1,F,28,45,Test,User,-,,Recall,Recall2,3504,dark[,88.888888888889,2743,3475,0,1,,1
5eaad3ea17b8c30411098ec4,893f05zlsg,Nick_Dissertation_EX1,1,282,2020-06-02T10:46:12-07:00,4.992213010788,4,versionC_stim.csv,READVersionD.csv,"Read Version D","Dissertation, read only version D",WIND,BLOW,Study1,S,55,19,Test,User,-,,Recall,Recall2,1920,blow,100,1253,1708,1,1,,1
5eaad3ea17b8c30411098ec4,893f05zlsg,Nick_Dissertation_EX1,1,283,2020-06-02T10:46:20-07:00,8.2808229923248,4,versionC_stim.csv,READVersionD.csv,"Read Version D","Dissertation, read only version D",WASTE,DUMP,Study1,S,49,50,Test,User,-,,Recall,Recall2,4357,dump,100,1235,4128,1,1,,1
5eaad3ea17b8c30411098ec4,893f05zlsg,Nick_Dissertation_EX1,1,284,2020-06-02T10:46:30-07:00,9.4341399669647,4,versionC_stim.csv,READVersionD.csv,"Read Version D","Dissertation, read only version D",FOOT,SHOE,Study1,S,60,36,Test,User,-,,Recall,Recall2,8273,shoelace,66.666666666667,3784,8135,0,0,,1
5eaad3ea17b8c30411098ec4,893f05zlsg,Nick_Dissertation_EX1,1,285,2020-06-02T10:46:32-07:00,2.801481962204,4,versionC_stim.csv,READVersionD.csv,"Read Version D","Dissertation, read only version D",JURY,TRIAL,Study1,S,50,21,Test,User,-,,Recall,Recall2,2033,cout,22.222222222222,1424,1852,0,0,,1
5eaad3ea17b8c30411098ec4,893f05zlsg,Nick_Dissertation_EX1,1,286,2020-06-02T10:46:40-07:00,7.6691288948059,4,versionC_stim.csv,READVersionD.csv,"Read Version D","Dissertation, read only version D",STOMACH,DIGESTION,Study1,B,7,68,Test,User,-,,Recall,Recall2,3705,digestion,100,1542,3398,1,1,,1
5eaad3ea17b8c30411098ec4,893f05zlsg,Nick_Dissertation_EX1,1,287,2020-06-02T10:46:46-07:00,5.9515061378479,4,versionC_stim.csv,READVersionD.csv,"Read Version D","Dissertation, read only version D",CHILD,BABY,Study1,S,64,30,Test,User,-,,Recall,Recall2,3036,,0,-1,-1,0,0,,1
5eaad3ea17b8c30411098ec4,893f05zlsg,Nick_Dissertation_EX1,1,288,2020-06-02T10:46:48-07:00,2.2474789619446,4,versionC_stim.csv,READVersionD.csv,"Read Version D","Dissertation, read only version D",BRONZE,ARTERY,Study1,U,74,37,Test,User,-,,Recall,Recall2,1369,,0,-1,-1,0,0,,1
5eaad3ea17b8c30411098ec4,893f05zlsg,Nick_Dissertation_EX1,1,289,2020-06-02T10:46:51-07:00,2.481173992157,4,versionC_stim.csv,READVersionD.csv,"Read Version D","Dissertation, read only version D",MONEY,WAGE,Study1,B,8,46,Test,User,-,,Recall,Recall2,1475,,0,-1,-1,0,0,,1
5eaad3ea17b8c30411098ec4,893f05zlsg,Nick_Dissertation_EX1,1,290,2020-06-02T10:46:55-07:00,3.7114880084991,4,versionC_stim.csv,READVersionD.csv,"Read Version D","Dissertation, read only version D",POSITION,MACHINE,Study1,U,76,27,Test,User,-,,Recall,Recall2,1695,,0,-1,-1,0,0,,1
5eaad3ea17b8c30411098ec4,893f05zlsg,Nick_Dissertation_EX1,1,291,2020-06-02T10:47:04-07:00,9.8563580513,4,versionC_stim.csv,READVersionD.csv,"Read Version D","Dissertation, read only version D",CARD,CREDIT,Study1,B,23,31,Test,User,-,,Recall,Recall2,3032,deck,20,2265,2770,0,0,,1
5eaad3ea17b8c30411098ec4,893f05zlsg,Nick_Dissertation_EX1,1,292,2020-06-02T10:47:42-07:00,37.355739831924,4,versionC_stim.csv,READVersionD.csv,"Read Version D","Dissertation, read only version D",SIGHT,DEBATE,Study1,U,73,28,Test,User,-,,Recall,Recall2,5378,blind,18.181818181818,2126,5259,0,0,,1
5eaad3ea17b8c30411098ec4,893f05zlsg,Nick_Dissertation_EX1,1,293,2020-06-02T10:47:50-07:00,7.9489030838013,4,versionC_stim.csv,READVersionD.csv,"Read Version D","Dissertation, read only version D",ACCIDENT,STRONG,Study1,U,80,17,Test,User,-,,Recall,Recall2,5274,victim,16.666666666667,4129,5025,0,0,,1
5eaad3ea17b8c30411098ec4,893f05zlsg,Nick_Dissertation_EX1,1,294,2020-06-02T10:47:53-07:00,2.8741021156311,4,versionC_stim.csv,READVersionD.csv,"Read Version D","Dissertation, read only version D",WORD,SENTENCE,Study1,F,31,53,Test,User,-,,Recall,Recall2,2112,,0,-1,-1,0,0,,1
5eaad3ea17b8c30411098ec4,893f05zlsg,Nick_Dissertation_EX1,1,295,2020-06-02T10:48:05-07:00,12.362558841705,4,versionC_stim.csv,READVersionD.csv,"Read Version D","Dissertation, read only version D",FAMINE,HUNGER,Study1,F,40,83,Test,User,-,,Recall,Recall2,4049,hunger,100,1632,3830,1,1,,1
5eaad3ea17b8c30411098ec4,893f05zlsg,Nick_Dissertation_EX1,1,296,2020-06-02T10:48:09-07:00,4.0020389556885,4,versionC_stim.csv,READVersionD.csv,"Read Version D","Dissertation, read only version D",RIDDLE,SUGAR,Study1,U,81,70,Test,User,-,,Recall,Recall2,3280,word,22.222222222222,1492,3126,0,0,,1
5eaad3ea17b8c30411098ec4,893f05zlsg,Nick_Dissertation_EX1,1,297,2020-06-02T10:48:18-07:00,8.7537472248077,4,versionC_stim.csv,READVersionD.csv,"Read Version D","Dissertation, read only version D",BAD,DELINQUENT,Study1,B,6,9,Test,User,-,,Recall,Recall2,3045,,0,-1,-1,0,0,,1
5eaad3ea17b8c30411098ec4,893f05zlsg,Nick_Dissertation_EX1,1,298,2020-06-02T10:48:31-07:00,13.370626926422,4,versionC_stim.csv,READVersionD.csv,"Read Version D","Dissertation, read only version D",PLANT,ROOT,Study1,B,13,67,Test,User,-,,Recall,Recall2,3730,tree,25,2394,3160,0,0,,1
5eaad3ea17b8c30411098ec4,893f05zlsg,Nick_Dissertation_EX1,1,299,2020-06-02T10:48:41-07:00,10.271923065186,4,versionC_stim.csv,READVersionD.csv,"Read Version D","Dissertation, read only version D",ROUND,CIRCLE,Study1,S,65,65,Test,User,-,,Recall,Recall2,5699,circle,100,4096,5403,1,1,,1
5eaad3ea17b8c30411098ec4,893f05zlsg,Nick_Dissertation_EX1,1,300,2020-06-02T10:49:02-07:00,20.78685593605,4,versionC_stim.csv,READVersionD.csv,"Read Version D","Dissertation, read only version D",HAND,FIX,Study1,U,75,63,Test,User,-,,Recall,Recall2,18284,feet,28.571428571429,17000,17640,0,0,,1
5eaad3ea17b8c30411098ec4,893f05zlsg,Nick_Dissertation_EX1,1,301,2020-06-02T10:49:06-07:00,3.653825044632,4,versionC_stim.csv,READVersionD.csv,"Read Version D","Dissertation, read only version D",CHEESE,WINE,Study1,S,57,7,Test,User,-,,Recall,Recall2,2894,,0,-1,-1,0,0,,1
5eaad3ea17b8c30411098ec4,893f05zlsg,Nick_Dissertation_EX1,1,302,2020-06-02T10:49:09-07:00,3.4610829353333,4,versionC_stim.csv,READVersionD.csv,"Read Version D","Dissertation, read only version D",DEFINITION,MEANING,Study1,S,62,82,Test,User,-,,Recall,Recall2,2691,meaning,100,1594,2497,1,1,,1
5eaad3ea17b8c30411098ec4,893f05zlsg,Nick_Dissertation_EX1,1,303,2020-06-02T10:49:14-07:00,4.5195798873901,4,versionC_stim.csv,READVersionD.csv,"Read Version D","Dissertation, read only version D",SEIZE,TAKE,Study1,F,29,29,Test,User,-,,Recall,Recall2,2270,take,100,1757,2083,1,1,,1
5eaad3ea17b8c30411098ec4,893f05zlsg,Nick_Dissertation_EX1,1,304,2020-06-02T10:49:16-07:00,2.0415680408478,4,versionC_stim.csv,READVersionD.csv,"Read Version D","Dissertation, read only version D",DESIGN,ARCHITECTURE,Study1,S,51,22,Test,User,-,,Recall,Recall2,1343,,0,-1,-1,0,0,,1
5eaad3ea17b8c30411098ec4,893f05zlsg,Nick_Dissertation_EX1,1,305,2020-06-02T10:49:20-07:00,4.1622631549835,4,versionC_stim.csv,READVersionD.csv,"Read Version D","Dissertation, read only version D",CLUTTER,PUSHER,Study1,U,66,44,Test,User,-,,Recall,Recall2,1363,,0,-1,-1,0,0,,1
5eaad3ea17b8c30411098ec4,893f05zlsg,Nick_Dissertation_EX1,1,306,2020-06-02T10:49:24-07:00,4.3621068000793,4,versionC_stim.csv,READVersionD.csv,"Read Version D","Dissertation, read only version D",AMOUNT,NUMBER,Study1,S,47,20,Test,User,-,,Recall,Recall2,3382,money,36.363636363636,1528,3047,0,0,,1
5eaad3ea17b8c30411098ec4,893f05zlsg,Nick_Dissertation_EX1,1,307,2020-06-02T10:49:28-07:00,3.4708361625671,4,versionC_stim.csv,READVersionD.csv,"Read Version D","Dissertation, read only version D",SIP,DRINK,Study1,F,27,62,Test,User,-,,Recall,Recall2,2653,drink,100,1225,2365,1,1,,1
5eaad3ea17b8c30411098ec4,893f05zlsg,Nick_Dissertation_EX1,1,308,2020-06-02T10:49:31-07:00,3.2855339050293,4,versionC_stim.csv,READVersionD.csv,"Read Version D","Dissertation, read only version D",OUT,WAY,Study1,B,16,39,Test,User,-,,Recall,Recall2,2204,in,0,1786,1881,0,0,,1
5eaad3ea17b8c30411098ec4,893f05zlsg,Nick_Dissertation_EX1,1,309,2020-06-02T10:49:37-07:00,5.6114830970764,4,versionC_stim.csv,READVersionD.csv,"Read Version D","Dissertation, read only version D",RACKET,BALL,Study1,F,38,81,Test,User,-,,Recall,Recall2,3857,tennis,0,2492,3692,0,0,,1
5eaad3ea17b8c30411098ec4,893f05zlsg,Nick_Dissertation_EX1,1,310,2020-06-02T10:49:38-07:00,1.8074979782104,4,versionC_stim.csv,READVersionD.csv,"Read Version D","Dissertation, read only version D",SODA,POP,Study1,S,56,23,Test,User,-,,Recall,Recall2,1049,,0,-1,-1,0,0,,1
5eaad3ea17b8c30411098ec4,893f05zlsg,Nick_Dissertation_EX1,1,311,2020-06-02T10:49:43-07:00,4.6058168411255,4,versionC_stim.csv,READVersionD.csv,"Read Version D","Dissertation, read only version D",BIRD,SWAN,Study1,B,14,49,Test,User,-,,Recall,Recall2,1953,fly,0,1407,1731,0,0,,1
5eaad3ea17b8c30411098ec4,893f05zlsg,Nick_Dissertation_EX1,1,312,2020-06-02T10:49:47-07:00,3.8268420696259,4,versionC_stim.csv,READVersionD.csv,"Read Version D","Dissertation, read only version D",FLOWER,ORCHID,Study1,B,24,12,Test,User,-,,Recall,Recall2,2807,green,18.181818181818,1436,2608,0,0,,1
5eaad3ea17b8c30411098ec4,893f05zlsg,Nick_Dissertation_EX1,1,313,2020-06-02T10:49:49-07:00,2.0196640491486,4,versionC_stim.csv,READVersionD.csv,"Read Version D","Dissertation, read only version D",BLAZE,FIRE,Study1,F,45,51,Test,User,-,,Recall,Recall2,1038,,0,-1,-1,0,0,,1
5eaad3ea17b8c30411098ec4,893f05zlsg,Nick_Dissertation_EX1,1,314,2020-06-02T10:49:57-07:00,7.8707649707794,4,versionC_stim.csv,READVersionD.csv,"Read Version D","Dissertation, read only version D",ATTORNEY,LAW,Study1,F,34,41,Test,User,-,,Recall,Recall2,2907,law,100,1831,2141,1,1,,1
5eaad3ea17b8c30411098ec4,893f05zlsg,Nick_Dissertation_EX1,1,315,2020-06-02T10:49:59-07:00,2.3724460601807,4,versionC_stim.csv,READVersionD.csv,"Read Version D","Dissertation, read only version D",WAR,REVOLUTION,Study1,B,20,64,Test,User,-,,Recall,Recall2,1170,,0,-1,-1,0,0,,1
5eaad3ea17b8c30411098ec4,893f05zlsg,Nick_Dissertation_EX1,1,316,2020-06-02T10:50:08-07:00,9.1186518669128,4,versionC_stim.csv,READVersionD.csv,"Read Version D","Dissertation, read only version D",ADD,VALLEY,Study1,U,82,71,Test,User,-,,Recall,Recall2,7016,number,16.666666666667,3063,6672,0,0,,1
5eaad3ea17b8c30411098ec4,893f05zlsg,Nick_Dissertation_EX1,1,317,2020-06-02T10:50:12-07:00,3.9353890419006,4,versionC_stim.csv,READVersionD.csv,"Read Version D","Dissertation, read only version D",LATCH,KEY,Study1,F,36,69,Test,User,-,,Recall,Recall2,2918,key,100,1596,2719,1,1,,1
5eaad3ea17b8c30411098ec4,893f05zlsg,Nick_Dissertation_EX1,1,318,2020-06-02T10:50:16-07:00,4.1291451454163,4,versionC_stim.csv,READVersionD.csv,"Read Version D","Dissertation, read only version D",TUCK,ALLOW,Study1,U,78,76,Test,User,-,,Recall,Recall2,3159,bed,0,2591,2926,0,0,,1
5eaad3ea17b8c30411098ec4,893f05zlsg,Nick_Dissertation_EX1,1,319,2020-06-02T10:50:21-07:00,4.5325529575348,4,versionC_stim.csv,READVersionD.csv,"Read Version D","Dissertation, read only version D",LION,ART,Study1,U,79,78,Test,User,-,,Recall,Recall2,1217,,0,-1,-1,0,0,,1
5eaad3ea17b8c30411098ec4,893f05zlsg,Nick_Dissertation_EX1,1,320,2020-06-02T10:50:23-07:00,2.191948890686,4,versionC_stim.csv,READVersionD.csv,"Read Version D","Dissertation, read only version D",COW,HERD,Study1,B,22,14,Test,User,-,,Recall,Recall2,921,,0,-1,-1,0,0,,1
5eaad3ea17b8c30411098ec4,893f05zlsg,Nick_Dissertation_EX1,1,321,2020-06-02T10:50:27-07:00,4.3557460308075,4,versionC_stim.csv,READVersionD.csv,"Read Version D","Dissertation, read only version D",FISH,TUNA,Study1,B,25,33,Test,User,-,,Recall,Recall2,3284,,0,-1,-1,0,0,,1
5eaad3ea17b8c30411098ec4,893f05zlsg,Nick_Dissertation_EX1,1,322,2020-06-02T10:50:30-07:00,2.9039831161499,4,versionC_stim.csv,READVersionD.csv,"Read Version D","Dissertation, read only version D",DROWSY,SLEEP,Study1,F,41,24,Test,User,-,,Recall,Recall2,2031,sleep,100,1213,1752,1,1,,1
5eaad3ea17b8c30411098ec4,893f05zlsg,Nick_Dissertation_EX1,1,323,2020-06-02T10:50:36-07:00,5.3431849479675,4,versionC_stim.csv,READVersionD.csv,"Read Version D","Dissertation, read only version D",DIVISION,MATH,Study1,F,33,32,Test,User,-,,Recall,Recall2,2611,math,100,1913,2343,1,1,,1
5eaad3ea17b8c30411098ec4,893f05zlsg,Nick_Dissertation_EX1,1,324,2020-06-02T10:50:40-07:00,4.2548398971558,4,versionC_stim.csv,READVersionD.csv,"Read Version D","Dissertation, read only version D",BELT,SOON,Study1,U,70,60,Test,User,-,,Recall,Recall2,2318,seat,25,1426,2162,0,0,,1
5eaad3ea17b8c30411098ec4,893f05zlsg,Nick_Dissertation_EX1,1,325,2020-06-02T10:50:43-07:00,3.3551640510559,4,versionC_stim.csv,READVersionD.csv,"Read Version D","Dissertation, read only version D",STING,HORNET,Study1,B,11,10,Test,User,-,,Recall,Recall2,2193,bee,22.222222222222,1467,2081,0,0,,1
5eaad3ea17b8c30411098ec4,893f05zlsg,Nick_Dissertation_EX1,1,326,2020-06-02T10:50:46-07:00,2.7508449554443,4,versionC_stim.csv,READVersionD.csv,"Read Version D","Dissertation, read only version D",ATTIRE,CLOTHES,Study1,F,43,85,Test,User,-,,Recall,Recall2,1713,,0,-1,-1,0,0,,1
5eaad3ea17b8c30411098ec4,893f05zlsg,Nick_Dissertation_EX1,1,327,2020-06-02T10:50:48-07:00,1.737074136734,4,versionC_stim.csv,READVersionD.csv,"Read Version D","Dissertation, read only version D",BAR,GRILL,Study1,S,52,16,Test,User,-,,Recall,Recall2,972,,0,-1,-1,0,0,,1
5eaad3ea17b8c30411098ec4,893f05zlsg,Nick_Dissertation_EX1,1,328,2020-06-02T10:50:53-07:00,5.3874008655548,4,versionC_stim.csv,READVersionD.csv,"Read Version D","Dissertation, read only version D",HUNGRY,PARK,Study1,U,68,77,Test,User,-,,Recall,Recall2,3282,famine,20,2428,3138,0,0,,1
5eaad3ea17b8c30411098ec4,893f05zlsg,Nick_Dissertation_EX1,1,329,2020-06-02T10:50:57-07:00,3.4326939582825,4,versionC_stim.csv,READVersionD.csv,"Read Version D","Dissertation, read only version D",WOMAN,LIFT,Study1,U,69,59,Test,User,-,,Recall,Recall2,1131,,0,-1,-1,0,0,,1
5eaad3ea17b8c30411098ec4,893f05zlsg,Nick_Dissertation_EX1,1,330,2020-06-02T10:51:02-07:00,5.3717670440674,4,versionC_stim.csv,READVersionD.csv,"Read Version D","Dissertation, read only version D",STENCH,SMELL,Study1,F,42,47,Test,User,-,,Recall,Recall2,2702,smell,100,1939,2496,1,1,,1
5eaad3ea17b8c30411098ec4,893f05zlsg,Nick_Dissertation_EX1,1,331,2020-06-02T10:51:04-07:00,2.0921151638031,4,versionC_stim.csv,READVersionD.csv,"Read Version D","Dissertation, read only version D",WOULD,CASH,Study1,U,83,79,Test,User,-,,Recall,Recall2,1034,,0,-1,-1,0,0,,1
5eaad3ea17b8c30411098ec4,893f05zlsg,Nick_Dissertation_EX1,1,332,2020-06-02T10:51:06-07:00,1.8353397846222,4,versionC_stim.csv,READVersionD.csv,"Read Version D","Dissertation, read only version D",HAMMER,CHISEL,Study1,B,9,74,Test,User,-,,Recall,Recall2,1101,,0,-1,-1,0,0,,1
5eaad3ea17b8c30411098ec4,893f05zlsg,Nick_Dissertation_EX1,1,333,2020-06-02T10:51:10-07:00,3.7853980064392,4,versionC_stim.csv,READVersionD.csv,"Read Version D","Dissertation, read only version D",BEE,HONEY,Study1,S,63,73,Test,User,-,,Recall,Recall2,3061,honey,100,1883,2821,1,1,,1
5eaad3ea17b8c30411098ec4,893f05zlsg,Nick_Dissertation_EX1,1,334,2020-06-02T10:51:11-07:00,1.6943571567535,4,versionC_stim.csv,READVersionD.csv,"Read Version D","Dissertation, read only version D",FANTASTIC,GREAT,Study1,F,35,26,Test,User,-,,Recall,Recall2,956,,0,-1,-1,0,0,,1
5eaad3ea17b8c30411098ec4,893f05zlsg,Nick_Dissertation_EX1,1,335,2020-06-02T10:51:14-07:00,2.6304440498352,4,versionC_stim.csv,READVersionD.csv,"Read Version D","Dissertation, read only version D",ASSIGNMENT,DUE,Study1,S,46,72,Test,User,-,,Recall,Recall2,1879,due,100,1389,1726,1,1,,1
5eaad3ea17b8c30411098ec4,893f05zlsg,Nick_Dissertation_EX1,1,336,2020-06-02T10:51:16-07:00,1.7744929790497,4,versionC_stim.csv,READVersionD.csv,"Read Version D","Dissertation, read only version D",ENOUGH,FULL,Study1,F,26,75,Test,User,-,,Recall,Recall2,1003,,0,-1,-1,0,0,,1
5eaad3ea17b8c30411098ec4,893f05zlsg,Nick_Dissertation_EX1,1,337,2020-06-02T10:51:18-07:00,1.868332862854,4,versionC_stim.csv,READVersionD.csv,"Read Version D","Dissertation, read only version D",NEWS,EDITOR,Study1,B,10,43,Test,User,-,,Recall,Recall2,759,,0,-1,-1,0,0,,1
5eaad3ea17b8c30411098ec4,893f05zlsg,Nick_Dissertation_EX1,1,338,2020-06-02T10:51:20-07:00,1.880145072937,4,versionC_stim.csv,READVersionD.csv,"Read Version D","Dissertation, read only version D",WATER,BRIDGE,Study1,B,18,11,Test,User,-,,Recall,Recall2,1145,,0,-1,-1,0,0,,1
5eaad3ea17b8c30411098ec4,893f05zlsg,Nick_Dissertation_EX1,1,339,2020-06-02T10:51:23-07:00,3.262834072113,4,versionC_stim.csv,READVersionD.csv,"Read Version D","Dissertation, read only version D",PILOT,PLANE,Study1,F,44,66,Test,User,-,,Recall,Recall2,2534,plane,100,1059,2378,1,1,,1
5eaad3ea17b8c30411098ec4,893f05zlsg,Nick_Dissertation_EX1,1,340,2020-06-02T10:51:24-07:00,1.5656368732452,4,versionC_stim.csv,READVersionD.csv,"Read Version D","Dissertation, read only version D",SALAD,LETTUCE,Study1,S,59,57,Test,User,-,,Recall,Recall2,830,,0,-1,-1,0,0,,1
5eaad3ea17b8c30411098ec4,893f05zlsg,Nick_Dissertation_EX1,1,341,2020-06-02T10:51:29-07:00,4.6278200149536,4,versionC_stim.csv,READVersionD.csv,"Read Version D","Dissertation, read only version D",WASP,BUG,Study1,F,32,35,Test,User,-,,Recall,Recall2,2607,bug,100,1563,2140,1,1,,1
5eaad3ea17b8c30411098ec4,893f05zlsg,Nick_Dissertation_EX1,1,342,2020-06-02T10:51:31-07:00,1.6336989402771,4,versionC_stim.csv,READVersionD.csv,"Read Version D","Dissertation, read only version D",SICK,HIDE,Study1,U,84,25,Test,User,-,,Recall,Recall2,942,,0,-1,-1,0,0,,1
5eaad3ea17b8c30411098ec4,893f05zlsg,Nick_Dissertation_EX1,1,343,2020-06-02T10:51:33-07:00,2.617858171463,4,versionC_stim.csv,READVersionD.csv,"Read Version D","Dissertation, read only version D",FUTURE,PAST,Study1,S,61,40,Test,User,-,,Recall,Recall2,1846,past,100,1135,1690,1,1,,1
5eaad3ea17b8c30411098ec4,893f05zlsg,Nick_Dissertation_EX1,1,344,2020-06-02T10:51:36-07:00,2.3083398342133,4,versionC_stim.csv,READVersionD.csv,"Read Version D","Dissertation, read only version D",GROWTH,HEIGHT,Study1,F,30,84,Test,User,-,,Recall,Recall2,959,,0,-1,-1,0,0,,1
5eaad3ea17b8c30411098ec4,893f05zlsg,Nick_Dissertation_EX1,1,345,2020-06-02T10:51:43-07:00,7.4573819637299,4,versionC_stim.csv,READVersionD.csv,"Read Version D","Dissertation, read only version D",CAR,HAPPY,Study1,U,77,18,Test,User,-,,Recall,Recall2,1943,,0,-1,-1,0,0,,1
5eaad3ea17b8c30411098ec4,893f05zlsg,Nick_Dissertation_EX1,1,346,2020-06-02T10:51:53-07:00,10.374039173126,4,versionC_stim.csv,READVersionD.csv,"Read Version D","Dissertation, read only version D",VASE,KING,Study1,U,85,52,Test,User,-,,Recall,Recall2,8174,case,0,7257,7768,0,0,,1
5eaad3ea17b8c30411098ec4,893f05zlsg,Nick_Dissertation_EX1,1,347,2020-06-02T10:51:57-07:00,3.5202598571777,4,versionC_stim.csv,READVersionD.csv,"Read Version D","Dissertation, read only version D",END,BEGIN,Study1,S,54,38,Test,User,-,,Recall,Recall2,2307,near,22.222222222222,1689,2113,0,0,,1
5eaad3ea17b8c30411098ec4,893f05zlsg,Nick_Dissertation_EX1,1,348,2020-06-02T10:51:59-07:00,1.6365389823914,4,versionC_stim.csv,READVersionD.csv,"Read Version D","Dissertation, read only version D",TALK,DISCUSSION,Study1,B,21,42,Test,User,-,,Recall,Recall2,900,,0,-1,-1,0,0,,1
