Username,ID,ExperimentName,Session,Trial,Date,TimeDif,"Condition Number","Stimuli File","Order File","Condition Description","Condition Notes",Stimuli*Cue,Stimuli*Answer,Stimuli*Shuffle,"Stimuli*Stimuli Notes",Stimuli*Value,Procedure*Item,"Procedure*Trial Type","Procedure*Max Time","Procedure*Min Time",Procedure*Text,"Procedure*Procedure Notes",Procedure*Shuffle,Response*RT,Response*Response,Response*Accuracy,Response*RTfirst,Response*RTlast,Response*strictAcc,Response*lenientAcc,Response*focus,Response*Focus
5ed64879a7771804bd1f974e,50ncubf7hg,Nick_Dissertation_EX1,1,1,2020-06-02T09:00:09-07:00,11.843014001846,3,versionC_stim.csv,READVersionC.csv,"Read Version C","Dissertation, read only version C",,,,,,0,Instruct,-,10,"Please study each of the following word pairs. Remember that your memory will be tested! When finished, press Enter to move to the next pair.",Initial_Instruct,Instruct1,11470,,,-1,-1,,,,1
5ed64879a7771804bd1f974e,50ncubf7hg,Nick_Dissertation_EX1,1,2,2020-06-02T09:00:14-07:00,5.4479558467865,3,versionC_stim.csv,READVersionC.csv,"Read Version C","Dissertation, read only version C",CATCHER,BASEBALL,BUFFER1,Buffer,2,2,Study,User,-,,Study/JOL,BUFFER,4916,,,-1,-1,,,,1
5ed64879a7771804bd1f974e,50ncubf7hg,Nick_Dissertation_EX1,1,3,2020-06-02T09:00:19-07:00,4.5676071643829,3,versionC_stim.csv,READVersionC.csv,"Read Version C","Dissertation, read only version C",JAM,SPACE,BUFFER1,Buffer,5,5,Study,User,-,,Study/JOL,BUFFER,4162,,,-1,-1,,,,1
5ed64879a7771804bd1f974e,50ncubf7hg,Nick_Dissertation_EX1,1,4,2020-06-02T09:00:22-07:00,3.017413854599,3,versionC_stim.csv,READVersionC.csv,"Read Version C","Dissertation, read only version C",GREEN,TREES,BUFFER1,Buffer,1,6,Study,User,-,,Study/JOL,BUFFER,2602,,,-1,-1,,,,1
5ed64879a7771804bd1f974e,50ncubf7hg,Nick_Dissertation_EX1,1,5,2020-06-02T09:00:24-07:00,2.3988969326019,3,versionC_stim.csv,READVersionC.csv,"Read Version C","Dissertation, read only version C",BUTTER,PEANUT,BUFFER1,Buffer,3,4,Study,User,-,,Study/JOL,BUFFER,1979,,,-1,-1,,,,1
5ed64879a7771804bd1f974e,50ncubf7hg,Nick_Dissertation_EX1,1,6,2020-06-02T09:00:30-07:00,5.7119982242584,3,versionC_stim.csv,READVersionC.csv,"Read Version C","Dissertation, read only version C",HIDE,SCARE,BUFFER1,Buffer,4,3,Study,User,-,,Study/JOL,BUFFER,5314,,,-1,-1,,,,1
5ed64879a7771804bd1f974e,50ncubf7hg,Nick_Dissertation_EX1,1,7,2020-06-02T09:00:34-07:00,3.9790439605713,3,versionC_stim.csv,READVersionC.csv,"Read Version C","Dissertation, read only version C",WASP,BUG,Study1,F,32,46,Study,User,-,,Study/JOL,"Study Phase",3560,,,-1,-1,,,,1
5ed64879a7771804bd1f974e,50ncubf7hg,Nick_Dissertation_EX1,1,8,2020-06-02T09:00:36-07:00,2.130343914032,3,versionC_stim.csv,READVersionC.csv,"Read Version C","Dissertation, read only version C",ATTIRE,CLOTHES,Study1,F,43,25,Study,User,-,,Study/JOL,"Study Phase",1711,,,-1,-1,,,,1
5ed64879a7771804bd1f974e,50ncubf7hg,Nick_Dissertation_EX1,1,9,2020-06-02T09:00:38-07:00,1.7404170036316,3,versionC_stim.csv,READVersionC.csv,"Read Version C","Dissertation, read only version C",FANTASTIC,GREAT,Study1,F,35,51,Study,User,-,,Study/JOL,"Study Phase",1310,,,-1,-1,,,,1
5ed64879a7771804bd1f974e,50ncubf7hg,Nick_Dissertation_EX1,1,10,2020-06-02T09:00:42-07:00,4.0813391208649,3,versionC_stim.csv,READVersionC.csv,"Read Version C","Dissertation, read only version C",SIGHT,DEBATE,Study1,U,73,59,Study,User,-,,Study/JOL,"Study Phase",3683,,,-1,-1,,,,1
5ed64879a7771804bd1f974e,50ncubf7hg,Nick_Dissertation_EX1,1,11,2020-06-02T09:00:44-07:00,2.2833988666534,3,versionC_stim.csv,READVersionC.csv,"Read Version C","Dissertation, read only version C",FISH,TUNA,Study1,B,25,74,Study,User,-,,Study/JOL,"Study Phase",1834,,,-1,-1,,,,1
5ed64879a7771804bd1f974e,50ncubf7hg,Nick_Dissertation_EX1,1,12,2020-06-02T09:00:46-07:00,2.5613880157471,3,versionC_stim.csv,READVersionC.csv,"Read Version C","Dissertation, read only version C",FOOT,SHOE,Study1,S,60,58,Study,User,-,,Study/JOL,"Study Phase",2055,,,-1,-1,,,,1
5ed64879a7771804bd1f974e,50ncubf7hg,Nick_Dissertation_EX1,1,13,2020-06-02T09:00:53-07:00,6.7793769836426,3,versionC_stim.csv,READVersionC.csv,"Read Version C","Dissertation, read only version C",STING,HORNET,Study1,B,11,85,Study,User,-,,Study/JOL,"Study Phase",6396,,,-1,-1,,,,1
5ed64879a7771804bd1f974e,50ncubf7hg,Nick_Dissertation_EX1,1,14,2020-06-02T09:00:57-07:00,3.2950859069824,3,versionC_stim.csv,READVersionC.csv,"Read Version C","Dissertation, read only version C",GROWTH,HEIGHT,Study1,F,30,50,Study,User,-,,Study/JOL,"Study Phase",2866,,,-1,-1,,,,1
5ed64879a7771804bd1f974e,50ncubf7hg,Nick_Dissertation_EX1,1,15,2020-06-02T09:01:01-07:00,4.2058050632477,3,versionC_stim.csv,READVersionC.csv,"Read Version C","Dissertation, read only version C",ROCK,GEOLOGY,Study1,B,19,20,Study,User,-,,Study/JOL,"Study Phase",3787,,,-1,-1,,,,1
5ed64879a7771804bd1f974e,50ncubf7hg,Nick_Dissertation_EX1,1,16,2020-06-02T09:01:03-07:00,2.4402611255646,3,versionC_stim.csv,READVersionC.csv,"Read Version C","Dissertation, read only version C",CHEESE,WINE,Study1,S,57,79,Study,User,-,,Study/JOL,"Study Phase",2032,,,-1,-1,,,,1
5ed64879a7771804bd1f974e,50ncubf7hg,Nick_Dissertation_EX1,1,17,2020-06-02T09:01:05-07:00,1.8403148651123,3,versionC_stim.csv,READVersionC.csv,"Read Version C","Dissertation, read only version C",DOG,PAW,Study1,B,15,29,Study,User,-,,Study/JOL,"Study Phase",1438,,,-1,-1,,,,1
5ed64879a7771804bd1f974e,50ncubf7hg,Nick_Dissertation_EX1,1,18,2020-06-02T09:01:07-07:00,1.7314939498901,3,versionC_stim.csv,READVersionC.csv,"Read Version C","Dissertation, read only version C",FLOOR,DISCOVER,Study1,U,71,64,Study,User,-,,Study/JOL,"Study Phase",1316,,,-1,-1,,,,1
5ed64879a7771804bd1f974e,50ncubf7hg,Nick_Dissertation_EX1,1,19,2020-06-02T09:01:08-07:00,1.6810131072998,3,versionC_stim.csv,READVersionC.csv,"Read Version C","Dissertation, read only version C",SITE,LOCATION,Study1,S,48,11,Study,User,-,,Study/JOL,"Study Phase",1269,,,-1,-1,,,,1
5ed64879a7771804bd1f974e,50ncubf7hg,Nick_Dissertation_EX1,1,20,2020-06-02T09:01:10-07:00,1.7845139503479,3,versionC_stim.csv,READVersionC.csv,"Read Version C","Dissertation, read only version C",COW,HERD,Study1,B,22,78,Study,User,-,,Study/JOL,"Study Phase",1364,,,-1,-1,,,,1
5ed64879a7771804bd1f974e,50ncubf7hg,Nick_Dissertation_EX1,1,21,2020-06-02T09:01:12-07:00,1.8104541301727,3,versionC_stim.csv,READVersionC.csv,"Read Version C","Dissertation, read only version C",WORD,SENTENCE,Study1,F,31,15,Study,User,-,,Study/JOL,"Study Phase",1405,,,-1,-1,,,,1
5ed64879a7771804bd1f974e,50ncubf7hg,Nick_Dissertation_EX1,1,22,2020-06-02T09:01:14-07:00,2.3143119812012,3,versionC_stim.csv,READVersionC.csv,"Read Version C","Dissertation, read only version C",STENCH,SMELL,Study1,F,42,60,Study,User,-,,Study/JOL,"Study Phase",1805,,,-1,-1,,,,1
5ed64879a7771804bd1f974e,50ncubf7hg,Nick_Dissertation_EX1,1,23,2020-06-02T09:01:17-07:00,2.3094849586487,3,versionC_stim.csv,READVersionC.csv,"Read Version C","Dissertation, read only version C",CLEAN,HYGIENE,Study1,B,17,18,Study,User,-,,Study/JOL,"Study Phase",1801,,,-1,-1,,,,1
5ed64879a7771804bd1f974e,50ncubf7hg,Nick_Dissertation_EX1,1,24,2020-06-02T09:01:22-07:00,5.1900010108948,3,versionC_stim.csv,READVersionC.csv,"Read Version C","Dissertation, read only version C",HAMMER,CHISEL,Study1,B,9,38,Study,User,-,,Study/JOL,"Study Phase",4692,,,-1,-1,,,,1
5ed64879a7771804bd1f974e,50ncubf7hg,Nick_Dissertation_EX1,1,25,2020-06-02T09:01:25-07:00,3.6149718761444,3,versionC_stim.csv,READVersionC.csv,"Read Version C","Dissertation, read only version C",CHILI,HOT,Study1,F,37,81,Study,User,-,,Study/JOL,"Study Phase",3210,,,-1,-1,,,,1
5ed64879a7771804bd1f974e,50ncubf7hg,Nick_Dissertation_EX1,1,26,2020-06-02T09:01:28-07:00,2.5868711471558,3,versionC_stim.csv,READVersionC.csv,"Read Version C","Dissertation, read only version C",SICK,HIDE,Study1,U,84,65,Study,User,-,,Study/JOL,"Study Phase",2190,,,-1,-1,,,,1
5ed64879a7771804bd1f974e,50ncubf7hg,Nick_Dissertation_EX1,1,27,2020-06-02T09:01:30-07:00,2.0313398838043,3,versionC_stim.csv,READVersionC.csv,"Read Version C","Dissertation, read only version C",CHORE,WORK,Study1,F,39,12,Study,User,-,,Study/JOL,"Study Phase",1608,,,-1,-1,,,,1
5ed64879a7771804bd1f974e,50ncubf7hg,Nick_Dissertation_EX1,1,28,2020-06-02T09:01:33-07:00,3.1002440452576,3,versionC_stim.csv,READVersionC.csv,"Read Version C","Dissertation, read only version C",TALK,DISCUSSION,Study1,B,21,73,Study,User,-,,Study/JOL,"Study Phase",2702,,,-1,-1,,,,1
5ed64879a7771804bd1f974e,50ncubf7hg,Nick_Dissertation_EX1,1,29,2020-06-02T09:01:35-07:00,1.8517820835114,3,versionC_stim.csv,READVersionC.csv,"Read Version C","Dissertation, read only version C",ENOUGH,FULL,Study1,F,26,44,Study,User,-,,Study/JOL,"Study Phase",1447,,,-1,-1,,,,1
5ed64879a7771804bd1f974e,50ncubf7hg,Nick_Dissertation_EX1,1,30,2020-06-02T09:01:39-07:00,4.3934609889984,3,versionC_stim.csv,READVersionC.csv,"Read Version C","Dissertation, read only version C",WOULD,CASH,Study1,U,83,83,Study,User,-,,Study/JOL,"Study Phase",3957,,,-1,-1,,,,1
5ed64879a7771804bd1f974e,50ncubf7hg,Nick_Dissertation_EX1,1,31,2020-06-02T09:01:44-07:00,4.3544290065765,3,versionC_stim.csv,READVersionC.csv,"Read Version C","Dissertation, read only version C",ROUND,CIRCLE,Study1,S,65,84,Study,User,-,,Study/JOL,"Study Phase",3937,,,-1,-1,,,,1
5ed64879a7771804bd1f974e,50ncubf7hg,Nick_Dissertation_EX1,1,32,2020-06-02T09:01:47-07:00,3.2462830543518,3,versionC_stim.csv,READVersionC.csv,"Read Version C","Dissertation, read only version C",SODA,POP,Study1,S,56,80,Study,User,-,,Study/JOL,"Study Phase",2823,,,-1,-1,,,,1
5ed64879a7771804bd1f974e,50ncubf7hg,Nick_Dissertation_EX1,1,33,2020-06-02T09:01:52-07:00,4.6527338027954,3,versionC_stim.csv,READVersionC.csv,"Read Version C","Dissertation, read only version C",SACKING,DIETARY,Study1,U,67,45,Study,User,-,,Study/JOL,"Study Phase",4256,,,-1,-1,,,,1
5ed64879a7771804bd1f974e,50ncubf7hg,Nick_Dissertation_EX1,1,34,2020-06-02T09:01:56-07:00,4.1995370388031,3,versionC_stim.csv,READVersionC.csv,"Read Version C","Dissertation, read only version C",TUCK,ALLOW,Study1,U,78,21,Study,User,-,,Study/JOL,"Study Phase",3838,,,-1,-1,,,,1
5ed64879a7771804bd1f974e,50ncubf7hg,Nick_Dissertation_EX1,1,35,2020-06-02T09:02:00-07:00,4.2371480464935,3,versionC_stim.csv,READVersionC.csv,"Read Version C","Dissertation, read only version C",POSITION,MACHINE,Study1,U,76,52,Study,User,-,,Study/JOL,"Study Phase",3828,,,-1,-1,,,,1
5ed64879a7771804bd1f974e,50ncubf7hg,Nick_Dissertation_EX1,1,36,2020-06-02T09:02:04-07:00,3.4237051010132,3,versionC_stim.csv,READVersionC.csv,"Read Version C","Dissertation, read only version C",DROWSY,SLEEP,Study1,F,41,43,Study,User,-,,Study/JOL,"Study Phase",3007,,,-1,-1,,,,1
5ed64879a7771804bd1f974e,50ncubf7hg,Nick_Dissertation_EX1,1,37,2020-06-02T09:02:07-07:00,3.5273509025574,3,versionC_stim.csv,READVersionC.csv,"Read Version C","Dissertation, read only version C",DEFINITION,MEANING,Study1,S,62,76,Study,User,-,,Study/JOL,"Study Phase",3086,,,-1,-1,,,,1
5ed64879a7771804bd1f974e,50ncubf7hg,Nick_Dissertation_EX1,1,38,2020-06-02T09:02:10-07:00,3.1822669506073,3,versionC_stim.csv,READVersionC.csv,"Read Version C","Dissertation, read only version C",WATER,BRIDGE,Study1,B,18,82,Study,User,-,,Study/JOL,"Study Phase",2769,,,-1,-1,,,,1
5ed64879a7771804bd1f974e,50ncubf7hg,Nick_Dissertation_EX1,1,39,2020-06-02T09:02:14-07:00,3.3725790977478,3,versionC_stim.csv,READVersionC.csv,"Read Version C","Dissertation, read only version C",NEWS,EDITOR,Study1,B,10,36,Study,User,-,,Study/JOL,"Study Phase",2939,,,-1,-1,,,,1
5ed64879a7771804bd1f974e,50ncubf7hg,Nick_Dissertation_EX1,1,40,2020-06-02T09:02:15-07:00,1.8190648555756,3,versionC_stim.csv,READVersionC.csv,"Read Version C","Dissertation, read only version C",ATTORNEY,LAW,Study1,F,34,22,Study,User,-,,Study/JOL,"Study Phase",1405,,,-1,-1,,,,1
5ed64879a7771804bd1f974e,50ncubf7hg,Nick_Dissertation_EX1,1,41,2020-06-02T09:02:19-07:00,3.980535030365,3,versionC_stim.csv,READVersionC.csv,"Read Version C","Dissertation, read only version C",WAR,REVOLUTION,Study1,B,20,62,Study,User,-,,Study/JOL,"Study Phase",3567,,,-1,-1,,,,1
5ed64879a7771804bd1f974e,50ncubf7hg,Nick_Dissertation_EX1,1,42,2020-06-02T09:02:22-07:00,2.3321850299835,3,versionC_stim.csv,READVersionC.csv,"Read Version C","Dissertation, read only version C",LATCH,KEY,Study1,F,36,28,Study,User,-,,Study/JOL,"Study Phase",1926,,,-1,-1,,,,1
5ed64879a7771804bd1f974e,50ncubf7hg,Nick_Dissertation_EX1,1,43,2020-06-02T09:02:25-07:00,3.7042870521545,3,versionC_stim.csv,READVersionC.csv,"Read Version C","Dissertation, read only version C",LIVER,KIDNEY,Study1,S,53,69,Study,User,-,,Study/JOL,"Study Phase",3304,,,-1,-1,,,,1
5ed64879a7771804bd1f974e,50ncubf7hg,Nick_Dissertation_EX1,1,44,2020-06-02T09:02:30-07:00,5.0304498672485,3,versionC_stim.csv,READVersionC.csv,"Read Version C","Dissertation, read only version C",VASE,KING,Study1,U,85,13,Study,User,-,,Study/JOL,"Study Phase",4641,,,-1,-1,,,,1
5ed64879a7771804bd1f974e,50ncubf7hg,Nick_Dissertation_EX1,1,45,2020-06-02T09:02:35-07:00,4.0277571678162,3,versionC_stim.csv,READVersionC.csv,"Read Version C","Dissertation, read only version C",BELT,SOON,Study1,U,70,68,Study,User,-,,Study/JOL,"Study Phase",3647,,,-1,-1,,,,1
5ed64879a7771804bd1f974e,50ncubf7hg,Nick_Dissertation_EX1,1,46,2020-06-02T09:02:37-07:00,2.9637839794159,3,versionC_stim.csv,READVersionC.csv,"Read Version C","Dissertation, read only version C",BEE,HONEY,Study1,S,63,42,Study,User,-,,Study/JOL,"Study Phase",2555,,,-1,-1,,,,1
5ed64879a7771804bd1f974e,50ncubf7hg,Nick_Dissertation_EX1,1,47,2020-06-02T09:02:41-07:00,3.1719269752502,3,versionC_stim.csv,READVersionC.csv,"Read Version C","Dissertation, read only version C",ADD,VALLEY,Study1,U,82,17,Study,User,-,,Study/JOL,"Study Phase",2774,,,-1,-1,,,,1
5ed64879a7771804bd1f974e,50ncubf7hg,Nick_Dissertation_EX1,1,48,2020-06-02T09:02:43-07:00,2.5042989253998,3,versionC_stim.csv,READVersionC.csv,"Read Version C","Dissertation, read only version C",WASTE,DUMP,Study1,S,49,61,Study,User,-,,Study/JOL,"Study Phase",2097,,,-1,-1,,,,1
5ed64879a7771804bd1f974e,50ncubf7hg,Nick_Dissertation_EX1,1,49,2020-06-02T09:02:44-07:00,1.3272581100464,3,versionC_stim.csv,READVersionC.csv,"Read Version C","Dissertation, read only version C",OUT,WAY,Study1,B,16,16,Study,User,-,,Study/JOL,"Study Phase",903,,,-1,-1,,,,1
5ed64879a7771804bd1f974e,50ncubf7hg,Nick_Dissertation_EX1,1,50,2020-06-02T09:02:46-07:00,1.157791852951,3,versionC_stim.csv,READVersionC.csv,"Read Version C","Dissertation, read only version C",BIRD,SWAN,Study1,B,14,8,Study,User,-,,Study/JOL,"Study Phase",759,,,-1,-1,,,,1
5ed64879a7771804bd1f974e,50ncubf7hg,Nick_Dissertation_EX1,1,51,2020-06-02T09:02:48-07:00,2.5797891616821,3,versionC_stim.csv,READVersionC.csv,"Read Version C","Dissertation, read only version C",JURY,TRIAL,Study1,S,50,14,Study,User,-,,Study/JOL,"Study Phase",2156,,,-1,-1,,,,1
5ed64879a7771804bd1f974e,50ncubf7hg,Nick_Dissertation_EX1,1,52,2020-06-02T09:02:54-07:00,5.568342924118,3,versionC_stim.csv,READVersionC.csv,"Read Version C","Dissertation, read only version C",HAND,FIX,Study1,U,75,71,Study,User,-,,Study/JOL,"Study Phase",5146,,,-1,-1,,,,0.824
5ed64879a7771804bd1f974e,50ncubf7hg,Nick_Dissertation_EX1,1,53,2020-06-02T09:02:57-07:00,3.5541689395905,3,versionC_stim.csv,READVersionC.csv,"Read Version C","Dissertation, read only version C",ACCIDENT,STRONG,Study1,U,80,66,Study,User,-,,Study/JOL,"Study Phase",3168,,,-1,-1,,,,1
5ed64879a7771804bd1f974e,50ncubf7hg,Nick_Dissertation_EX1,1,54,2020-06-02T09:03:00-07:00,2.7878520488739,3,versionC_stim.csv,READVersionC.csv,"Read Version C","Dissertation, read only version C",AMOUNT,NUMBER,Study1,S,47,27,Study,User,-,,Study/JOL,"Study Phase",2367,,,-1,-1,,,,1
5ed64879a7771804bd1f974e,50ncubf7hg,Nick_Dissertation_EX1,1,55,2020-06-02T09:03:02-07:00,1.6867959499359,3,versionC_stim.csv,READVersionC.csv,"Read Version C","Dissertation, read only version C",CARD,CREDIT,Study1,B,23,9,Study,User,-,,Study/JOL,"Study Phase",1258,,,-1,-1,,,,1
5ed64879a7771804bd1f974e,50ncubf7hg,Nick_Dissertation_EX1,1,56,2020-06-02T09:03:04-07:00,2.4337141513824,3,versionC_stim.csv,READVersionC.csv,"Read Version C","Dissertation, read only version C",CAVE,DARK,Study1,F,28,37,Study,User,-,,Study/JOL,"Study Phase",1996,,,-1,-1,,,,1
5ed64879a7771804bd1f974e,50ncubf7hg,Nick_Dissertation_EX1,1,57,2020-06-02T09:03:08-07:00,4.2295889854431,3,versionC_stim.csv,READVersionC.csv,"Read Version C","Dissertation, read only version C",FUTURE,PAST,Study1,S,61,72,Study,User,-,,Study/JOL,"Study Phase",3790,,,-1,-1,,,,1
5ed64879a7771804bd1f974e,50ncubf7hg,Nick_Dissertation_EX1,1,58,2020-06-02T09:03:13-07:00,4.7649190425873,3,versionC_stim.csv,READVersionC.csv,"Read Version C","Dissertation, read only version C",HUNGRY,PARK,Study1,U,68,34,Study,User,-,,Study/JOL,"Study Phase",4319,,,-1,-1,,,,1
5ed64879a7771804bd1f974e,50ncubf7hg,Nick_Dissertation_EX1,1,59,2020-06-02T09:03:15-07:00,1.9696359634399,3,versionC_stim.csv,READVersionC.csv,"Read Version C","Dissertation, read only version C",CAR,HAPPY,Study1,U,77,55,Study,User,-,,Study/JOL,"Study Phase",1550,,,-1,-1,,,,1
5ed64879a7771804bd1f974e,50ncubf7hg,Nick_Dissertation_EX1,1,60,2020-06-02T09:03:19-07:00,3.5028958320618,3,versionC_stim.csv,READVersionC.csv,"Read Version C","Dissertation, read only version C",MONEY,WAGE,Study1,B,8,33,Study,User,-,,Study/JOL,"Study Phase",3090,,,-1,-1,,,,1
5ed64879a7771804bd1f974e,50ncubf7hg,Nick_Dissertation_EX1,1,61,2020-06-02T09:03:23-07:00,4.1326630115509,3,versionC_stim.csv,READVersionC.csv,"Read Version C","Dissertation, read only version C",PLANT,ROOT,Study1,B,13,53,Study,User,-,,Study/JOL,"Study Phase",3712,,,-1,-1,,,,1
5ed64879a7771804bd1f974e,50ncubf7hg,Nick_Dissertation_EX1,1,62,2020-06-02T09:03:26-07:00,2.9297389984131,3,versionC_stim.csv,READVersionC.csv,"Read Version C","Dissertation, read only version C",DIVISION,MATH,Study1,F,33,40,Study,User,-,,Study/JOL,"Study Phase",2523,,,-1,-1,,,,1
5ed64879a7771804bd1f974e,50ncubf7hg,Nick_Dissertation_EX1,1,63,2020-06-02T09:03:30-07:00,4.6515500545502,3,versionC_stim.csv,READVersionC.csv,"Read Version C","Dissertation, read only version C",LION,ART,Study1,U,79,75,Study,User,-,,Study/JOL,"Study Phase",4245,,,-1,-1,,,,1
5ed64879a7771804bd1f974e,50ncubf7hg,Nick_Dissertation_EX1,1,64,2020-06-02T09:03:36-07:00,5.2900469303131,3,versionC_stim.csv,READVersionC.csv,"Read Version C","Dissertation, read only version C",PILOT,PLANE,Study1,F,44,39,Study,User,-,,Study/JOL,"Study Phase",4882,,,-1,-1,,,,1
5ed64879a7771804bd1f974e,50ncubf7hg,Nick_Dissertation_EX1,1,65,2020-06-02T09:03:39-07:00,3.5387949943542,3,versionC_stim.csv,READVersionC.csv,"Read Version C","Dissertation, read only version C",BUSINESS,DEATH,Study1,U,72,48,Study,User,-,,Study/JOL,"Study Phase",3102,,,-1,-1,,,,1
5ed64879a7771804bd1f974e,50ncubf7hg,Nick_Dissertation_EX1,1,66,2020-06-02T09:03:45-07:00,5.7597680091858,3,versionC_stim.csv,READVersionC.csv,"Read Version C","Dissertation, read only version C",TOILET,BATHROOM,Study1,S,58,56,Study,User,-,,Study/JOL,"Study Phase",5366,,,-1,-1,,,,1
5ed64879a7771804bd1f974e,50ncubf7hg,Nick_Dissertation_EX1,1,67,2020-06-02T09:03:56-07:00,10.827419042587,3,versionC_stim.csv,READVersionC.csv,"Read Version C","Dissertation, read only version C",WOMAN,LIFT,Study1,U,69,32,Study,User,-,,Study/JOL,"Study Phase",10150,,,-1,-1,,,,1
5ed64879a7771804bd1f974e,50ncubf7hg,Nick_Dissertation_EX1,1,68,2020-06-02T09:04:02-07:00,5.716686964035,3,versionC_stim.csv,READVersionC.csv,"Read Version C","Dissertation, read only version C",BRONZE,ARTERY,Study1,U,74,30,Study,User,-,,Study/JOL,"Study Phase",5267,,,-1,-1,,,,1
5ed64879a7771804bd1f974e,50ncubf7hg,Nick_Dissertation_EX1,1,69,2020-06-02T09:04:07-07:00,5.1396751403809,3,versionC_stim.csv,READVersionC.csv,"Read Version C","Dissertation, read only version C",ASSIGNMENT,DUE,Study1,S,46,86,Study,User,-,,Study/JOL,"Study Phase",4570,,,-1,-1,,,,1
5ed64879a7771804bd1f974e,50ncubf7hg,Nick_Dissertation_EX1,1,70,2020-06-02T09:04:10-07:00,3.4756598472595,3,versionC_stim.csv,READVersionC.csv,"Read Version C","Dissertation, read only version C",END,BEGIN,Study1,S,54,26,Study,User,-,,Study/JOL,"Study Phase",3044,,,-1,-1,,,,1
5ed64879a7771804bd1f974e,50ncubf7hg,Nick_Dissertation_EX1,1,71,2020-06-02T09:04:14-07:00,3.9931490421295,3,versionC_stim.csv,READVersionC.csv,"Read Version C","Dissertation, read only version C",BAR,GRILL,Study1,S,52,19,Study,User,-,,Study/JOL,"Study Phase",3562,,,-1,-1,,,,1
5ed64879a7771804bd1f974e,50ncubf7hg,Nick_Dissertation_EX1,1,72,2020-06-02T09:04:20-07:00,5.5646510124207,3,versionC_stim.csv,READVersionC.csv,"Read Version C","Dissertation, read only version C",SIP,DRINK,Study1,F,27,57,Study,User,-,,Study/JOL,"Study Phase",5139,,,-1,-1,,,,1
5ed64879a7771804bd1f974e,50ncubf7hg,Nick_Dissertation_EX1,1,73,2020-06-02T09:04:23-07:00,3.2808451652527,3,versionC_stim.csv,READVersionC.csv,"Read Version C","Dissertation, read only version C",SALAD,LETTUCE,Study1,S,59,7,Study,User,-,,Study/JOL,"Study Phase",2861,,,-1,-1,,,,1
5ed64879a7771804bd1f974e,50ncubf7hg,Nick_Dissertation_EX1,1,74,2020-06-02T09:04:25-07:00,2.4361538887024,3,versionC_stim.csv,READVersionC.csv,"Read Version C","Dissertation, read only version C",BLAZE,FIRE,Study1,F,45,31,Study,User,-,,Study/JOL,"Study Phase",2012,,,-1,-1,,,,1
5ed64879a7771804bd1f974e,50ncubf7hg,Nick_Dissertation_EX1,1,75,2020-06-02T09:04:28-07:00,2.718446969986,3,versionC_stim.csv,READVersionC.csv,"Read Version C","Dissertation, read only version C",WIND,BLOW,Study1,S,55,70,Study,User,-,,Study/JOL,"Study Phase",2310,,,-1,-1,,,,1
5ed64879a7771804bd1f974e,50ncubf7hg,Nick_Dissertation_EX1,1,76,2020-06-02T09:04:30-07:00,2.067526102066,3,versionC_stim.csv,READVersionC.csv,"Read Version C","Dissertation, read only version C",CHILD,BABY,Study1,S,64,67,Study,User,-,,Study/JOL,"Study Phase",1660,,,-1,-1,,,,1
5ed64879a7771804bd1f974e,50ncubf7hg,Nick_Dissertation_EX1,1,77,2020-06-02T09:04:35-07:00,4.9878568649292,3,versionC_stim.csv,READVersionC.csv,"Read Version C","Dissertation, read only version C",SEIZE,TAKE,Study1,F,29,54,Study,User,-,,Study/JOL,"Study Phase",4591,,,-1,-1,,,,1
5ed64879a7771804bd1f974e,50ncubf7hg,Nick_Dissertation_EX1,1,78,2020-06-02T09:04:40-07:00,4.5860390663147,3,versionC_stim.csv,READVersionC.csv,"Read Version C","Dissertation, read only version C",DESIGN,ARCHITECTURE,Study1,S,51,23,Study,User,-,,Study/JOL,"Study Phase",4157,,,-1,-1,,,,1
5ed64879a7771804bd1f974e,50ncubf7hg,Nick_Dissertation_EX1,1,79,2020-06-02T09:04:43-07:00,2.8909020423889,3,versionC_stim.csv,READVersionC.csv,"Read Version C","Dissertation, read only version C",RACKET,BALL,Study1,F,38,47,Study,User,-,,Study/JOL,"Study Phase",2464,,,-1,-1,,,,1
5ed64879a7771804bd1f974e,50ncubf7hg,Nick_Dissertation_EX1,1,80,2020-06-02T09:04:46-07:00,3.2959358692169,3,versionC_stim.csv,READVersionC.csv,"Read Version C","Dissertation, read only version C",CLUTTER,PUSHER,Study1,U,66,77,Study,User,-,,Study/JOL,"Study Phase",2900,,,-1,-1,,,,1
5ed64879a7771804bd1f974e,50ncubf7hg,Nick_Dissertation_EX1,1,81,2020-06-02T09:04:49-07:00,3.3257870674133,3,versionC_stim.csv,READVersionC.csv,"Read Version C","Dissertation, read only version C",FLOWER,ORCHID,Study1,B,24,35,Study,User,-,,Study/JOL,"Study Phase",2902,,,-1,-1,,,,1
5ed64879a7771804bd1f974e,50ncubf7hg,Nick_Dissertation_EX1,1,82,2020-06-02T09:04:53-07:00,3.6812670230865,3,versionC_stim.csv,READVersionC.csv,"Read Version C","Dissertation, read only version C",COLD,BITTER,Study1,B,12,63,Study,User,-,,Study/JOL,"Study Phase",3252,,,-1,-1,,,,1
5ed64879a7771804bd1f974e,50ncubf7hg,Nick_Dissertation_EX1,1,83,2020-06-02T09:04:56-07:00,3.2114410400391,3,versionC_stim.csv,READVersionC.csv,"Read Version C","Dissertation, read only version C",STOMACH,DIGESTION,Study1,B,7,24,Study,User,-,,Study/JOL,"Study Phase",2743,,,-1,-1,,,,1
5ed64879a7771804bd1f974e,50ncubf7hg,Nick_Dissertation_EX1,1,84,2020-06-02T09:04:59-07:00,2.7229909896851,3,versionC_stim.csv,READVersionC.csv,"Read Version C","Dissertation, read only version C",BAD,DELINQUENT,Study1,B,6,10,Study,User,-,,Study/JOL,"Study Phase",2300,,,-1,-1,,,,1
5ed64879a7771804bd1f974e,50ncubf7hg,Nick_Dissertation_EX1,1,85,2020-06-02T09:05:03-07:00,3.754912853241,3,versionC_stim.csv,READVersionC.csv,"Read Version C","Dissertation, read only version C",RIDDLE,SUGAR,Study1,U,81,41,Study,User,-,,Study/JOL,"Study Phase",3367,,,-1,-1,,,,1
5ed64879a7771804bd1f974e,50ncubf7hg,Nick_Dissertation_EX1,1,86,2020-06-02T09:05:05-07:00,2.0440721511841,3,versionC_stim.csv,READVersionC.csv,"Read Version C","Dissertation, read only version C",FAMINE,HUNGER,Study1,F,40,49,Study,User,-,,Study/JOL,"Study Phase",1635,,,-1,-1,,,,1
5ed64879a7771804bd1f974e,50ncubf7hg,Nick_Dissertation_EX1,1,87,2020-06-02T09:05:08-07:00,2.921550989151,3,versionC_stim.csv,READVersionC.csv,"Read Version C","Dissertation, read only version C",SPACE,MOON,BUFFER2,Buffer,89,89,Study,User,-,,Study/JOL,BUFFER2,2531,,,-1,-1,,,,1
5ed64879a7771804bd1f974e,50ncubf7hg,Nick_Dissertation_EX1,1,88,2020-06-02T09:05:10-07:00,2.5266380310059,3,versionC_stim.csv,READVersionC.csv,"Read Version C","Dissertation, read only version C",POLICE,SHERRIF,BUFFER2,Buffer,87,91,Study,User,-,,Study/JOL,BUFFER2,2118,,,-1,-1,,,,1
5ed64879a7771804bd1f974e,50ncubf7hg,Nick_Dissertation_EX1,1,89,2020-06-02T09:05:14-07:00,3.592973947525,3,versionC_stim.csv,READVersionC.csv,"Read Version C","Dissertation, read only version C",GOOSE,GEESE,BUFFER2,Buffer,86,90,Study,User,-,,Study/JOL,BUFFER2,3193,,,-1,-1,,,,1
5ed64879a7771804bd1f974e,50ncubf7hg,Nick_Dissertation_EX1,1,90,2020-06-02T09:05:16-07:00,2.143315076828,3,versionC_stim.csv,READVersionC.csv,"Read Version C","Dissertation, read only version C",CHOCOLATE,MALT,BUFFER2,Buffer,88,87,Study,User,-,,Study/JOL,BUFFER2,1704,,,-1,-1,,,,1
5ed64879a7771804bd1f974e,50ncubf7hg,Nick_Dissertation_EX1,1,91,2020-06-02T09:05:21-07:00,4.598119020462,3,versionC_stim.csv,READVersionC.csv,"Read Version C","Dissertation, read only version C",STUFF,THING,BUFFER2,Buffer,90,88,Study,User,-,,Study/JOL,BUFFER2,4158,,,-1,-1,,,,1
5ed64879a7771804bd1f974e,50ncubf7hg,Nick_Dissertation_EX1,1,92,2020-06-02T09:05:23-07:00,2.9497208595276,3,versionC_stim.csv,READVersionC.csv,"Read Version C","Dissertation, read only version C",,,,,,0,Instruct,User,-,"You have completed this section. Please press Enter.",Filler_Instruction,Instruct2,2539,,,-1,-1,,,,1
5ed64879a7771804bd1f974e,50ncubf7hg,Nick_Dissertation_EX1,1,93,2020-06-02T09:07:24-07:00,120.53917002678,3,versionC_stim.csv,READVersionC.csv,"Read Version C","Dissertation, read only version C",,,,,,0,FreeRecall,120,120,"Please list the 50 US states in alphabetical order. The task will automatically advance to the next screen after two minutes.",,Filler1,120004,"New York, Florida Washington California Minnesota Texas Boston Chicago Illinois Wyoming Oklahoma Georgia Alaska N ",0,8831,119900,0,0,,1
5ed64879a7771804bd1f974e,50ncubf7hg,Nick_Dissertation_EX1,1,94,2020-06-02T09:07:39-07:00,15.107022047043,3,versionC_stim.csv,READVersionC.csv,"Read Version C","Dissertation, read only version C",,,,,,0,Instruct,-,10,"You will now be presented with the first word from each of the previously studied item pairs. Please type the missing word. If you do not know the word, you may guess or press Enter to skip forward to the next pair.",,Instruct3,14571,,,-1,-1,,,,1
5ed64879a7771804bd1f974e,50ncubf7hg,Nick_Dissertation_EX1,1,95,2020-06-02T09:07:42-07:00,3.2583999633789,3,versionC_stim.csv,READVersionC.csv,"Read Version C","Dissertation, read only version C",CLUTTER,PUSHER,Study1,U,66,77,Test,User,-,,Recall,Recall1,2844,Mess,20,2288,2770,0,0,,1
5ed64879a7771804bd1f974e,50ncubf7hg,Nick_Dissertation_EX1,1,96,2020-06-02T09:07:45-07:00,2.7912950515747,3,versionC_stim.csv,READVersionC.csv,"Read Version C","Dissertation, read only version C",CHILI,HOT,Study1,F,37,81,Test,User,-,,Recall,Recall1,2351,Hot,100,1688,1899,1,1,,1
5ed64879a7771804bd1f974e,50ncubf7hg,Nick_Dissertation_EX1,1,97,2020-06-02T09:07:49-07:00,4.0521290302277,3,versionC_stim.csv,READVersionC.csv,"Read Version C","Dissertation, read only version C",NEWS,EDITOR,Study1,B,10,36,Test,User,-,,Recall,Recall1,3629,Reporter,42.857142857143,1204,3468,0,0,,1
5ed64879a7771804bd1f974e,50ncubf7hg,Nick_Dissertation_EX1,1,98,2020-06-02T09:08:08-07:00,18.669476032257,3,versionC_stim.csv,READVersionC.csv,"Read Version C","Dissertation, read only version C",SITE,LOCATION,Study1,S,48,11,Test,User,-,,Recall,Recall1,18118,"Job ",18.181818181818,17392,17847,0,0,,1
5ed64879a7771804bd1f974e,50ncubf7hg,Nick_Dissertation_EX1,1,99,2020-06-02T09:08:13-07:00,5.538409948349,3,versionC_stim.csv,READVersionC.csv,"Read Version C","Dissertation, read only version C",LIVER,KIDNEY,Study1,S,53,69,Test,User,-,,Recall,Recall1,5094,Kidney,100,3284,4694,1,1,,1
5ed64879a7771804bd1f974e,50ncubf7hg,Nick_Dissertation_EX1,1,100,2020-06-02T09:08:21-07:00,7.9673719406128,3,versionC_stim.csv,READVersionC.csv,"Read Version C","Dissertation, read only version C",SIP,DRINK,Study1,F,27,57,Test,User,-,,Recall,Recall1,7569,Drink,100,6720,7232,1,1,,1
5ed64879a7771804bd1f974e,50ncubf7hg,Nick_Dissertation_EX1,1,101,2020-06-02T09:08:27-07:00,6.088809967041,3,versionC_stim.csv,READVersionC.csv,"Read Version C","Dissertation, read only version C",ACCIDENT,STRONG,Study1,U,80,66,Test,User,-,,Recall,Recall1,5668,Crash,18.181818181818,4847,5395,0,0,,1
5ed64879a7771804bd1f974e,50ncubf7hg,Nick_Dissertation_EX1,1,102,2020-06-02T09:08:31-07:00,3.8645570278168,3,versionC_stim.csv,READVersionC.csv,"Read Version C","Dissertation, read only version C",FLOOR,DISCOVER,Study1,U,71,64,Test,User,-,,Recall,Recall1,3426,"Ceiling ",26.666666666667,2342,3204,0,0,,1
5ed64879a7771804bd1f974e,50ncubf7hg,Nick_Dissertation_EX1,1,103,2020-06-02T09:08:37-07:00,5.6613349914551,3,versionC_stim.csv,READVersionC.csv,"Read Version C","Dissertation, read only version C",AMOUNT,NUMBER,Study1,S,47,27,Test,User,-,,Recall,Recall1,5217,"Money ",36.363636363636,4185,4779,0,0,,0.778
5ed64879a7771804bd1f974e,50ncubf7hg,Nick_Dissertation_EX1,1,104,2020-06-02T09:08:59-07:00,21.752002000809,3,versionC_stim.csv,READVersionC.csv,"Read Version C","Dissertation, read only version C",SACKING,DIETARY,Study1,U,67,45,Test,User,-,,Recall,Recall1,20254,"Dieting ",57.142857142857,18536,19377,0,0,,1
5ed64879a7771804bd1f974e,50ncubf7hg,Nick_Dissertation_EX1,1,105,2020-06-02T09:09:02-07:00,2.8549098968506,3,versionC_stim.csv,READVersionC.csv,"Read Version C","Dissertation, read only version C",TOILET,BATHROOM,Study1,S,58,56,Test,User,-,,Recall,Recall1,2438,Paper,30.769230769231,1794,2301,0,0,,1
5ed64879a7771804bd1f974e,50ncubf7hg,Nick_Dissertation_EX1,1,106,2020-06-02T09:09:06-07:00,4.2175500392914,3,versionC_stim.csv,READVersionC.csv,"Read Version C","Dissertation, read only version C",ROCK,GEOLOGY,Study1,B,19,20,Test,User,-,,Recall,Recall1,2772,Bottom,30.769230769231,1371,2521,0,0,,1
5ed64879a7771804bd1f974e,50ncubf7hg,Nick_Dissertation_EX1,1,107,2020-06-02T09:09:14-07:00,7.8102471828461,3,versionC_stim.csv,READVersionC.csv,"Read Version C","Dissertation, read only version C",WOULD,CASH,Study1,U,83,83,Test,User,-,,Recall,Recall1,7368,Wouldn't,0,2642,7117,0,0,,1
5ed64879a7771804bd1f974e,50ncubf7hg,Nick_Dissertation_EX1,1,108,2020-06-02T09:09:19-07:00,5.1547288894653,3,versionC_stim.csv,READVersionC.csv,"Read Version C","Dissertation, read only version C",VASE,KING,Study1,U,85,13,Test,User,-,,Recall,Recall1,4730,Flower,0,1710,4592,0,0,,1
5ed64879a7771804bd1f974e,50ncubf7hg,Nick_Dissertation_EX1,1,109,2020-06-02T09:09:21-07:00,2.4338369369507,3,versionC_stim.csv,READVersionC.csv,"Read Version C","Dissertation, read only version C",CAVE,DARK,Study1,F,28,37,Test,User,-,,Recall,Recall1,2027,Dark,100,1396,1827,1,1,,1
5ed64879a7771804bd1f974e,50ncubf7hg,Nick_Dissertation_EX1,1,110,2020-06-02T09:09:23-07:00,2.0005571842194,3,versionC_stim.csv,READVersionC.csv,"Read Version C","Dissertation, read only version C",OUT,WAY,Study1,B,16,16,Test,User,-,,Recall,Recall1,1606,Side,0,1159,1425,0,0,,1
5ed64879a7771804bd1f974e,50ncubf7hg,Nick_Dissertation_EX1,1,111,2020-06-02T09:09:26-07:00,2.863865852356,3,versionC_stim.csv,READVersionC.csv,"Read Version C","Dissertation, read only version C",SODA,POP,Study1,S,56,80,Test,User,-,,Recall,Recall1,2428,Can,0,1449,1736,0,0,,1
5ed64879a7771804bd1f974e,50ncubf7hg,Nick_Dissertation_EX1,1,112,2020-06-02T09:09:30-07:00,3.6180329322815,3,versionC_stim.csv,READVersionC.csv,"Read Version C","Dissertation, read only version C",PILOT,PLANE,Study1,F,44,39,Test,User,-,,Recall,Recall1,3195,Plane,100,1422,3033,1,1,,1
5ed64879a7771804bd1f974e,50ncubf7hg,Nick_Dissertation_EX1,1,113,2020-06-02T09:09:34-07:00,4.3610410690308,3,versionC_stim.csv,READVersionC.csv,"Read Version C","Dissertation, read only version C",DOG,PAW,Study1,B,15,29,Test,User,-,,Recall,Recall1,3929,Cat,33.333333333333,3372,3757,0,0,,1
5ed64879a7771804bd1f974e,50ncubf7hg,Nick_Dissertation_EX1,1,114,2020-06-02T09:09:38-07:00,4.0807521343231,3,versionC_stim.csv,READVersionC.csv,"Read Version C","Dissertation, read only version C",SEIZE,TAKE,Study1,F,29,54,Test,User,-,,Recall,Recall1,3644,Take,100,2690,3180,1,1,,1
5ed64879a7771804bd1f974e,50ncubf7hg,Nick_Dissertation_EX1,1,115,2020-06-02T09:09:43-07:00,4.5580089092255,3,versionC_stim.csv,READVersionC.csv,"Read Version C","Dissertation, read only version C",RIDDLE,SUGAR,Study1,U,81,41,Test,User,-,,Recall,Recall1,4125,Poem,0,3568,3887,0,0,,1
5ed64879a7771804bd1f974e,50ncubf7hg,Nick_Dissertation_EX1,1,116,2020-06-02T09:09:47-07:00,4.5127339363098,3,versionC_stim.csv,READVersionC.csv,"Read Version C","Dissertation, read only version C",BELT,SOON,Study1,U,70,68,Test,User,-,,Recall,Recall1,3086,Clasp,22.222222222222,2249,2781,0,0,,1
5ed64879a7771804bd1f974e,50ncubf7hg,Nick_Dissertation_EX1,1,117,2020-06-02T09:09:51-07:00,3.8803629875183,3,versionC_stim.csv,READVersionC.csv,"Read Version C","Dissertation, read only version C",BEE,HONEY,Study1,S,63,42,Test,User,-,,Recall,Recall1,3467,Wasp,0,1418,3251,0,0,,1
5ed64879a7771804bd1f974e,50ncubf7hg,Nick_Dissertation_EX1,1,118,2020-06-02T09:09:56-07:00,4.8004491329193,3,versionC_stim.csv,READVersionC.csv,"Read Version C","Dissertation, read only version C",SICK,HIDE,Study1,U,84,65,Test,User,-,,Recall,Recall1,4371,Health,40,2731,4070,0,0,,1
5ed64879a7771804bd1f974e,50ncubf7hg,Nick_Dissertation_EX1,1,119,2020-06-02T09:09:59-07:00,3.1932518482208,3,versionC_stim.csv,READVersionC.csv,"Read Version C","Dissertation, read only version C",CARD,CREDIT,Study1,B,23,9,Test,User,-,,Recall,Recall1,2745,Credit,100,1747,2519,1,1,,1
5ed64879a7771804bd1f974e,50ncubf7hg,Nick_Dissertation_EX1,1,120,2020-06-02T09:10:02-07:00,2.9311010837555,3,versionC_stim.csv,READVersionC.csv,"Read Version C","Dissertation, read only version C",STING,HORNET,Study1,B,11,85,Test,User,-,,Recall,Recall1,2495,Bee,22.222222222222,2008,2359,0,0,,1
5ed64879a7771804bd1f974e,50ncubf7hg,Nick_Dissertation_EX1,1,121,2020-06-02T09:10:05-07:00,3.3853960037231,3,versionC_stim.csv,READVersionC.csv,"Read Version C","Dissertation, read only version C",ADD,VALLEY,Study1,U,82,17,Test,User,-,,Recall,Recall1,2943,Value,72.727272727273,1547,2740,0,0,,1
5ed64879a7771804bd1f974e,50ncubf7hg,Nick_Dissertation_EX1,1,122,2020-06-02T09:10:12-07:00,6.6913349628448,3,versionC_stim.csv,READVersionC.csv,"Read Version C","Dissertation, read only version C",FAMINE,HUNGER,Study1,F,40,49,Test,User,-,,Recall,Recall1,6270,Full,20,1567,6100,0,0,,1
5ed64879a7771804bd1f974e,50ncubf7hg,Nick_Dissertation_EX1,1,123,2020-06-02T09:10:20-07:00,7.6660671234131,3,versionC_stim.csv,READVersionC.csv,"Read Version C","Dissertation, read only version C",TALK,DISCUSSION,Study1,B,21,73,Test,User,-,,Recall,Recall1,7246,Listen,37.5,3200,7003,0,0,,1
5ed64879a7771804bd1f974e,50ncubf7hg,Nick_Dissertation_EX1,1,124,2020-06-02T09:10:23-07:00,3.1068508625031,3,versionC_stim.csv,READVersionC.csv,"Read Version C","Dissertation, read only version C",BAD,DELINQUENT,Study1,B,6,10,Test,User,-,,Recall,Recall1,2664,Good,14.285714285714,1297,2549,0,0,,1
5ed64879a7771804bd1f974e,50ncubf7hg,Nick_Dissertation_EX1,1,125,2020-06-02T09:10:31-07:00,7.9745631217957,3,versionC_stim.csv,READVersionC.csv,"Read Version C","Dissertation, read only version C",BIRD,SWAN,Study1,B,14,8,Test,User,-,,Recall,Recall1,7531,Feathers,16.666666666667,6327,7396,0,0,,1
5ed64879a7771804bd1f974e,50ncubf7hg,Nick_Dissertation_EX1,1,126,2020-06-02T09:10:36-07:00,5.0083959102631,3,versionC_stim.csv,READVersionC.csv,"Read Version C","Dissertation, read only version C",HUNGRY,PARK,Study1,U,68,34,Test,User,-,,Recall,Recall1,3597,Full,0,2697,3409,0,0,,1
5ed64879a7771804bd1f974e,50ncubf7hg,Nick_Dissertation_EX1,1,127,2020-06-02T09:10:41-07:00,4.6779339313507,3,versionC_stim.csv,READVersionC.csv,"Read Version C","Dissertation, read only version C",MONEY,WAGE,Study1,B,8,33,Test,User,-,,Recall,Recall1,4234,Bank,25,3368,3866,0,0,,1
5ed64879a7771804bd1f974e,50ncubf7hg,Nick_Dissertation_EX1,1,128,2020-06-02T09:10:44-07:00,3.5946891307831,3,versionC_stim.csv,READVersionC.csv,"Read Version C","Dissertation, read only version C",SIGHT,DEBATE,Study1,U,73,59,Test,User,-,,Recall,Recall1,3159,Eyes,40,2210,2803,0,0,,1
5ed64879a7771804bd1f974e,50ncubf7hg,Nick_Dissertation_EX1,1,129,2020-06-02T09:10:53-07:00,8.9708249568939,3,versionC_stim.csv,READVersionC.csv,"Read Version C","Dissertation, read only version C",LATCH,KEY,Study1,F,36,28,Test,User,-,,Recall,Recall1,8533,Door,0,5394,8385,0,0,,1
5ed64879a7771804bd1f974e,50ncubf7hg,Nick_Dissertation_EX1,1,130,2020-06-02T09:11:00-07:00,6.7406311035156,3,versionC_stim.csv,READVersionC.csv,"Read Version C","Dissertation, read only version C",COW,HERD,Study1,B,22,78,Test,User,-,,Recall,Recall1,6318,milk,0,5488,6062,0,0,,1
5ed64879a7771804bd1f974e,50ncubf7hg,Nick_Dissertation_EX1,1,131,2020-06-02T09:11:03-07:00,2.76615691185,3,versionC_stim.csv,READVersionC.csv,"Read Version C","Dissertation, read only version C",DIVISION,MATH,Study1,F,33,40,Test,User,-,,Recall,Recall1,2335,Maths,88.888888888889,1648,2226,0,1,,1
5ed64879a7771804bd1f974e,50ncubf7hg,Nick_Dissertation_EX1,1,132,2020-06-02T09:11:05-07:00,2.3267469406128,3,versionC_stim.csv,READVersionC.csv,"Read Version C","Dissertation, read only version C",WASTE,DUMP,Study1,S,49,61,Test,User,-,,Recall,Recall1,1891,bin,0,1130,1448,0,0,,1
5ed64879a7771804bd1f974e,50ncubf7hg,Nick_Dissertation_EX1,1,133,2020-06-02T09:11:07-07:00,2.1197800636292,3,versionC_stim.csv,READVersionC.csv,"Read Version C","Dissertation, read only version C",FANTASTIC,GREAT,Study1,F,35,51,Test,User,-,,Recall,Recall1,1711,good,22.222222222222,1225,1556,0,0,,1
5ed64879a7771804bd1f974e,50ncubf7hg,Nick_Dissertation_EX1,1,134,2020-06-02T09:11:10-07:00,3.0009949207306,3,versionC_stim.csv,READVersionC.csv,"Read Version C","Dissertation, read only version C",FUTURE,PAST,Study1,S,61,72,Test,User,-,,Recall,Recall1,2580,past,100,1857,2251,1,1,,1
5ed64879a7771804bd1f974e,50ncubf7hg,Nick_Dissertation_EX1,1,135,2020-06-02T09:11:27-07:00,17.072098016739,3,versionC_stim.csv,READVersionC.csv,"Read Version C","Dissertation, read only version C",CHORE,WORK,Study1,F,39,12,Test,User,-,,Recall,Recall1,16496,homework,66.666666666667,14778,16178,0,0,,1
5ed64879a7771804bd1f974e,50ncubf7hg,Nick_Dissertation_EX1,1,136,2020-06-02T09:11:30-07:00,2.8243849277496,3,versionC_stim.csv,READVersionC.csv,"Read Version C","Dissertation, read only version C",COLD,BITTER,Study1,B,12,63,Test,User,-,,Recall,Recall1,2210,hot,22.222222222222,1389,1839,0,0,,1
5ed64879a7771804bd1f974e,50ncubf7hg,Nick_Dissertation_EX1,1,137,2020-06-02T09:11:34-07:00,4.2682290077209,3,versionC_stim.csv,READVersionC.csv,"Read Version C","Dissertation, read only version C",END,BEGIN,Study1,S,54,26,Test,User,-,,Recall,Recall1,2730,start,0,1433,2123,0,0,,1
5ed64879a7771804bd1f974e,50ncubf7hg,Nick_Dissertation_EX1,1,138,2020-06-02T09:11:40-07:00,5.5843122005463,3,versionC_stim.csv,READVersionC.csv,"Read Version C","Dissertation, read only version C",SALAD,LETTUCE,Study1,S,59,7,Test,User,-,,Recall,Recall1,5017,Bread,16.666666666667,4271,4826,0,0,,1
5ed64879a7771804bd1f974e,50ncubf7hg,Nick_Dissertation_EX1,1,139,2020-06-02T09:11:47-07:00,6.8607959747314,3,versionC_stim.csv,READVersionC.csv,"Read Version C","Dissertation, read only version C",STOMACH,DIGESTION,Study1,B,7,24,Test,User,-,,Recall,Recall1,6367,gut,33.333333333333,5942,6189,0,0,,1
5ed64879a7771804bd1f974e,50ncubf7hg,Nick_Dissertation_EX1,1,140,2020-06-02T09:11:53-07:00,6.1439008712769,3,versionC_stim.csv,READVersionC.csv,"Read Version C","Dissertation, read only version C",BLAZE,FIRE,Study1,F,45,31,Test,User,-,,Recall,Recall1,5756,hot,0,3754,5596,0,0,,1
5ed64879a7771804bd1f974e,50ncubf7hg,Nick_Dissertation_EX1,1,141,2020-06-02T09:11:58-07:00,5.0110590457916,3,versionC_stim.csv,READVersionC.csv,"Read Version C","Dissertation, read only version C",JURY,TRIAL,Study1,S,50,14,Test,User,-,,Recall,Recall1,4573,judge,0,2137,4459,0,0,,1
5ed64879a7771804bd1f974e,50ncubf7hg,Nick_Dissertation_EX1,1,142,2020-06-02T09:12:03-07:00,4.9493339061737,3,versionC_stim.csv,READVersionC.csv,"Read Version C","Dissertation, read only version C",CHEESE,WINE,Study1,S,57,79,Test,User,-,,Recall,Recall1,4510,milk,25,3781,4288,0,0,,1
5ed64879a7771804bd1f974e,50ncubf7hg,Nick_Dissertation_EX1,1,143,2020-06-02T09:12:09-07:00,5.9317719936371,3,versionC_stim.csv,READVersionC.csv,"Read Version C","Dissertation, read only version C",HAMMER,CHISEL,Study1,B,9,38,Test,User,-,,Recall,Recall1,5469,,0,-1,-1,0,0,,1
5ed64879a7771804bd1f974e,50ncubf7hg,Nick_Dissertation_EX1,1,144,2020-06-02T09:12:12-07:00,2.8475041389465,3,versionC_stim.csv,READVersionC.csv,"Read Version C","Dissertation, read only version C",FLOWER,ORCHID,Study1,B,24,35,Test,User,-,,Recall,Recall1,2440,petal,0,1302,2212,0,0,,1
5ed64879a7771804bd1f974e,50ncubf7hg,Nick_Dissertation_EX1,1,145,2020-06-02T09:12:16-07:00,4.1883850097656,3,versionC_stim.csv,READVersionC.csv,"Read Version C","Dissertation, read only version C",ROUND,CIRCLE,Study1,S,65,84,Test,User,-,,Recall,Recall1,3742,square,33.333333333333,2438,3526,0,0,,1
5ed64879a7771804bd1f974e,50ncubf7hg,Nick_Dissertation_EX1,1,146,2020-06-02T09:12:19-07:00,2.8186280727386,3,versionC_stim.csv,READVersionC.csv,"Read Version C","Dissertation, read only version C",WATER,BRIDGE,Study1,B,18,82,Test,User,-,,Recall,Recall1,2376,wine,40,1946,2227,0,0,,1
5ed64879a7771804bd1f974e,50ncubf7hg,Nick_Dissertation_EX1,1,147,2020-06-02T09:12:21-07:00,2.5335519313812,3,versionC_stim.csv,READVersionC.csv,"Read Version C","Dissertation, read only version C",RACKET,BALL,Study1,F,38,47,Test,User,-,,Recall,Recall1,2098,all,85.714285714286,1658,1861,0,1,,1
5ed64879a7771804bd1f974e,50ncubf7hg,Nick_Dissertation_EX1,1,148,2020-06-02T09:12:30-07:00,8.6780869960785,3,versionC_stim.csv,READVersionC.csv,"Read Version C","Dissertation, read only version C",CAR,HAPPY,Study1,U,77,55,Test,User,-,,Recall,Recall1,8244,wheel,20,6704,8030,0,0,,1
5ed64879a7771804bd1f974e,50ncubf7hg,Nick_Dissertation_EX1,1,149,2020-06-02T09:12:33-07:00,3.6239929199219,3,versionC_stim.csv,READVersionC.csv,"Read Version C","Dissertation, read only version C",DROWSY,SLEEP,Study1,F,41,43,Test,User,-,,Recall,Recall1,3170,awake,20,2367,2875,0,0,,1
5ed64879a7771804bd1f974e,50ncubf7hg,Nick_Dissertation_EX1,1,150,2020-06-02T09:12:44-07:00,10.689399957657,3,versionC_stim.csv,READVersionC.csv,"Read Version C","Dissertation, read only version C",BRONZE,ARTERY,Study1,U,74,30,Test,User,-,,Recall,Recall1,10180,artery,100,5933,9646,1,1,,1
5ed64879a7771804bd1f974e,50ncubf7hg,Nick_Dissertation_EX1,1,151,2020-06-02T09:12:47-07:00,2.6381661891937,3,versionC_stim.csv,READVersionC.csv,"Read Version C","Dissertation, read only version C",CLEAN,HYGIENE,Study1,B,17,18,Test,User,-,,Recall,Recall1,2220,dirty,16.666666666667,1389,1949,0,0,,1
5ed64879a7771804bd1f974e,50ncubf7hg,Nick_Dissertation_EX1,1,152,2020-06-02T09:12:51-07:00,3.8511338233948,3,versionC_stim.csv,READVersionC.csv,"Read Version C","Dissertation, read only version C",TUCK,ALLOW,Study1,U,78,21,Test,User,-,,Recall,Recall1,3401,tidy,0,2649,3233,0,0,,1
5ed64879a7771804bd1f974e,50ncubf7hg,Nick_Dissertation_EX1,1,153,2020-06-02T09:12:52-07:00,1.8384990692139,3,versionC_stim.csv,READVersionC.csv,"Read Version C","Dissertation, read only version C",WASP,BUG,Study1,F,32,46,Test,User,-,,Recall,Recall1,1402,bee,33.333333333333,1016,1300,0,0,,1
5ed64879a7771804bd1f974e,50ncubf7hg,Nick_Dissertation_EX1,1,154,2020-06-02T09:12:54-07:00,1.8886959552765,3,versionC_stim.csv,READVersionC.csv,"Read Version C","Dissertation, read only version C",WOMAN,LIFT,Study1,U,69,32,Test,User,-,,Recall,Recall1,1466,man,0,1045,1206,0,0,,1
5ed64879a7771804bd1f974e,50ncubf7hg,Nick_Dissertation_EX1,1,155,2020-06-02T09:12:59-07:00,4.6692800521851,3,versionC_stim.csv,READVersionC.csv,"Read Version C","Dissertation, read only version C",ATTIRE,CLOTHES,Study1,F,43,25,Test,User,-,,Recall,Recall1,4203,clothes,100,1285,2082,1,1,,1
5ed64879a7771804bd1f974e,50ncubf7hg,Nick_Dissertation_EX1,1,156,2020-06-02T09:13:05-07:00,5.5288739204407,3,versionC_stim.csv,READVersionC.csv,"Read Version C","Dissertation, read only version C",STENCH,SMELL,Study1,F,42,60,Test,User,-,,Recall,Recall1,5092,smell,100,2503,4940,1,1,,1
5ed64879a7771804bd1f974e,50ncubf7hg,Nick_Dissertation_EX1,1,157,2020-06-02T09:13:10-07:00,5.2125570774078,3,versionC_stim.csv,READVersionC.csv,"Read Version C","Dissertation, read only version C",ATTORNEY,LAW,Study1,F,34,22,Test,User,-,,Recall,Recall1,4778,privelage,33.333333333333,2901,4639,0,0,,1
5ed64879a7771804bd1f974e,50ncubf7hg,Nick_Dissertation_EX1,1,158,2020-06-02T09:13:15-07:00,5.3998310565948,3,versionC_stim.csv,READVersionC.csv,"Read Version C","Dissertation, read only version C",ENOUGH,FULL,Study1,F,26,44,Test,User,-,,Recall,Recall1,4976,finished,16.666666666667,3952,4747,0,0,,1
5ed64879a7771804bd1f974e,50ncubf7hg,Nick_Dissertation_EX1,1,159,2020-06-02T09:13:21-07:00,5.9698760509491,3,versionC_stim.csv,READVersionC.csv,"Read Version C","Dissertation, read only version C",DESIGN,ARCHITECTURE,Study1,S,51,23,Test,User,-,,Recall,Recall1,5533,wear,25,4880,5395,0,0,,1
5ed64879a7771804bd1f974e,50ncubf7hg,Nick_Dissertation_EX1,1,160,2020-06-02T09:13:32-07:00,10.834617853165,3,versionC_stim.csv,READVersionC.csv,"Read Version C","Dissertation, read only version C",GROWTH,HEIGHT,Study1,F,30,50,Test,User,-,,Recall,Recall1,10332,small,0,4574,10089,0,0,,1
5ed64879a7771804bd1f974e,50ncubf7hg,Nick_Dissertation_EX1,1,161,2020-06-02T09:13:34-07:00,2.3284740447998,3,versionC_stim.csv,READVersionC.csv,"Read Version C","Dissertation, read only version C",FOOT,SHOE,Study1,S,60,58,Test,User,-,,Recall,Recall1,1902,wear,25,1201,1712,0,0,,1
5ed64879a7771804bd1f974e,50ncubf7hg,Nick_Dissertation_EX1,1,162,2020-06-02T09:13:39-07:00,4.6525509357452,3,versionC_stim.csv,READVersionC.csv,"Read Version C","Dissertation, read only version C",ASSIGNMENT,DUE,Study1,S,46,86,Test,User,-,,Recall,Recall1,4119,school,0,3007,3902,0,0,,1
5ed64879a7771804bd1f974e,50ncubf7hg,Nick_Dissertation_EX1,1,163,2020-06-02T09:13:41-07:00,2.5043530464172,3,versionC_stim.csv,READVersionC.csv,"Read Version C","Dissertation, read only version C",WAR,REVOLUTION,Study1,B,20,62,Test,User,-,,Recall,Recall1,2083,peace,13.333333333333,1370,1889,0,0,,1
5ed64879a7771804bd1f974e,50ncubf7hg,Nick_Dissertation_EX1,1,164,2020-06-02T09:13:44-07:00,3.049968957901,3,versionC_stim.csv,READVersionC.csv,"Read Version C","Dissertation, read only version C",BAR,GRILL,Study1,S,52,19,Test,User,-,,Recall,Recall1,2633,drink,40,1459,2012,0,0,,1
5ed64879a7771804bd1f974e,50ncubf7hg,Nick_Dissertation_EX1,1,165,2020-06-02T09:13:54-07:00,9.6299200057983,3,versionC_stim.csv,READVersionC.csv,"Read Version C","Dissertation, read only version C",BUSINESS,DEATH,Study1,U,72,48,Test,User,-,,Recall,Recall1,9216,school,18.181818181818,6827,8205,0,0,,1
5ed64879a7771804bd1f974e,50ncubf7hg,Nick_Dissertation_EX1,1,166,2020-06-02T09:13:58-07:00,3.9574329853058,3,versionC_stim.csv,READVersionC.csv,"Read Version C","Dissertation, read only version C",WORD,SENTENCE,Study1,F,31,15,Test,User,-,,Recall,Recall1,3502,letter,42.857142857143,2622,3410,0,0,,1
5ed64879a7771804bd1f974e,50ncubf7hg,Nick_Dissertation_EX1,1,167,2020-06-02T09:14:01-07:00,3.1891560554504,3,versionC_stim.csv,READVersionC.csv,"Read Version C","Dissertation, read only version C",WIND,BLOW,Study1,S,55,70,Test,User,-,,Recall,Recall1,2777,"sun ",0,1905,2224,0,0,,1
5ed64879a7771804bd1f974e,50ncubf7hg,Nick_Dissertation_EX1,1,168,2020-06-02T09:14:06-07:00,5.1715528964996,3,versionC_stim.csv,READVersionC.csv,"Read Version C","Dissertation, read only version C",LION,ART,Study1,U,79,75,Test,User,-,,Recall,Recall1,4717,"cub ",0,3735,4459,0,0,,1
5ed64879a7771804bd1f974e,50ncubf7hg,Nick_Dissertation_EX1,1,169,2020-06-02T09:14:10-07:00,3.9863271713257,3,versionC_stim.csv,READVersionC.csv,"Read Version C","Dissertation, read only version C",HAND,FIX,Study1,U,75,71,Test,User,-,,Recall,Recall1,2576,finger,44.444444444444,1674,2228,0,0,,1
5ed64879a7771804bd1f974e,50ncubf7hg,Nick_Dissertation_EX1,1,170,2020-06-02T09:14:15-07:00,4.3229508399963,3,versionC_stim.csv,READVersionC.csv,"Read Version C","Dissertation, read only version C",PLANT,ROOT,Study1,B,13,53,Test,User,-,,Recall,Recall1,3900,flower,20,1361,3835,0,0,,1
5ed64879a7771804bd1f974e,50ncubf7hg,Nick_Dissertation_EX1,1,171,2020-06-02T09:14:20-07:00,4.9663071632385,3,versionC_stim.csv,READVersionC.csv,"Read Version C","Dissertation, read only version C",FISH,TUNA,Study1,B,25,74,Test,User,-,,Recall,Recall1,4544,water,22.222222222222,3697,4406,0,0,,1
5ed64879a7771804bd1f974e,50ncubf7hg,Nick_Dissertation_EX1,1,172,2020-06-02T09:14:26-07:00,5.8606169223785,3,versionC_stim.csv,READVersionC.csv,"Read Version C","Dissertation, read only version C",POSITION,MACHINE,Study1,U,76,52,Test,User,-,,Recall,Recall1,5410,hierarchy,37.5,3484,5109,0,0,,1
5ed64879a7771804bd1f974e,50ncubf7hg,Nick_Dissertation_EX1,1,173,2020-06-02T09:14:29-07:00,3.1380090713501,3,versionC_stim.csv,READVersionC.csv,"Read Version C","Dissertation, read only version C",DEFINITION,MEANING,Study1,S,62,76,Test,User,-,,Recall,Recall1,2708,words,0,1926,2598,0,0,,1
5ed64879a7771804bd1f974e,50ncubf7hg,Nick_Dissertation_EX1,1,174,2020-06-02T09:14:32-07:00,3.6680488586426,3,versionC_stim.csv,READVersionC.csv,"Read Version C","Dissertation, read only version C",CHILD,BABY,Study1,S,64,67,Test,User,-,,Recall,Recall1,3227,adult,22.222222222222,1979,3071,0,0,,1
5ed64879a7771804bd1f974e,50ncubf7hg,Nick_Dissertation_EX1,1,175,2020-06-02T09:14:54-07:00,22.007104158401,3,versionC_stim.csv,READVersionC.csv,"Read Version C","Dissertation, read only version C",,,,,,0,Instruct,-,10,"You will now be presented with a new set of word pairs. Please study each pair. Remember that your memory will be tested! When finished, press Enter to move to the next pair.",Initial_Instruct,Instruct4,21464,,,-1,-1,,,,0.833
5ed64879a7771804bd1f974e,50ncubf7hg,Nick_Dissertation_EX1,1,176,2020-06-02T09:15:04-07:00,9.7925519943237,3,versionC_stim.csv,READVersionC.csv,"Read Version C","Dissertation, read only version C",POTATO,CARROT,BUFFER3,Buffer,91,93,Study,User,-,,Study/JOL,BUFFER3,8184,,,-1,-1,,,,1
5ed64879a7771804bd1f974e,50ncubf7hg,Nick_Dissertation_EX1,1,177,2020-06-02T09:15:15-07:00,10.770294904709,3,versionC_stim.csv,READVersionC.csv,"Read Version C","Dissertation, read only version C",STRING,NOODLE,BUFFER3,Buffer,92,95,Study,User,-,,Study/JOL,BUFFER3,10257,,,-1,-1,,,,1
5ed64879a7771804bd1f974e,50ncubf7hg,Nick_Dissertation_EX1,1,178,2020-06-02T09:15:16-07:00,1.5742919445038,3,versionC_stim.csv,READVersionC.csv,"Read Version C","Dissertation, read only version C",ADVENTURE,CAMP,BUFFER3,Buffer,95,96,Study,User,-,,Study/JOL,BUFFER3,1148,,,-1,-1,,,,1
5ed64879a7771804bd1f974e,50ncubf7hg,Nick_Dissertation_EX1,1,179,2020-06-02T09:15:23-07:00,6.3154351711273,3,versionC_stim.csv,READVersionC.csv,"Read Version C","Dissertation, read only version C",FISH,SHRIMP,BUFFER3,Buffer,93,94,Study,User,-,,Study/JOL,BUFFER3,5912,,,-1,-1,,,,1
5ed64879a7771804bd1f974e,50ncubf7hg,Nick_Dissertation_EX1,1,180,2020-06-02T09:15:24-07:00,1.3481550216675,3,versionC_stim.csv,READVersionC.csv,"Read Version C","Dissertation, read only version C",FROZEN,ICE,BUFFER3,Buffer,94,92,Study,User,-,,Study/JOL,BUFFER3,905,,,-1,-1,,,,1
5ed64879a7771804bd1f974e,50ncubf7hg,Nick_Dissertation_EX1,1,181,2020-06-02T09:15:30-07:00,5.8093168735504,3,versionC_stim.csv,READVersionC.csv,"Read Version C","Dissertation, read only version C",TOIL,LEASE,Study2,U,170,109,Study,User,-,,Study/JOL,"Study Phase2",5363,,,-1,-1,,,,1
5ed64879a7771804bd1f974e,50ncubf7hg,Nick_Dissertation_EX1,1,182,2020-06-02T09:15:31-07:00,0.80120301246643,3,versionC_stim.csv,READVersionC.csv,"Read Version C","Dissertation, read only version C",PLANT,CACTUS,Study2,B,98,145,Study,User,-,,Study/JOL,"Study Phase2",378,,,-1,-1,,,,1
5ed64879a7771804bd1f974e,50ncubf7hg,Nick_Dissertation_EX1,1,183,2020-06-02T09:15:33-07:00,2.1821129322052,3,versionC_stim.csv,READVersionC.csv,"Read Version C","Dissertation, read only version C",JAR,MASON,Study2,S,138,148,Study,User,-,,Study/JOL,"Study Phase2",1757,,,-1,-1,,,,1
5ed64879a7771804bd1f974e,50ncubf7hg,Nick_Dissertation_EX1,1,184,2020-06-02T09:15:43-07:00,9.9865260124207,3,versionC_stim.csv,READVersionC.csv,"Read Version C","Dissertation, read only version C",SCAR,MAIN,Study2,U,175,127,Study,User,-,,Study/JOL,"Study Phase2",9448,,,-1,-1,,,,1
5ed64879a7771804bd1f974e,50ncubf7hg,Nick_Dissertation_EX1,1,185,2020-06-02T09:15:45-07:00,1.6268589496613,3,versionC_stim.csv,READVersionC.csv,"Read Version C","Dissertation, read only version C",END,ADJOURN,Study2,B,101,159,Study,User,-,,Study/JOL,"Study Phase2",1192,,,-1,-1,,,,1
5ed64879a7771804bd1f974e,50ncubf7hg,Nick_Dissertation_EX1,1,186,2020-06-02T09:15:49-07:00,4.6573781967163,3,versionC_stim.csv,READVersionC.csv,"Read Version C","Dissertation, read only version C",RED,CHERRY,Study2,B,104,122,Study,User,-,,Study/JOL,"Study Phase2",4230,,,-1,-1,,,,1
5ed64879a7771804bd1f974e,50ncubf7hg,Nick_Dissertation_EX1,1,187,2020-06-02T09:15:50-07:00,0.95961284637451,3,versionC_stim.csv,READVersionC.csv,"Read Version C","Dissertation, read only version C",LOVE,AFFECTION,Study2,B,115,125,Study,User,-,,Study/JOL,"Study Phase2",521,,,-1,-1,,,,1
5ed64879a7771804bd1f974e,50ncubf7hg,Nick_Dissertation_EX1,1,188,2020-06-02T09:15:52-07:00,1.3523941040039,3,versionC_stim.csv,READVersionC.csv,"Read Version C","Dissertation, read only version C",COFFIN,DEAD,Study2,F,128,101,Study,User,-,,Study/JOL,"Study Phase2",918,,,-1,-1,,,,1
5ed64879a7771804bd1f974e,50ncubf7hg,Nick_Dissertation_EX1,1,189,2020-06-02T09:16:00-07:00,8.1178710460663,3,versionC_stim.csv,READVersionC.csv,"Read Version C","Dissertation, read only version C",CARBON,ELEMENT,Study2,S,141,163,Study,User,-,,Study/JOL,"Study Phase2",7569,,,-1,-1,,,,1
5ed64879a7771804bd1f974e,50ncubf7hg,Nick_Dissertation_EX1,1,190,2020-06-02T09:16:03-07:00,3.2596118450165,3,versionC_stim.csv,READVersionC.csv,"Read Version C","Dissertation, read only version C",TICK,FLEA,Study2,S,151,111,Study,User,-,,Study/JOL,"Study Phase2",2816,,,-1,-1,,,,1
5ed64879a7771804bd1f974e,50ncubf7hg,Nick_Dissertation_EX1,1,191,2020-06-02T09:16:05-07:00,1.6810190677643,3,versionC_stim.csv,READVersionC.csv,"Read Version C","Dissertation, read only version C",AWAY,GONE,Study2,S,142,102,Study,User,-,,Study/JOL,"Study Phase2",1196,,,-1,-1,,,,1
5ed64879a7771804bd1f974e,50ncubf7hg,Nick_Dissertation_EX1,1,192,2020-06-02T09:16:06-07:00,1.8323080539703,3,versionC_stim.csv,READVersionC.csv,"Read Version C","Dissertation, read only version C",PENGUIN,BIRD,Study2,F,119,168,Study,User,-,,Study/JOL,"Study Phase2",1391,,,-1,-1,,,,1
5ed64879a7771804bd1f974e,50ncubf7hg,Nick_Dissertation_EX1,1,193,2020-06-02T09:16:08-07:00,1.8988718986511,3,versionC_stim.csv,READVersionC.csv,"Read Version C","Dissertation, read only version C",FAVORITE,BEST,Study2,F,125,132,Study,User,-,,Study/JOL,"Study Phase2",1468,,,-1,-1,,,,1
5ed64879a7771804bd1f974e,50ncubf7hg,Nick_Dissertation_EX1,1,194,2020-06-02T09:16:10-07:00,1.8962540626526,3,versionC_stim.csv,READVersionC.csv,"Read Version C","Dissertation, read only version C",WET,DRY,Study2,S,146,149,Study,User,-,,Study/JOL,"Study Phase2",1445,,,-1,-1,,,,1
5ed64879a7771804bd1f974e,50ncubf7hg,Nick_Dissertation_EX1,1,195,2020-06-02T09:16:15-07:00,4.8825340270996,3,versionC_stim.csv,READVersionC.csv,"Read Version C","Dissertation, read only version C",FLIP,TURN,Study2,F,116,120,Study,User,-,,Study/JOL,"Study Phase2",4335,,,-1,-1,,,,1
5ed64879a7771804bd1f974e,50ncubf7hg,Nick_Dissertation_EX1,1,196,2020-06-02T09:16:18-07:00,2.6438119411469,3,versionC_stim.csv,READVersionC.csv,"Read Version C","Dissertation, read only version C",GAME,CLUE,Study2,B,97,134,Study,User,-,,Study/JOL,"Study Phase2",2224,,,-1,-1,,,,1
5ed64879a7771804bd1f974e,50ncubf7hg,Nick_Dissertation_EX1,1,197,2020-06-02T09:16:21-07:00,3.3133010864258,3,versionC_stim.csv,READVersionC.csv,"Read Version C","Dissertation, read only version C",BALLOON,POP,Study2,F,123,106,Study,User,-,,Study/JOL,"Study Phase2",1855,,,-1,-1,,,,1
5ed64879a7771804bd1f974e,50ncubf7hg,Nick_Dissertation_EX1,1,198,2020-06-02T09:16:34-07:00,13.058193922043,3,versionC_stim.csv,READVersionC.csv,"Read Version C","Dissertation, read only version C",ELECTION,MAZE,Study2,U,159,133,Study,User,-,,Study/JOL,"Study Phase2",11480,,,-1,-1,,,,1
5ed64879a7771804bd1f974e,50ncubf7hg,Nick_Dissertation_EX1,1,199,2020-06-02T09:16:37-07:00,3.2126479148865,3,versionC_stim.csv,READVersionC.csv,"Read Version C","Dissertation, read only version C",OUNCE,BOTH,Study2,U,172,144,Study,User,-,,Study/JOL,"Study Phase2",2705,,,-1,-1,,,,1
5ed64879a7771804bd1f974e,50ncubf7hg,Nick_Dissertation_EX1,1,200,2020-06-02T09:16:40-07:00,2.853324174881,3,versionC_stim.csv,READVersionC.csv,"Read Version C","Dissertation, read only version C",TIE,SHOELACE,Study2,B,99,99,Study,User,-,,Study/JOL,"Study Phase2",2439,,,-1,-1,,,,1
5ed64879a7771804bd1f974e,50ncubf7hg,Nick_Dissertation_EX1,1,201,2020-06-02T09:16:44-07:00,3.3983750343323,3,versionC_stim.csv,READVersionC.csv,"Read Version C","Dissertation, read only version C",THIMBLE,THREAD,Study2,F,121,171,Study,User,-,,Study/JOL,"Study Phase2",2981,,,-1,-1,,,,1
5ed64879a7771804bd1f974e,50ncubf7hg,Nick_Dissertation_EX1,1,202,2020-06-02T09:16:46-07:00,2.8858268260956,3,versionC_stim.csv,READVersionC.csv,"Read Version C","Dissertation, read only version C",BRAWL,FIGHT,Study2,F,135,174,Study,User,-,,Study/JOL,"Study Phase2",1454,,,-1,-1,,,,1
5ed64879a7771804bd1f974e,50ncubf7hg,Nick_Dissertation_EX1,1,203,2020-06-02T09:16:50-07:00,3.0458250045776,3,versionC_stim.csv,READVersionC.csv,"Read Version C","Dissertation, read only version C",COMMUNICATION,PHONE,Study2,S,149,161,Study,User,-,,Study/JOL,"Study Phase2",1639,,,-1,-1,,,,1
5ed64879a7771804bd1f974e,50ncubf7hg,Nick_Dissertation_EX1,1,204,2020-06-02T09:16:51-07:00,1.8644080162048,3,versionC_stim.csv,READVersionC.csv,"Read Version C","Dissertation, read only version C",EAT,DINE,Study2,B,111,100,Study,User,-,,Study/JOL,"Study Phase2",1411,,,-1,-1,,,,1
5ed64879a7771804bd1f974e,50ncubf7hg,Nick_Dissertation_EX1,1,205,2020-06-02T09:16:53-07:00,2.1165869235992,3,versionC_stim.csv,READVersionC.csv,"Read Version C","Dissertation, read only version C",DONKEY,MULE,Study2,B,108,167,Study,User,-,,Study/JOL,"Study Phase2",1728,,,-1,-1,,,,1
5ed64879a7771804bd1f974e,50ncubf7hg,Nick_Dissertation_EX1,1,206,2020-06-02T09:17:00-07:00,6.8724541664124,3,versionC_stim.csv,READVersionC.csv,"Read Version C","Dissertation, read only version C",SIGN,LOAN,Study2,U,171,172,Study,User,-,,Study/JOL,"Study Phase2",6383,,,-1,-1,,,,1
5ed64879a7771804bd1f974e,50ncubf7hg,Nick_Dissertation_EX1,1,207,2020-06-02T09:17:04-07:00,3.3037240505219,3,versionC_stim.csv,READVersionC.csv,"Read Version C","Dissertation, read only version C",REVENGE,EVEN,Study2,F,122,158,Study,User,-,,Study/JOL,"Study Phase2",2921,,,-1,-1,,,,1
5ed64879a7771804bd1f974e,50ncubf7hg,Nick_Dissertation_EX1,1,208,2020-06-02T09:17:09-07:00,5.0324478149414,3,versionC_stim.csv,READVersionC.csv,"Read Version C","Dissertation, read only version C",MAROON,JUSTICE,Study2,U,156,165,Study,User,-,,Study/JOL,"Study Phase2",4620,,,-1,-1,,,,1
5ed64879a7771804bd1f974e,50ncubf7hg,Nick_Dissertation_EX1,1,209,2020-06-02T09:17:12-07:00,2.9011840820312,3,versionC_stim.csv,READVersionC.csv,"Read Version C","Dissertation, read only version C",NAP,SLEEP,Study2,F,134,116,Study,User,-,,Study/JOL,"Study Phase2",2462,,,-1,-1,,,,1
5ed64879a7771804bd1f974e,50ncubf7hg,Nick_Dissertation_EX1,1,210,2020-06-02T09:17:13-07:00,1.8101758956909,3,versionC_stim.csv,READVersionC.csv,"Read Version C","Dissertation, read only version C",STRAWBERRY,FRUIT,Study2,F,124,115,Study,User,-,,Study/JOL,"Study Phase2",1391,,,-1,-1,,,,1
5ed64879a7771804bd1f974e,50ncubf7hg,Nick_Dissertation_EX1,1,211,2020-06-02T09:17:16-07:00,3.0545170307159,3,versionC_stim.csv,READVersionC.csv,"Read Version C","Dissertation, read only version C",CLEAR,MOAT,Study2,U,169,170,Study,User,-,,Study/JOL,"Study Phase2",2628,,,-1,-1,,,,1
5ed64879a7771804bd1f974e,50ncubf7hg,Nick_Dissertation_EX1,1,212,2020-06-02T09:17:19-07:00,2.1624131202698,3,versionC_stim.csv,READVersionC.csv,"Read Version C","Dissertation, read only version C",SEATBELT,SAFETY,Study2,S,147,139,Study,User,-,,Study/JOL,"Study Phase2",1737,,,-1,-1,,,,1
5ed64879a7771804bd1f974e,50ncubf7hg,Nick_Dissertation_EX1,1,213,2020-06-02T09:17:21-07:00,2.1287548542023,3,versionC_stim.csv,READVersionC.csv,"Read Version C","Dissertation, read only version C",JOKE,KEYS,Study2,U,165,141,Study,User,-,,Study/JOL,"Study Phase2",1651,,,-1,-1,,,,1
5ed64879a7771804bd1f974e,50ncubf7hg,Nick_Dissertation_EX1,1,214,2020-06-02T09:17:23-07:00,2.20183801651,3,versionC_stim.csv,READVersionC.csv,"Read Version C","Dissertation, read only version C",HEAD,SCALP,Study2,B,105,131,Study,User,-,,Study/JOL,"Study Phase2",1753,,,-1,-1,,,,1
5ed64879a7771804bd1f974e,50ncubf7hg,Nick_Dissertation_EX1,1,215,2020-06-02T09:17:25-07:00,2.1223220825195,3,versionC_stim.csv,READVersionC.csv,"Read Version C","Dissertation, read only version C",SMELL,INCENSE,Study2,B,110,162,Study,User,-,,Study/JOL,"Study Phase2",1677,,,-1,-1,,,,1
5ed64879a7771804bd1f974e,50ncubf7hg,Nick_Dissertation_EX1,1,216,2020-06-02T09:17:27-07:00,2.3217310905457,3,versionC_stim.csv,READVersionC.csv,"Read Version C","Dissertation, read only version C",BANKER,MONEY,Study2,F,132,108,Study,User,-,,Study/JOL,"Study Phase2",1790,,,-1,-1,,,,1
5ed64879a7771804bd1f974e,50ncubf7hg,Nick_Dissertation_EX1,1,217,2020-06-02T09:17:30-07:00,3.0682837963104,3,versionC_stim.csv,READVersionC.csv,"Read Version C","Dissertation, read only version C",CHARM,VEHICLE,Study2,U,160,138,Study,User,-,,Study/JOL,"Study Phase2",2527,,,-1,-1,,,,1
5ed64879a7771804bd1f974e,50ncubf7hg,Nick_Dissertation_EX1,1,218,2020-06-02T09:17:33-07:00,2.7196280956268,3,versionC_stim.csv,READVersionC.csv,"Read Version C","Dissertation, read only version C",NOISE,LOUD,Study2,S,152,140,Study,User,-,,Study/JOL,"Study Phase2",2274,,,-1,-1,,,,1
5ed64879a7771804bd1f974e,50ncubf7hg,Nick_Dissertation_EX1,1,219,2020-06-02T09:17:36-07:00,3.2962009906769,3,versionC_stim.csv,READVersionC.csv,"Read Version C","Dissertation, read only version C",CLOTHES,CAKE,Study2,U,166,160,Study,User,-,,Study/JOL,"Study Phase2",2873,,,-1,-1,,,,1
5ed64879a7771804bd1f974e,50ncubf7hg,Nick_Dissertation_EX1,1,220,2020-06-02T09:17:39-07:00,2.983696937561,3,versionC_stim.csv,READVersionC.csv,"Read Version C","Dissertation, read only version C",PANTHER,CAT,Study2,F,126,113,Study,User,-,,Study/JOL,"Study Phase2",2557,,,-1,-1,,,,1
5ed64879a7771804bd1f974e,50ncubf7hg,Nick_Dissertation_EX1,1,221,2020-06-02T09:17:43-07:00,3.7214241027832,3,versionC_stim.csv,READVersionC.csv,"Read Version C","Dissertation, read only version C",HAVE,OWN,Study2,S,153,114,Study,User,-,,Study/JOL,"Study Phase2",3297,,,-1,-1,,,,1
5ed64879a7771804bd1f974e,50ncubf7hg,Nick_Dissertation_EX1,1,222,2020-06-02T09:17:46-07:00,3.1416139602661,3,versionC_stim.csv,READVersionC.csv,"Read Version C","Dissertation, read only version C",STEAK,GIVE,Study2,U,158,130,Study,User,-,,Study/JOL,"Study Phase2",2724,,,-1,-1,,,,1
5ed64879a7771804bd1f974e,50ncubf7hg,Nick_Dissertation_EX1,1,223,2020-06-02T09:17:50-07:00,3.3071229457855,3,versionC_stim.csv,READVersionC.csv,"Read Version C","Dissertation, read only version C",PAPER,DOCUMENT,Study2,B,109,154,Study,User,-,,Study/JOL,"Study Phase2",2874,,,-1,-1,,,,1
5ed64879a7771804bd1f974e,50ncubf7hg,Nick_Dissertation_EX1,1,224,2020-06-02T09:17:52-07:00,2.5084881782532,3,versionC_stim.csv,READVersionC.csv,"Read Version C","Dissertation, read only version C",TAN,SUN,Study2,S,155,147,Study,User,-,,Study/JOL,"Study Phase2",2065,,,-1,-1,,,,1
5ed64879a7771804bd1f974e,50ncubf7hg,Nick_Dissertation_EX1,1,225,2020-06-02T09:17:55-07:00,3.1394839286804,3,versionC_stim.csv,READVersionC.csv,"Read Version C","Dissertation, read only version C",LIE,TRUTH,Study2,S,148,103,Study,User,-,,Study/JOL,"Study Phase2",1709,,,-1,-1,,,,1
5ed64879a7771804bd1f974e,50ncubf7hg,Nick_Dissertation_EX1,1,226,2020-06-02T09:17:57-07:00,1.9980659484863,3,versionC_stim.csv,READVersionC.csv,"Read Version C","Dissertation, read only version C",GROUND,EARTH,Study2,S,144,104,Study,User,-,,Study/JOL,"Study Phase2",1547,,,-1,-1,,,,1
5ed64879a7771804bd1f974e,50ncubf7hg,Nick_Dissertation_EX1,1,227,2020-06-02T09:17:59-07:00,1.7838950157166,3,versionC_stim.csv,READVersionC.csv,"Read Version C","Dissertation, read only version C",BREAKABLE,GLASS,Study2,F,127,124,Study,User,-,,Study/JOL,"Study Phase2",1353,,,-1,-1,,,,1
5ed64879a7771804bd1f974e,50ncubf7hg,Nick_Dissertation_EX1,1,228,2020-06-02T09:18:02-07:00,3.0071918964386,3,versionC_stim.csv,READVersionC.csv,"Read Version C","Dissertation, read only version C",OBTAIN,MEAT,Study2,U,161,117,Study,User,-,,Study/JOL,"Study Phase2",2569,,,-1,-1,,,,1
5ed64879a7771804bd1f974e,50ncubf7hg,Nick_Dissertation_EX1,1,229,2020-06-02T09:18:03-07:00,1.2324831485748,3,versionC_stim.csv,READVersionC.csv,"Read Version C","Dissertation, read only version C",LONG,EXTENSION,Study2,B,96,146,Study,User,-,,Study/JOL,"Study Phase2",853,,,-1,-1,,,,1
5ed64879a7771804bd1f974e,50ncubf7hg,Nick_Dissertation_EX1,1,230,2020-06-02T09:18:07-07:00,3.6019549369812,3,versionC_stim.csv,READVersionC.csv,"Read Version C","Dissertation, read only version C",CHILDREN,MIRROR,Study2,U,174,164,Study,User,-,,Study/JOL,"Study Phase2",3218,,,-1,-1,,,,1
5ed64879a7771804bd1f974e,50ncubf7hg,Nick_Dissertation_EX1,1,231,2020-06-02T09:18:10-07:00,2.9357900619507,3,versionC_stim.csv,READVersionC.csv,"Read Version C","Dissertation, read only version C",LONELY,ALONE,Study2,S,145,155,Study,User,-,,Study/JOL,"Study Phase2",2512,,,-1,-1,,,,1
5ed64879a7771804bd1f974e,50ncubf7hg,Nick_Dissertation_EX1,1,232,2020-06-02T09:18:12-07:00,2.6123199462891,3,versionC_stim.csv,READVersionC.csv,"Read Version C","Dissertation, read only version C",LEAGUE,BASEBALL,Study2,F,131,110,Study,User,-,,Study/JOL,"Study Phase2",2181,,,-1,-1,,,,1
5ed64879a7771804bd1f974e,50ncubf7hg,Nick_Dissertation_EX1,1,233,2020-06-02T09:18:15-07:00,2.3388350009918,3,versionC_stim.csv,READVersionC.csv,"Read Version C","Dissertation, read only version C",WAX,CANDLE,Study2,S,139,107,Study,User,-,,Study/JOL,"Study Phase2",1894,,,-1,-1,,,,1
5ed64879a7771804bd1f974e,50ncubf7hg,Nick_Dissertation_EX1,1,234,2020-06-02T09:18:18-07:00,2.8177571296692,3,versionC_stim.csv,READVersionC.csv,"Read Version C","Dissertation, read only version C",EQUAL,RIGHTS,Study2,S,137,121,Study,User,-,,Study/JOL,"Study Phase2",2420,,,-1,-1,,,,1
5ed64879a7771804bd1f974e,50ncubf7hg,Nick_Dissertation_EX1,1,235,2020-06-02T09:18:20-07:00,2.6767868995667,3,versionC_stim.csv,READVersionC.csv,"Read Version C","Dissertation, read only version C",FIGHT,FEUD,Study2,B,113,176,Study,User,-,,Study/JOL,"Study Phase2",2236,,,-1,-1,,,,1
5ed64879a7771804bd1f974e,50ncubf7hg,Nick_Dissertation_EX1,1,236,2020-06-02T09:18:22-07:00,1.8276879787445,3,versionC_stim.csv,READVersionC.csv,"Read Version C","Dissertation, read only version C",AIRCRAFT,PLANE,Study2,F,129,97,Study,User,-,,Study/JOL,"Study Phase2",1395,,,-1,-1,,,,1
5ed64879a7771804bd1f974e,50ncubf7hg,Nick_Dissertation_EX1,1,237,2020-06-02T09:18:25-07:00,2.9177920818329,3,versionC_stim.csv,READVersionC.csv,"Read Version C","Dissertation, read only version C",VILLAIN,BAD,Study2,F,118,166,Study,User,-,,Study/JOL,"Study Phase2",2475,,,-1,-1,,,,1
5ed64879a7771804bd1f974e,50ncubf7hg,Nick_Dissertation_EX1,1,238,2020-06-02T09:18:27-07:00,2.4338998794556,3,versionC_stim.csv,READVersionC.csv,"Read Version C","Dissertation, read only version C",COLD,CHILL,Study2,B,114,156,Study,User,-,,Study/JOL,"Study Phase2",2008,,,-1,-1,,,,1
5ed64879a7771804bd1f974e,50ncubf7hg,Nick_Dissertation_EX1,1,239,2020-06-02T09:18:30-07:00,2.6572301387787,3,versionC_stim.csv,READVersionC.csv,"Read Version C","Dissertation, read only version C",Morning,TEMPERATURE,Study2,U,173,135,Study,User,-,,Study/JOL,"Study Phase2",2248,,,-1,-1,,,,1
5ed64879a7771804bd1f974e,50ncubf7hg,Nick_Dissertation_EX1,1,240,2020-06-02T09:18:33-07:00,2.7332367897034,3,versionC_stim.csv,READVersionC.csv,"Read Version C","Dissertation, read only version C",CUT,CHOP,Study2,B,107,175,Study,User,-,,Study/JOL,"Study Phase2",2290,,,-1,-1,,,,1
5ed64879a7771804bd1f974e,50ncubf7hg,Nick_Dissertation_EX1,1,241,2020-06-02T09:18:35-07:00,2.3181412220001,3,versionC_stim.csv,READVersionC.csv,"Read Version C","Dissertation, read only version C",CAR,DRIVER,Study2,B,106,123,Study,User,-,,Study/JOL,"Study Phase2",1894,,,-1,-1,,,,1
5ed64879a7771804bd1f974e,50ncubf7hg,Nick_Dissertation_EX1,1,242,2020-06-02T09:18:37-07:00,2.1265947818756,3,versionC_stim.csv,READVersionC.csv,"Read Version C","Dissertation, read only version C",TRUTHFUL,HONEST,Study2,F,133,153,Study,User,-,,Study/JOL,"Study Phase2",1709,,,-1,-1,,,,1
5ed64879a7771804bd1f974e,50ncubf7hg,Nick_Dissertation_EX1,1,243,2020-06-02T09:18:39-07:00,2.0359342098236,3,versionC_stim.csv,READVersionC.csv,"Read Version C","Dissertation, read only version C",ABLE,CRACKLE,Study2,U,162,142,Study,User,-,,Study/JOL,"Study Phase2",1611,,,-1,-1,,,,1
5ed64879a7771804bd1f974e,50ncubf7hg,Nick_Dissertation_EX1,1,244,2020-06-02T09:18:42-07:00,2.3093068599701,3,versionC_stim.csv,READVersionC.csv,"Read Version C","Dissertation, read only version C",REEL,ROD,Study2,S,150,152,Study,User,-,,Study/JOL,"Study Phase2",1854,,,-1,-1,,,,1
5ed64879a7771804bd1f974e,50ncubf7hg,Nick_Dissertation_EX1,1,245,2020-06-02T09:18:46-07:00,4.1936550140381,3,versionC_stim.csv,READVersionC.csv,"Read Version C","Dissertation, read only version C",BRACELET,WRIST,Study2,S,140,105,Study,User,-,,Study/JOL,"Study Phase2",3636,,,-1,-1,,,,1
5ed64879a7771804bd1f974e,50ncubf7hg,Nick_Dissertation_EX1,1,246,2020-06-02T09:19:03-07:00,17.001848936081,3,versionC_stim.csv,READVersionC.csv,"Read Version C","Dissertation, read only version C",DRINK,WATER,Study2,S,143,98,Study,User,-,,Study/JOL,"Study Phase2",16403,,,16295,16295,,,,1
5ed64879a7771804bd1f974e,50ncubf7hg,Nick_Dissertation_EX1,1,247,2020-06-02T09:19:10-07:00,6.9475100040436,3,versionC_stim.csv,READVersionC.csv,"Read Version C","Dissertation, read only version C",FICTION,LISTEN,Study2,U,164,118,Study,User,-,,Study/JOL,"Study Phase2",6417,,,6281,6281,,,,1
5ed64879a7771804bd1f974e,50ncubf7hg,Nick_Dissertation_EX1,1,248,2020-06-02T09:19:17-07:00,6.7522521018982,3,versionC_stim.csv,READVersionC.csv,"Read Version C","Dissertation, read only version C",TEMPER,TANTRUM,Study2,S,154,129,Study,User,-,,Study/JOL,"Study Phase2",6298,,,6237,6237,,,,1
5ed64879a7771804bd1f974e,50ncubf7hg,Nick_Dissertation_EX1,1,249,2020-06-02T09:19:23-07:00,6.9003140926361,3,versionC_stim.csv,READVersionC.csv,"Read Version C","Dissertation, read only version C",DOG,FURRY,Study2,B,102,137,Study,User,-,,Study/JOL,"Study Phase2",6450,,,6299,6299,,,,1
5ed64879a7771804bd1f974e,50ncubf7hg,Nick_Dissertation_EX1,1,250,2020-06-02T09:19:28-07:00,4.3559379577637,3,versionC_stim.csv,READVersionC.csv,"Read Version C","Dissertation, read only version C",SCISSORS,SHEARS,Study2,B,112,112,Study,User,-,,Study/JOL,"Study Phase2",3905,,,3731,3732,,,,1
5ed64879a7771804bd1f974e,50ncubf7hg,Nick_Dissertation_EX1,1,251,2020-06-02T09:19:34-07:00,6.6056399345398,3,versionC_stim.csv,READVersionC.csv,"Read Version C","Dissertation, read only version C",TRASH,LITTER,Study2,B,103,157,Study,User,-,,Study/JOL,"Study Phase2",6124,,,6016,6016,,,,1
5ed64879a7771804bd1f974e,50ncubf7hg,Nick_Dissertation_EX1,1,252,2020-06-02T09:19:40-07:00,5.2007839679718,3,versionC_stim.csv,READVersionC.csv,"Read Version C","Dissertation, read only version C",BANG,FUZZY,Study2,U,168,173,Study,User,-,,Study/JOL,"Study Phase2",4741,,,4702,4702,,,,1
5ed64879a7771804bd1f974e,50ncubf7hg,Nick_Dissertation_EX1,1,253,2020-06-02T09:19:43-07:00,3.1684200763702,3,versionC_stim.csv,READVersionC.csv,"Read Version C","Dissertation, read only version C",HATE,NAME,Study2,U,167,143,Study,User,-,,Study/JOL,"Study Phase2",2687,,,2557,2557,,,,1
5ed64879a7771804bd1f974e,50ncubf7hg,Nick_Dissertation_EX1,1,254,2020-06-02T09:19:45-07:00,2.3500719070435,3,versionC_stim.csv,READVersionC.csv,"Read Version C","Dissertation, read only version C",MYSTERY,DETECTIVE,Study2,B,100,126,Study,User,-,,Study/JOL,"Study Phase2",1868,,,1785,1785,,,,1
5ed64879a7771804bd1f974e,50ncubf7hg,Nick_Dissertation_EX1,1,255,2020-06-02T09:19:50-07:00,4.9218211174011,3,versionC_stim.csv,READVersionC.csv,"Read Version C","Dissertation, read only version C",WINDSHIELD,CAR,Study2,F,117,119,Study,User,-,,Study/JOL,"Study Phase2",4388,,,4273,4274,,,,1
5ed64879a7771804bd1f974e,50ncubf7hg,Nick_Dissertation_EX1,1,256,2020-06-02T09:20:00-07:00,10.336886882782,3,versionC_stim.csv,READVersionC.csv,"Read Version C","Dissertation, read only version C",CLOTH,STRETCH,Study2,U,157,151,Study,User,-,,Study/JOL,"Study Phase2",9770,,,9651,9652,,,,1
5ed64879a7771804bd1f974e,50ncubf7hg,Nick_Dissertation_EX1,1,257,2020-06-02T09:20:04-07:00,3.3183560371399,3,versionC_stim.csv,READVersionC.csv,"Read Version C","Dissertation, read only version C",SHAVE,RAZOR,Study2,S,136,136,Study,User,-,,Study/JOL,"Study Phase2",1836,,,1662,1663,,,,1
5ed64879a7771804bd1f974e,50ncubf7hg,Nick_Dissertation_EX1,1,258,2020-06-02T09:20:06-07:00,1.8902809619904,3,versionC_stim.csv,READVersionC.csv,"Read Version C","Dissertation, read only version C",ACTRESS,STAR,Study2,F,120,169,Study,User,-,,Study/JOL,"Study Phase2",1423,,,1271,1271,,,,1
5ed64879a7771804bd1f974e,50ncubf7hg,Nick_Dissertation_EX1,1,259,2020-06-02T09:20:08-07:00,2.0021901130676,3,versionC_stim.csv,READVersionC.csv,"Read Version C","Dissertation, read only version C",SARDINE,FISH,Study2,F,130,150,Study,User,-,,Study/JOL,"Study Phase2",1530,,,1389,1389,,,,1
5ed64879a7771804bd1f974e,50ncubf7hg,Nick_Dissertation_EX1,1,260,2020-06-02T09:20:11-07:00,3.456209897995,3,versionC_stim.csv,READVersionC.csv,"Read Version C","Dissertation, read only version C",SHAKE,Shell,Study2,U,163,128,Study,User,-,,Study/JOL,"Study Phase2",2982,,,2866,2866,,,,1
5ed64879a7771804bd1f974e,50ncubf7hg,Nick_Dissertation_EX1,1,261,2020-06-02T09:20:14-07:00,2.7230761051178,3,versionC_stim.csv,READVersionC.csv,"Read Version C","Dissertation, read only version C",MARCH,SPRING,BUFFER4,Buffer,179,180,Study,User,-,,Study/JOL,BUFFER4,2273,,,2138,2138,,,,1
5ed64879a7771804bd1f974e,50ncubf7hg,Nick_Dissertation_EX1,1,262,2020-06-02T09:20:16-07:00,2.5798740386963,3,versionC_stim.csv,READVersionC.csv,"Read Version C","Dissertation, read only version C",SPOOKY,OCTOBER,BUFFER4,Buffer,180,178,Study,User,-,,Study/JOL,BUFFER4,2100,,,1934,1937,,,,1
5ed64879a7771804bd1f974e,50ncubf7hg,Nick_Dissertation_EX1,1,263,2020-06-02T09:20:19-07:00,3.048556804657,3,versionC_stim.csv,READVersionC.csv,"Read Version C","Dissertation, read only version C",WEAKS,DAYS,BUFFER4,Buffer,176,179,Study,User,-,,Study/JOL,BUFFER4,2555,,,2434,2434,,,,1
5ed64879a7771804bd1f974e,50ncubf7hg,Nick_Dissertation_EX1,1,264,2020-06-02T09:20:23-07:00,3.4488580226898,3,versionC_stim.csv,READVersionC.csv,"Read Version C","Dissertation, read only version C",SHED,TOOL,BUFFER4,Buffer,178,181,Study,User,-,,Study/JOL,BUFFER4,2971,,,2817,2817,,,,1
5ed64879a7771804bd1f974e,50ncubf7hg,Nick_Dissertation_EX1,1,265,2020-06-02T09:20:25-07:00,1.6722609996796,3,versionC_stim.csv,READVersionC.csv,"Read Version C","Dissertation, read only version C",YEAR,MONTH,BUFFER4,Buffer,177,177,Study,User,-,,Study/JOL,BUFFER4,1189,,,1079,1079,,,,1
5ed64879a7771804bd1f974e,50ncubf7hg,Nick_Dissertation_EX1,1,266,2020-06-02T09:20:27-07:00,2.3289241790771,3,versionC_stim.csv,READVersionC.csv,"Read Version C","Dissertation, read only version C",,,,,,0,Instruct,User,-,"You have completed this section. Please press Enter.",Filler_Instruction,Instruct5,1892,,,1791,1792,,,,1
5ed64879a7771804bd1f974e,50ncubf7hg,Nick_Dissertation_EX1,1,267,2020-06-02T09:22:27-07:00,120.54934597015,3,versionC_stim.csv,READVersionC.csv,"Read Version C","Dissertation, read only version C",,,,,,0,FreeRecall,120,120,"Please list the 50 US states in reverse alphabetical order (z - a). The task will automatically advance to the next screen after two minutes.",,Filler2,120005,"New York Washington California Minnesota Boston Oklahoma Alaska Chicago South Dekota ",0,13421,106833,0,0,,1
5ed64879a7771804bd1f974e,50ncubf7hg,Nick_Dissertation_EX1,1,268,2020-06-02T09:23:54-07:00,86.814433813095,3,versionC_stim.csv,READVersionC.csv,"Read Version C","Dissertation, read only version C",,,,,,0,Instruct,-,10,"You will now be presented with the first word from each of the previously studied item pairs. Please type the missing word. If you do not know the word, you may guess or press Enter to skip forward to the next pair.",,Instruct6,86288,,,-1,-1,,,,1
5ed64879a7771804bd1f974e,50ncubf7hg,Nick_Dissertation_EX1,1,269,2020-06-02T09:24:02-07:00,7.5625212192535,3,versionC_stim.csv,READVersionC.csv,"Read Version C","Dissertation, read only version C",SHAKE,Shell,Study2,U,163,128,Test,User,-,,Recall,Recall2,7077,Cocktail,15.384615384615,4569,6841,0,0,,1
5ed64879a7771804bd1f974e,50ncubf7hg,Nick_Dissertation_EX1,1,270,2020-06-02T09:24:06-07:00,4.4291470050812,3,versionC_stim.csv,READVersionC.csv,"Read Version C","Dissertation, read only version C",WET,DRY,Study2,S,146,149,Test,User,-,,Recall,Recall2,3963,water,25,3176,3814,0,0,,1
5ed64879a7771804bd1f974e,50ncubf7hg,Nick_Dissertation_EX1,1,271,2020-06-02T09:24:10-07:00,3.9147439002991,3,versionC_stim.csv,READVersionC.csv,"Read Version C","Dissertation, read only version C",CHARM,VEHICLE,Study2,U,160,138,Test,User,-,,Recall,Recall2,3407,bracelet,40,1229,3214,0,0,,1
5ed64879a7771804bd1f974e,50ncubf7hg,Nick_Dissertation_EX1,1,272,2020-06-02T09:24:13-07:00,2.9121789932251,3,versionC_stim.csv,READVersionC.csv,"Read Version C","Dissertation, read only version C",AIRCRAFT,PLANE,Study2,F,129,97,Test,User,-,,Recall,Recall2,2473,plane,100,1144,2208,1,1,,1
5ed64879a7771804bd1f974e,50ncubf7hg,Nick_Dissertation_EX1,1,273,2020-06-02T09:24:16-07:00,2.5671780109406,3,versionC_stim.csv,READVersionC.csv,"Read Version C","Dissertation, read only version C",BANKER,MONEY,Study2,F,132,108,Test,User,-,,Recall,Recall2,2142,money,100,1448,1881,1,1,,1
5ed64879a7771804bd1f974e,50ncubf7hg,Nick_Dissertation_EX1,1,274,2020-06-02T09:24:25-07:00,9.4153549671173,3,versionC_stim.csv,READVersionC.csv,"Read Version C","Dissertation, read only version C",JOKE,KEYS,Study2,U,165,141,Test,User,-,,Recall,Recall2,8968,funny,22.222222222222,5646,8737,0,0,,1
5ed64879a7771804bd1f974e,50ncubf7hg,Nick_Dissertation_EX1,1,275,2020-06-02T09:24:28-07:00,2.7410140037537,3,versionC_stim.csv,READVersionC.csv,"Read Version C","Dissertation, read only version C",TAN,SUN,Study2,S,155,147,Test,User,-,,Recall,Recall2,2313,sun,100,1297,2060,1,1,,1
5ed64879a7771804bd1f974e,50ncubf7hg,Nick_Dissertation_EX1,1,276,2020-06-02T09:24:52-07:00,24.296461105347,3,versionC_stim.csv,READVersionC.csv,"Read Version C","Dissertation, read only version C",FAVORITE,BEST,Study2,F,125,132,Test,User,-,,Recall,Recall2,23743,Best,100,22642,23570,1,1,,1
5ed64879a7771804bd1f974e,50ncubf7hg,Nick_Dissertation_EX1,1,277,2020-06-02T09:25:00-07:00,8.0901358127594,3,versionC_stim.csv,READVersionC.csv,"Read Version C","Dissertation, read only version C",STEAK,GIVE,Study2,U,158,130,Test,User,-,,Recall,Recall2,7618,"obtain ",20,6027,7439,0,0,,1
5ed64879a7771804bd1f974e,50ncubf7hg,Nick_Dissertation_EX1,1,278,2020-06-02T09:25:08-07:00,7.8443222045898,3,versionC_stim.csv,READVersionC.csv,"Read Version C","Dissertation, read only version C",TIE,SHOELACE,Study2,B,99,99,Test,User,-,,Recall,Recall2,7365,rope,33.333333333333,6739,7261,0,0,,1
5ed64879a7771804bd1f974e,50ncubf7hg,Nick_Dissertation_EX1,1,279,2020-06-02T09:25:10-07:00,2.1112248897552,3,versionC_stim.csv,READVersionC.csv,"Read Version C","Dissertation, read only version C",BRAWL,FIGHT,Study2,F,135,174,Test,User,-,,Recall,Recall2,1626,fight,100,1084,1476,1,1,,1
5ed64879a7771804bd1f974e,50ncubf7hg,Nick_Dissertation_EX1,1,280,2020-06-02T09:25:13-07:00,2.9417450428009,3,versionC_stim.csv,READVersionC.csv,"Read Version C","Dissertation, read only version C",PLANT,CACTUS,Study2,B,98,145,Test,User,-,,Recall,Recall2,2510,flower,0,1329,2127,0,0,,1
5ed64879a7771804bd1f974e,50ncubf7hg,Nick_Dissertation_EX1,1,281,2020-06-02T09:25:16-07:00,2.5148329734802,3,versionC_stim.csv,READVersionC.csv,"Read Version C","Dissertation, read only version C",HEAD,SCALP,Study2,B,105,131,Test,User,-,,Recall,Recall2,2111,ache,22.222222222222,1628,2017,0,0,,1
5ed64879a7771804bd1f974e,50ncubf7hg,Nick_Dissertation_EX1,1,282,2020-06-02T09:25:19-07:00,3.0970258712769,3,versionC_stim.csv,READVersionC.csv,"Read Version C","Dissertation, read only version C",BALLOON,POP,Study2,F,123,106,Test,User,-,,Recall,Recall2,2620,burst,0,1279,2216,0,0,,1
5ed64879a7771804bd1f974e,50ncubf7hg,Nick_Dissertation_EX1,1,283,2020-06-02T09:25:21-07:00,2.4481680393219,3,versionC_stim.csv,READVersionC.csv,"Read Version C","Dissertation, read only version C",PANTHER,CAT,Study2,F,126,113,Test,User,-,,Recall,Recall2,1988,cat,100,1501,1866,1,1,,1
5ed64879a7771804bd1f974e,50ncubf7hg,Nick_Dissertation_EX1,1,284,2020-06-02T09:25:26-07:00,4.3912661075592,3,versionC_stim.csv,READVersionC.csv,"Read Version C","Dissertation, read only version C",GAME,CLUE,Study2,B,97,134,Test,User,-,,Recall,Recall2,3921,console,54.545454545455,3062,3760,0,0,,1
5ed64879a7771804bd1f974e,50ncubf7hg,Nick_Dissertation_EX1,1,285,2020-06-02T09:25:31-07:00,5.0604629516602,3,versionC_stim.csv,READVersionC.csv,"Read Version C","Dissertation, read only version C",RED,CHERRY,Study2,B,104,122,Test,User,-,,Recall,Recall2,4635,cherry,100,3620,4331,1,1,,1
5ed64879a7771804bd1f974e,50ncubf7hg,Nick_Dissertation_EX1,1,286,2020-06-02T09:25:35-07:00,3.989373922348,3,versionC_stim.csv,READVersionC.csv,"Read Version C","Dissertation, read only version C",PENGUIN,BIRD,Study2,F,119,168,Test,User,-,,Recall,Recall2,3551,bird,100,2491,3482,1,1,,1
5ed64879a7771804bd1f974e,50ncubf7hg,Nick_Dissertation_EX1,1,287,2020-06-02T09:25:37-07:00,2.3248760700226,3,versionC_stim.csv,READVersionC.csv,"Read Version C","Dissertation, read only version C",SCISSORS,SHEARS,Study2,B,112,112,Test,User,-,,Recall,Recall2,1881,cut,0,1065,1418,0,0,,1
5ed64879a7771804bd1f974e,50ncubf7hg,Nick_Dissertation_EX1,1,288,2020-06-02T09:25:52-07:00,15.547646999359,3,versionC_stim.csv,READVersionC.csv,"Read Version C","Dissertation, read only version C",JAR,MASON,Study2,S,138,148,Test,User,-,,Recall,Recall2,14996,masin,80,2143,14348,0,1,,1
5ed64879a7771804bd1f974e,50ncubf7hg,Nick_Dissertation_EX1,1,289,2020-06-02T09:25:56-07:00,3.1218430995941,3,versionC_stim.csv,READVersionC.csv,"Read Version C","Dissertation, read only version C",VILLAIN,BAD,Study2,F,118,166,Test,User,-,,Recall,Recall2,2668,enemy,0,1904,2388,0,0,,1
5ed64879a7771804bd1f974e,50ncubf7hg,Nick_Dissertation_EX1,1,290,2020-06-02T09:25:58-07:00,2.3759880065918,3,versionC_stim.csv,READVersionC.csv,"Read Version C","Dissertation, read only version C",LIE,TRUTH,Study2,S,148,103,Test,User,-,,Recall,Recall2,1905,truth,100,1151,1591,1,1,,1
5ed64879a7771804bd1f974e,50ncubf7hg,Nick_Dissertation_EX1,1,291,2020-06-02T09:26:03-07:00,5.1308979988098,3,versionC_stim.csv,READVersionC.csv,"Read Version C","Dissertation, read only version C",BREAKABLE,GLASS,Study2,F,127,124,Test,User,-,,Recall,Recall2,4682,glass,100,3613,4136,1,1,,1
5ed64879a7771804bd1f974e,50ncubf7hg,Nick_Dissertation_EX1,1,292,2020-06-02T09:26:06-07:00,3.382700920105,3,versionC_stim.csv,READVersionC.csv,"Read Version C","Dissertation, read only version C",SEATBELT,SAFETY,Study2,S,147,139,Test,User,-,,Recall,Recall2,2944,car,22.222222222222,2067,2413,0,0,,1
5ed64879a7771804bd1f974e,50ncubf7hg,Nick_Dissertation_EX1,1,293,2020-06-02T09:26:10-07:00,3.9320719242096,3,versionC_stim.csv,READVersionC.csv,"Read Version C","Dissertation, read only version C",SMELL,INCENSE,Study2,B,110,162,Test,User,-,,Recall,Recall2,3550,taste,33.333333333333,1297,3408,0,0,,1
5ed64879a7771804bd1f974e,50ncubf7hg,Nick_Dissertation_EX1,1,294,2020-06-02T09:26:15-07:00,4.2473030090332,3,versionC_stim.csv,READVersionC.csv,"Read Version C","Dissertation, read only version C",TEMPER,TANTRUM,Study2,S,154,129,Test,User,-,,Recall,Recall2,3805,angry,50,2468,3467,0,0,,1
5ed64879a7771804bd1f974e,50ncubf7hg,Nick_Dissertation_EX1,1,295,2020-06-02T09:26:29-07:00,14.592080116272,3,versionC_stim.csv,READVersionC.csv,"Read Version C","Dissertation, read only version C",CLOTHES,CAKE,Study2,U,166,160,Test,User,-,,Recall,Recall2,14049,shop,0,11520,13432,0,0,,1
5ed64879a7771804bd1f974e,50ncubf7hg,Nick_Dissertation_EX1,1,296,2020-06-02T09:26:32-07:00,3.0938229560852,3,versionC_stim.csv,READVersionC.csv,"Read Version C","Dissertation, read only version C",DRINK,WATER,Study2,S,143,98,Test,User,-,,Recall,Recall2,2624,water,100,866,1723,1,1,,1
5ed64879a7771804bd1f974e,50ncubf7hg,Nick_Dissertation_EX1,1,297,2020-06-02T09:26:37-07:00,4.772509098053,3,versionC_stim.csv,READVersionC.csv,"Read Version C","Dissertation, read only version C",SARDINE,FISH,Study2,F,130,150,Test,User,-,,Recall,Recall2,4327,fish,100,1807,3450,1,1,,1
5ed64879a7771804bd1f974e,50ncubf7hg,Nick_Dissertation_EX1,1,298,2020-06-02T09:26:46-07:00,8.6076059341431,3,versionC_stim.csv,READVersionC.csv,"Read Version C","Dissertation, read only version C",TICK,FLEA,Study2,S,151,111,Test,User,-,,Recall,Recall2,8164,list,25,6908,7986,0,0,,1
5ed64879a7771804bd1f974e,50ncubf7hg,Nick_Dissertation_EX1,1,299,2020-06-02T09:26:51-07:00,5.5552098751068,3,versionC_stim.csv,READVersionC.csv,"Read Version C","Dissertation, read only version C",SIGN,LOAN,Study2,U,171,172,Test,User,-,,Recall,Recall2,5115,language,50,1657,4930,0,0,,1
5ed64879a7771804bd1f974e,50ncubf7hg,Nick_Dissertation_EX1,1,300,2020-06-02T09:26:54-07:00,2.6231741905212,3,versionC_stim.csv,READVersionC.csv,"Read Version C","Dissertation, read only version C",PAPER,DOCUMENT,Study2,B,109,154,Test,User,-,,Recall,Recall2,2231,cut,54.545454545455,1677,1995,0,0,,1
5ed64879a7771804bd1f974e,50ncubf7hg,Nick_Dissertation_EX1,1,301,2020-06-02T09:26:56-07:00,2.3140258789062,3,versionC_stim.csv,READVersionC.csv,"Read Version C","Dissertation, read only version C",HATE,NAME,Study2,U,167,143,Test,User,-,,Recall,Recall2,1822,love,25,1086,1426,0,0,,1
5ed64879a7771804bd1f974e,50ncubf7hg,Nick_Dissertation_EX1,1,302,2020-06-02T09:27:05-07:00,8.6544859409332,3,versionC_stim.csv,READVersionC.csv,"Read Version C","Dissertation, read only version C",CARBON,ELEMENT,Study2,S,141,163,Test,User,-,,Recall,Recall2,8095,element,100,6304,7937,1,1,,1
5ed64879a7771804bd1f974e,50ncubf7hg,Nick_Dissertation_EX1,1,303,2020-06-02T09:27:11-07:00,5.9825100898743,3,versionC_stim.csv,READVersionC.csv,"Read Version C","Dissertation, read only version C",GROUND,EARTH,Study2,S,144,104,Test,User,-,,Recall,Recall2,5551,ceiling,16.666666666667,3743,5339,0,0,,1
5ed64879a7771804bd1f974e,50ncubf7hg,Nick_Dissertation_EX1,1,304,2020-06-02T09:27:16-07:00,5.4681890010834,3,versionC_stim.csv,READVersionC.csv,"Read Version C","Dissertation, read only version C",NOISE,LOUD,Study2,S,152,140,Test,User,-,,Recall,Recall2,5021,quiet,22.222222222222,2579,4674,0,0,,1
5ed64879a7771804bd1f974e,50ncubf7hg,Nick_Dissertation_EX1,1,305,2020-06-02T09:27:25-07:00,8.3836898803711,3,versionC_stim.csv,READVersionC.csv,"Read Version C","Dissertation, read only version C",EQUAL,RIGHTS,Study2,S,137,121,Test,User,-,,Recall,Recall2,7950,pay,0,6034,6343,0,0,,1
5ed64879a7771804bd1f974e,50ncubf7hg,Nick_Dissertation_EX1,1,306,2020-06-02T09:27:28-07:00,3.4341950416565,3,versionC_stim.csv,READVersionC.csv,"Read Version C","Dissertation, read only version C",WINDSHIELD,CAR,Study2,F,117,119,Test,User,-,,Recall,Recall2,2981,wipers,22.222222222222,2171,2888,0,0,,1
5ed64879a7771804bd1f974e,50ncubf7hg,Nick_Dissertation_EX1,1,307,2020-06-02T09:27:34-07:00,5.6921701431274,3,versionC_stim.csv,READVersionC.csv,"Read Version C","Dissertation, read only version C",STRAWBERRY,FRUIT,Study2,F,124,115,Test,User,-,,Recall,Recall2,5246,"fruit ",100,3907,4949,1,1,,1
5ed64879a7771804bd1f974e,50ncubf7hg,Nick_Dissertation_EX1,1,308,2020-06-02T09:27:38-07:00,3.8630759716034,3,versionC_stim.csv,READVersionC.csv,"Read Version C","Dissertation, read only version C",MAROON,JUSTICE,Study2,U,156,165,Test,User,-,,Recall,Recall2,3414,red,20,2351,2640,0,0,,1
5ed64879a7771804bd1f974e,50ncubf7hg,Nick_Dissertation_EX1,1,309,2020-06-02T09:27:42-07:00,3.8982219696045,3,versionC_stim.csv,READVersionC.csv,"Read Version C","Dissertation, read only version C",REEL,ROD,Study2,S,150,152,Test,User,-,,Recall,Recall2,3465,fishing,0,2088,3319,0,0,,1
5ed64879a7771804bd1f974e,50ncubf7hg,Nick_Dissertation_EX1,1,310,2020-06-02T09:27:46-07:00,4.0625479221344,3,versionC_stim.csv,READVersionC.csv,"Read Version C","Dissertation, read only version C",REVENGE,EVEN,Study2,F,122,158,Test,User,-,,Recall,Recall2,3657,attack,0,2848,3363,0,0,,1
5ed64879a7771804bd1f974e,50ncubf7hg,Nick_Dissertation_EX1,1,311,2020-06-02T09:27:53-07:00,7.0784389972687,3,versionC_stim.csv,READVersionC.csv,"Read Version C","Dissertation, read only version C",OUNCE,BOTH,Study2,U,172,144,Test,User,-,,Recall,Recall2,6625,both,100,4243,4886,1,1,,1
5ed64879a7771804bd1f974e,50ncubf7hg,Nick_Dissertation_EX1,1,312,2020-06-02T09:27:58-07:00,5.6676571369171,3,versionC_stim.csv,READVersionC.csv,"Read Version C","Dissertation, read only version C",ABLE,CRACKLE,Study2,U,162,142,Test,User,-,,Recall,Recall2,5235,can,40,3851,4938,0,0,,1
5ed64879a7771804bd1f974e,50ncubf7hg,Nick_Dissertation_EX1,1,313,2020-06-02T09:28:02-07:00,3.1823318004608,3,versionC_stim.csv,READVersionC.csv,"Read Version C","Dissertation, read only version C",Morning,TEMPERATURE,Study2,U,173,135,Test,User,-,,Recall,Recall2,2738,afternoon,30,1547,2475,0,0,,1
5ed64879a7771804bd1f974e,50ncubf7hg,Nick_Dissertation_EX1,1,314,2020-06-02T09:28:07-07:00,5.3603820800781,3,versionC_stim.csv,READVersionC.csv,"Read Version C","Dissertation, read only version C",CUT,CHOP,Study2,B,107,175,Test,User,-,,Recall,Recall2,4921,paper,22.222222222222,4055,4644,0,0,,1
5ed64879a7771804bd1f974e,50ncubf7hg,Nick_Dissertation_EX1,1,315,2020-06-02T09:28:10-07:00,2.8812599182129,3,versionC_stim.csv,READVersionC.csv,"Read Version C","Dissertation, read only version C",LEAGUE,BASEBALL,Study2,F,131,110,Test,User,-,,Recall,Recall2,2462,football,50,1319,2264,0,0,,1
5ed64879a7771804bd1f974e,50ncubf7hg,Nick_Dissertation_EX1,1,316,2020-06-02T09:28:13-07:00,3.6125900745392,3,versionC_stim.csv,READVersionC.csv,"Read Version C","Dissertation, read only version C",BANG,FUZZY,Study2,U,168,173,Test,User,-,,Recall,Recall2,3180,loud,22.222222222222,2560,3062,0,0,,1
5ed64879a7771804bd1f974e,50ncubf7hg,Nick_Dissertation_EX1,1,317,2020-06-02T09:28:16-07:00,3.0490441322327,3,versionC_stim.csv,READVersionC.csv,"Read Version C","Dissertation, read only version C",AWAY,GONE,Study2,S,142,102,Test,User,-,,Recall,Recall2,2629,near,50,2071,2520,0,0,,1
5ed64879a7771804bd1f974e,50ncubf7hg,Nick_Dissertation_EX1,1,318,2020-06-02T09:28:26-07:00,9.6386208534241,3,versionC_stim.csv,READVersionC.csv,"Read Version C","Dissertation, read only version C",CAR,DRIVER,Study2,B,106,123,Test,User,-,,Recall,Recall2,9213,wheels,16.666666666667,8500,9082,0,0,,1
5ed64879a7771804bd1f974e,50ncubf7hg,Nick_Dissertation_EX1,1,319,2020-06-02T09:28:35-07:00,8.5655200481415,3,versionC_stim.csv,READVersionC.csv,"Read Version C","Dissertation, read only version C",TOIL,LEASE,Study2,U,170,109,Test,User,-,,Recall,Recall2,8149,lease,100,5661,8076,1,1,,1
5ed64879a7771804bd1f974e,50ncubf7hg,Nick_Dissertation_EX1,1,320,2020-06-02T09:28:38-07:00,3.2379100322723,3,versionC_stim.csv,READVersionC.csv,"Read Version C","Dissertation, read only version C",FICTION,LISTEN,Study2,U,164,118,Test,User,-,,Recall,Recall2,2781,book,0,2207,2609,0,0,,1
5ed64879a7771804bd1f974e,50ncubf7hg,Nick_Dissertation_EX1,1,321,2020-06-02T09:28:55-07:00,17.483918905258,3,versionC_stim.csv,READVersionC.csv,"Read Version C","Dissertation, read only version C",ELECTION,MAZE,Study2,U,159,133,Test,User,-,,Recall,Recall2,16947,fixed,22.222222222222,13554,16840,0,0,,1
5ed64879a7771804bd1f974e,50ncubf7hg,Nick_Dissertation_EX1,1,322,2020-06-02T09:28:58-07:00,2.5775091648102,3,versionC_stim.csv,READVersionC.csv,"Read Version C","Dissertation, read only version C",COMMUNICATION,PHONE,Study2,S,149,161,Test,User,-,,Recall,Recall2,2106,talk,0,1535,1897,0,0,,1
5ed64879a7771804bd1f974e,50ncubf7hg,Nick_Dissertation_EX1,1,323,2020-06-02T09:29:02-07:00,4.3318238258362,3,versionC_stim.csv,READVersionC.csv,"Read Version C","Dissertation, read only version C",HAVE,OWN,Study2,S,153,114,Test,User,-,,Recall,Recall2,3782,given,25,1828,3561,0,0,,1
5ed64879a7771804bd1f974e,50ncubf7hg,Nick_Dissertation_EX1,1,324,2020-06-02T09:29:06-07:00,3.3278141021729,3,versionC_stim.csv,READVersionC.csv,"Read Version C","Dissertation, read only version C",ACTRESS,STAR,Study2,F,120,169,Test,User,-,,Recall,Recall2,2884,actor,44.444444444444,1897,2656,0,0,,1
5ed64879a7771804bd1f974e,50ncubf7hg,Nick_Dissertation_EX1,1,325,2020-06-02T09:29:12-07:00,6.7284588813782,3,versionC_stim.csv,READVersionC.csv,"Read Version C","Dissertation, read only version C",MYSTERY,DETECTIVE,Study2,B,100,126,Test,User,-,,Recall,Recall2,6284,clue,30.769230769231,4655,6111,0,0,,1
5ed64879a7771804bd1f974e,50ncubf7hg,Nick_Dissertation_EX1,1,326,2020-06-02T09:29:17-07:00,4.9201121330261,3,versionC_stim.csv,READVersionC.csv,"Read Version C","Dissertation, read only version C",THIMBLE,THREAD,Study2,F,121,171,Test,User,-,,Recall,Recall2,4432,thread,100,3321,4056,1,1,,1
5ed64879a7771804bd1f974e,50ncubf7hg,Nick_Dissertation_EX1,1,327,2020-06-02T09:29:24-07:00,6.6118369102478,3,versionC_stim.csv,READVersionC.csv,"Read Version C","Dissertation, read only version C",END,ADJOURN,Study2,B,101,159,Test,User,-,,Recall,Recall2,6185,start,33.333333333333,3844,5629,0,0,,1
5ed64879a7771804bd1f974e,50ncubf7hg,Nick_Dissertation_EX1,1,328,2020-06-02T09:29:28-07:00,3.6332161426544,3,versionC_stim.csv,READVersionC.csv,"Read Version C","Dissertation, read only version C",CHILDREN,MIRROR,Study2,U,174,164,Test,User,-,,Recall,Recall2,3179,adults,0,2354,3112,0,0,,1
5ed64879a7771804bd1f974e,50ncubf7hg,Nick_Dissertation_EX1,1,329,2020-06-02T09:29:32-07:00,4.0417819023132,3,versionC_stim.csv,READVersionC.csv,"Read Version C","Dissertation, read only version C",EAT,DINE,Study2,B,111,100,Test,User,-,,Recall,Recall2,3573,drink,66.666666666667,964,3304,0,0,,1
5ed64879a7771804bd1f974e,50ncubf7hg,Nick_Dissertation_EX1,1,330,2020-06-02T09:29:34-07:00,2.0761940479279,3,versionC_stim.csv,READVersionC.csv,"Read Version C","Dissertation, read only version C",LONG,EXTENSION,Study2,B,96,146,Test,User,-,,Recall,Recall2,1644,shprt,14.285714285714,1034,1545,0,0,,1
5ed64879a7771804bd1f974e,50ncubf7hg,Nick_Dissertation_EX1,1,331,2020-06-02T09:29:47-07:00,13.38188290596,3,versionC_stim.csv,READVersionC.csv,"Read Version C","Dissertation, read only version C",CLEAR,MOAT,Study2,U,169,170,Test,User,-,,Recall,Recall2,12850,cloudy,20,11600,12175,0,0,,1
5ed64879a7771804bd1f974e,50ncubf7hg,Nick_Dissertation_EX1,1,332,2020-06-02T09:30:02-07:00,15.28376698494,3,versionC_stim.csv,READVersionC.csv,"Read Version C","Dissertation, read only version C",CLOTH,STRETCH,Study2,U,157,151,Test,User,-,,Recall,Recall2,14688,silk,18.181818181818,12983,13383,0,0,,1
5ed64879a7771804bd1f974e,50ncubf7hg,Nick_Dissertation_EX1,1,333,2020-06-02T09:30:06-07:00,3.2293360233307,3,versionC_stim.csv,READVersionC.csv,"Read Version C","Dissertation, read only version C",SCAR,MAIN,Study2,U,175,127,Test,User,-,,Recall,Recall2,2813,hurt,0,2274,2640,0,0,,1
5ed64879a7771804bd1f974e,50ncubf7hg,Nick_Dissertation_EX1,1,334,2020-06-02T09:30:07-07:00,1.8839540481567,3,versionC_stim.csv,READVersionC.csv,"Read Version C","Dissertation, read only version C",DOG,FURRY,Study2,B,102,137,Test,User,-,,Recall,Recall2,1445,cat,0,968,1351,0,0,,1
5ed64879a7771804bd1f974e,50ncubf7hg,Nick_Dissertation_EX1,1,335,2020-06-02T09:30:10-07:00,2.5831599235535,3,versionC_stim.csv,READVersionC.csv,"Read Version C","Dissertation, read only version C",COFFIN,DEAD,Study2,F,128,101,Test,User,-,,Recall,Recall2,2155,dead,100,1606,2025,1,1,,1
5ed64879a7771804bd1f974e,50ncubf7hg,Nick_Dissertation_EX1,1,336,2020-06-02T09:30:13-07:00,2.7327950000763,3,versionC_stim.csv,READVersionC.csv,"Read Version C","Dissertation, read only version C",DONKEY,MULE,Study2,B,108,167,Test,User,-,,Recall,Recall2,2280,horse,22.222222222222,1527,2120,0,0,,1
5ed64879a7771804bd1f974e,50ncubf7hg,Nick_Dissertation_EX1,1,337,2020-06-02T09:30:15-07:00,2.1181640625,3,versionC_stim.csv,READVersionC.csv,"Read Version C","Dissertation, read only version C",TRASH,LITTER,Study2,B,103,157,Test,User,-,,Recall,Recall2,1665,can,0,947,1299,0,0,,1
5ed64879a7771804bd1f974e,50ncubf7hg,Nick_Dissertation_EX1,1,338,2020-06-02T09:30:25-07:00,9.6726579666138,3,versionC_stim.csv,READVersionC.csv,"Read Version C","Dissertation, read only version C",LONELY,ALONE,Study2,S,145,155,Test,User,-,,Recall,Recall2,9111,loved,60,8385,8944,0,0,,1
5ed64879a7771804bd1f974e,50ncubf7hg,Nick_Dissertation_EX1,1,339,2020-06-02T09:30:28-07:00,3.9602880477905,3,versionC_stim.csv,READVersionC.csv,"Read Version C","Dissertation, read only version C",SHAVE,RAZOR,Study2,S,136,136,Test,User,-,,Recall,Recall2,3512,hairy,40,135,2699,0,0,,1
5ed64879a7771804bd1f974e,50ncubf7hg,Nick_Dissertation_EX1,1,340,2020-06-02T09:30:33-07:00,4.6738440990448,3,versionC_stim.csv,READVersionC.csv,"Read Version C","Dissertation, read only version C",OBTAIN,MEAT,Study2,U,161,117,Test,User,-,,Recall,Recall2,4249,get,57.142857142857,3450,4044,0,0,,1
5ed64879a7771804bd1f974e,50ncubf7hg,Nick_Dissertation_EX1,1,341,2020-06-02T09:30:36-07:00,2.6333248615265,3,versionC_stim.csv,READVersionC.csv,"Read Version C","Dissertation, read only version C",FIGHT,FEUD,Study2,B,113,176,Test,User,-,,Recall,Recall2,2173,fist,25,1275,1800,0,0,,1
5ed64879a7771804bd1f974e,50ncubf7hg,Nick_Dissertation_EX1,1,342,2020-06-02T09:30:41-07:00,5.1159191131592,3,versionC_stim.csv,READVersionC.csv,"Read Version C","Dissertation, read only version C",BRACELET,WRIST,Study2,S,140,105,Test,User,-,,Recall,Recall2,4676,charm,20,2590,4151,0,0,,1
5ed64879a7771804bd1f974e,50ncubf7hg,Nick_Dissertation_EX1,1,343,2020-06-02T09:30:47-07:00,5.80233502388,3,versionC_stim.csv,READVersionC.csv,"Read Version C","Dissertation, read only version C",WAX,CANDLE,Study2,S,139,107,Test,User,-,,Recall,Recall2,5346,figure,16.666666666667,4587,5086,0,0,,1
5ed64879a7771804bd1f974e,50ncubf7hg,Nick_Dissertation_EX1,1,344,2020-06-02T09:30:49-07:00,2.1752808094025,3,versionC_stim.csv,READVersionC.csv,"Read Version C","Dissertation, read only version C",LOVE,AFFECTION,Study2,B,115,125,Test,User,-,,Recall,Recall2,1747,hate,30.769230769231,1277,1597,0,0,,1
5ed64879a7771804bd1f974e,50ncubf7hg,Nick_Dissertation_EX1,1,345,2020-06-02T09:30:51-07:00,2.3082680702209,3,versionC_stim.csv,READVersionC.csv,"Read Version C","Dissertation, read only version C",FLIP,TURN,Study2,F,116,120,Test,User,-,,Recall,Recall2,1794,coin,25,1248,1553,0,0,,1
5ed64879a7771804bd1f974e,50ncubf7hg,Nick_Dissertation_EX1,1,346,2020-06-02T09:30:53-07:00,2.1960699558258,3,versionC_stim.csv,READVersionC.csv,"Read Version C","Dissertation, read only version C",COLD,CHILL,Study2,B,114,156,Test,User,-,,Recall,Recall2,1755,hot,25,1097,1523,0,0,,1
