Username,ID,ExperimentName,Session,Trial,Date,TimeDif,"Condition Number","Stimuli File","Order File","Condition Description","Condition Notes",Stimuli*Cue,Stimuli*Answer,Stimuli*Shuffle,"Stimuli*Stimuli Notes",Stimuli*Value,Procedure*Item,"Procedure*Trial Type","Procedure*Max Time","Procedure*Min Time",Procedure*Text,"Procedure*Procedure Notes",Procedure*Shuffle,Response*RT,Response*Response,Response*Accuracy,Response*RTfirst,Response*RTlast,Response*strictAcc,Response*lenientAcc,Response*focus,Response*Focus
5ce2eaf7a74ff200195bf799,c8r08wqi11,Nick_Dissertation_EX1,1,1,2020-06-02T09:15:16-07:00,11.606918096542,1,versionA_stim.csv,READVersionA.csv,"Read Version A","Dissertation, read only version A",,,,,,0,Instruct,-,10,"Please study each of the following word pairs. Remember that your memory will be tested! When finished, press Enter to move to the next pair.",Initial_Instruct,Instruct1,11306,,,-1,-1,,,,1
5ce2eaf7a74ff200195bf799,c8r08wqi11,Nick_Dissertation_EX1,1,2,2020-06-02T09:15:19-07:00,3.3055438995361,1,versionA_stim.csv,READVersionA.csv,"Read Version A","Dissertation, read only version A",SPACE,JAM,BUFFER1,Buffer,5,3,Study,User,-,,Study/JOL,BUFFER,2977,,,-1,-1,,,,1
5ce2eaf7a74ff200195bf799,c8r08wqi11,Nick_Dissertation_EX1,1,3,2020-06-02T09:15:25-07:00,5.5973892211914,1,versionA_stim.csv,READVersionA.csv,"Read Version A","Dissertation, read only version A",SCARE,HIDE,BUFFER1,Buffer,4,2,Study,User,-,,Study/JOL,BUFFER,4305,,,-1,-1,,,,1
5ce2eaf7a74ff200195bf799,c8r08wqi11,Nick_Dissertation_EX1,1,4,2020-06-02T09:15:27-07:00,2.417160987854,1,versionA_stim.csv,READVersionA.csv,"Read Version A","Dissertation, read only version A",PEANUT,BUTTER,BUFFER1,Buffer,3,6,Study,User,-,,Study/JOL,BUFFER,2021,,,-1,-1,,,,1
5ce2eaf7a74ff200195bf799,c8r08wqi11,Nick_Dissertation_EX1,1,5,2020-06-02T09:15:31-07:00,3.7725780010223,1,versionA_stim.csv,READVersionA.csv,"Read Version A","Dissertation, read only version A",BASEBALL,CATCHER,BUFFER1,Buffer,2,5,Study,User,-,,Study/JOL,BUFFER,3485,,,-1,-1,,,,1
5ce2eaf7a74ff200195bf799,c8r08wqi11,Nick_Dissertation_EX1,1,6,2020-06-02T09:15:37-07:00,5.7483358383179,1,versionA_stim.csv,READVersionA.csv,"Read Version A","Dissertation, read only version A",TREES,GREEN,BUFFER1,Buffer,1,4,Study,User,-,,Study/JOL,BUFFER,5352,,,-1,-1,,,,1
5ce2eaf7a74ff200195bf799,c8r08wqi11,Nick_Dissertation_EX1,1,7,2020-06-02T09:15:41-07:00,3.9846370220184,1,versionA_stim.csv,READVersionA.csv,"Read Version A","Dissertation, read only version A",DUMP,WASTE,Study1,S,49,9,Study,User,-,,Study/JOL,"Study Phase",3686,,,-1,-1,,,,1
5ce2eaf7a74ff200195bf799,c8r08wqi11,Nick_Dissertation_EX1,1,8,2020-06-02T09:15:45-07:00,3.7770659923553,1,versionA_stim.csv,READVersionA.csv,"Read Version A","Dissertation, read only version A",TUNA,FISH,Study1,F,25,7,Study,User,-,,Study/JOL,"Study Phase",2479,,,-1,-1,,,,1
5ce2eaf7a74ff200195bf799,c8r08wqi11,Nick_Dissertation_EX1,1,9,2020-06-02T09:15:51-07:00,5.9726531505585,1,versionA_stim.csv,READVersionA.csv,"Read Version A","Dissertation, read only version A",FIX,HAND,Study1,U,75,49,Study,User,-,,Study/JOL,"Study Phase",5611,,,-1,-1,,,,1
5ce2eaf7a74ff200195bf799,c8r08wqi11,Nick_Dissertation_EX1,1,10,2020-06-02T09:15:55-07:00,4.4846918582916,1,versionA_stim.csv,READVersionA.csv,"Read Version A","Dissertation, read only version A",DEBATE,SIGHT,Study1,U,73,43,Study,User,-,,Study/JOL,"Study Phase",4202,,,-1,-1,,,,1
5ce2eaf7a74ff200195bf799,c8r08wqi11,Nick_Dissertation_EX1,1,11,2020-06-02T09:15:59-07:00,4.0691730976105,1,versionA_stim.csv,READVersionA.csv,"Read Version A","Dissertation, read only version A",WORK,CHORE,Study1,B,39,59,Study,User,-,,Study/JOL,"Study Phase",3688,,,-1,-1,,,,1
5ce2eaf7a74ff200195bf799,c8r08wqi11,Nick_Dissertation_EX1,1,12,2020-06-02T09:16:04-07:00,4.2687149047852,1,versionA_stim.csv,READVersionA.csv,"Read Version A","Dissertation, read only version A",ARTERY,BRONZE,Study1,U,74,37,Study,User,-,,Study/JOL,"Study Phase",3980,,,-1,-1,,,,1
5ce2eaf7a74ff200195bf799,c8r08wqi11,Nick_Dissertation_EX1,1,13,2020-06-02T09:16:09-07:00,5.8886659145355,1,versionA_stim.csv,READVersionA.csv,"Read Version A","Dissertation, read only version A",DIGESTION,STOMACH,Study1,F,7,76,Study,User,-,,Study/JOL,"Study Phase",5567,,,-1,-1,,,,1
5ce2eaf7a74ff200195bf799,c8r08wqi11,Nick_Dissertation_EX1,1,14,2020-06-02T09:16:13-07:00,3.2177021503448,1,versionA_stim.csv,READVersionA.csv,"Read Version A","Dissertation, read only version A",WINE,CHEESE,Study1,S,57,15,Study,User,-,,Study/JOL,"Study Phase",2834,,,-1,-1,,,,1
5ce2eaf7a74ff200195bf799,c8r08wqi11,Nick_Dissertation_EX1,1,15,2020-06-02T09:16:16-07:00,3.4079439640045,1,versionA_stim.csv,READVersionA.csv,"Read Version A","Dissertation, read only version A",ALLOW,TUCK,Study1,U,78,73,Study,User,-,,Study/JOL,"Study Phase",3121,,,-1,-1,,,,1
5ce2eaf7a74ff200195bf799,c8r08wqi11,Nick_Dissertation_EX1,1,16,2020-06-02T09:16:19-07:00,2.554703950882,1,versionA_stim.csv,READVersionA.csv,"Read Version A","Dissertation, read only version A",HYGIENE,CLEAN,Study1,F,17,19,Study,User,-,,Study/JOL,"Study Phase",2253,,,-1,-1,,,,1
5ce2eaf7a74ff200195bf799,c8r08wqi11,Nick_Dissertation_EX1,1,17,2020-06-02T09:16:22-07:00,3.4239370822906,1,versionA_stim.csv,READVersionA.csv,"Read Version A","Dissertation, read only version A",KIDNEY,LIVER,Study1,S,53,71,Study,User,-,,Study/JOL,"Study Phase",3023,,,-1,-1,,,,1
5ce2eaf7a74ff200195bf799,c8r08wqi11,Nick_Dissertation_EX1,1,18,2020-06-02T09:16:24-07:00,1.7329049110413,1,versionA_stim.csv,READVersionA.csv,"Read Version A","Dissertation, read only version A",BEGIN,END,Study1,S,54,83,Study,User,-,,Study/JOL,"Study Phase",1411,,,-1,-1,,,,1
5ce2eaf7a74ff200195bf799,c8r08wqi11,Nick_Dissertation_EX1,1,19,2020-06-02T09:16:26-07:00,2.6183471679688,1,versionA_stim.csv,READVersionA.csv,"Read Version A","Dissertation, read only version A",SHOE,FOOT,Study1,S,60,52,Study,User,-,,Study/JOL,"Study Phase",2332,,,-1,-1,,,,1
5ce2eaf7a74ff200195bf799,c8r08wqi11,Nick_Dissertation_EX1,1,20,2020-06-02T09:16:29-07:00,2.6073999404907,1,versionA_stim.csv,READVersionA.csv,"Read Version A","Dissertation, read only version A",LOCATION,SITE,Study1,S,48,56,Study,User,-,,Study/JOL,"Study Phase",2315,,,-1,-1,,,,1
5ce2eaf7a74ff200195bf799,c8r08wqi11,Nick_Dissertation_EX1,1,21,2020-06-02T09:16:32-07:00,2.7197949886322,1,versionA_stim.csv,READVersionA.csv,"Read Version A","Dissertation, read only version A",EDITOR,NEWS,Study1,F,10,13,Study,User,-,,Study/JOL,"Study Phase",2437,,,-1,-1,,,,1
5ce2eaf7a74ff200195bf799,c8r08wqi11,Nick_Dissertation_EX1,1,22,2020-06-02T09:16:34-07:00,2.1698079109192,1,versionA_stim.csv,READVersionA.csv,"Read Version A","Dissertation, read only version A",SENTENCE,WORD,Study1,B,31,8,Study,User,-,,Study/JOL,"Study Phase",1884,,,-1,-1,,,,1
5ce2eaf7a74ff200195bf799,c8r08wqi11,Nick_Dissertation_EX1,1,23,2020-06-02T09:16:36-07:00,1.6524770259857,1,versionA_stim.csv,READVersionA.csv,"Read Version A","Dissertation, read only version A",POP,SODA,Study1,S,56,41,Study,User,-,,Study/JOL,"Study Phase",1375,,,-1,-1,,,,1
5ce2eaf7a74ff200195bf799,c8r08wqi11,Nick_Dissertation_EX1,1,24,2020-06-02T09:16:38-07:00,2.6038150787354,1,versionA_stim.csv,READVersionA.csv,"Read Version A","Dissertation, read only version A",BITTER,COLD,Study1,F,12,57,Study,User,-,,Study/JOL,"Study Phase",2316,,,-1,-1,,,,1
5ce2eaf7a74ff200195bf799,c8r08wqi11,Nick_Dissertation_EX1,1,25,2020-06-02T09:16:40-07:00,2.1837120056152,1,versionA_stim.csv,READVersionA.csv,"Read Version A","Dissertation, read only version A",HOT,CHILI,Study1,B,37,65,Study,User,-,,Study/JOL,"Study Phase",1870,,,-1,-1,,,,1
5ce2eaf7a74ff200195bf799,c8r08wqi11,Nick_Dissertation_EX1,1,26,2020-06-02T09:16:43-07:00,2.51527094841,1,versionA_stim.csv,READVersionA.csv,"Read Version A","Dissertation, read only version A",BATHROOM,TOILET,Study1,S,58,27,Study,User,-,,Study/JOL,"Study Phase",2184,,,-1,-1,,,,1
5ce2eaf7a74ff200195bf799,c8r08wqi11,Nick_Dissertation_EX1,1,27,2020-06-02T09:16:45-07:00,2.3265190124512,1,versionA_stim.csv,READVersionA.csv,"Read Version A","Dissertation, read only version A",SLEEP,DROWSY,Study1,B,41,34,Study,User,-,,Study/JOL,"Study Phase",2042,,,-1,-1,,,,1
5ce2eaf7a74ff200195bf799,c8r08wqi11,Nick_Dissertation_EX1,1,28,2020-06-02T09:16:49-07:00,3.8240978717804,1,versionA_stim.csv,READVersionA.csv,"Read Version A","Dissertation, read only version A",DIETARY,SACKING,Study1,U,67,39,Study,User,-,,Study/JOL,"Study Phase",3507,,,-1,-1,,,,1
5ce2eaf7a74ff200195bf799,c8r08wqi11,Nick_Dissertation_EX1,1,29,2020-06-02T09:16:53-07:00,4.2071070671082,1,versionA_stim.csv,READVersionA.csv,"Read Version A","Dissertation, read only version A",STRONG,ACCIDENT,Study1,U,80,33,Study,User,-,,Study/JOL,"Study Phase",3919,,,-1,-1,,,,1
5ce2eaf7a74ff200195bf799,c8r08wqi11,Nick_Dissertation_EX1,1,30,2020-06-02T09:16:57-07:00,3.5209100246429,1,versionA_stim.csv,READVersionA.csv,"Read Version A","Dissertation, read only version A",BUG,WASP,Study1,B,32,66,Study,User,-,,Study/JOL,"Study Phase",3219,,,-1,-1,,,,1
5ce2eaf7a74ff200195bf799,c8r08wqi11,Nick_Dissertation_EX1,1,31,2020-06-02T09:16:59-07:00,2.4548029899597,1,versionA_stim.csv,READVersionA.csv,"Read Version A","Dissertation, read only version A",FULL,ENOUGH,Study1,B,26,28,Study,User,-,,Study/JOL,"Study Phase",2165,,,-1,-1,,,,1
5ce2eaf7a74ff200195bf799,c8r08wqi11,Nick_Dissertation_EX1,1,32,2020-06-02T09:17:03-07:00,3.5888409614563,1,versionA_stim.csv,READVersionA.csv,"Read Version A","Dissertation, read only version A",CIRCLE,ROUND,Study1,S,65,18,Study,User,-,,Study/JOL,"Study Phase",3315,,,-1,-1,,,,1
5ce2eaf7a74ff200195bf799,c8r08wqi11,Nick_Dissertation_EX1,1,33,2020-06-02T09:17:07-07:00,3.8547060489655,1,versionA_stim.csv,READVersionA.csv,"Read Version A","Dissertation, read only version A",CHISEL,HAMMER,Study1,F,9,12,Study,User,-,,Study/JOL,"Study Phase",3560,,,-1,-1,,,,1
5ce2eaf7a74ff200195bf799,c8r08wqi11,Nick_Dissertation_EX1,1,34,2020-06-02T09:17:09-07:00,2.7880620956421,1,versionA_stim.csv,READVersionA.csv,"Read Version A","Dissertation, read only version A",MATH,DIVISION,Study1,B,33,26,Study,User,-,,Study/JOL,"Study Phase",2505,,,-1,-1,,,,1
5ce2eaf7a74ff200195bf799,c8r08wqi11,Nick_Dissertation_EX1,1,35,2020-06-02T09:17:12-07:00,3.0069389343262,1,versionA_stim.csv,READVersionA.csv,"Read Version A","Dissertation, read only version A",DRINK,SIP,Study1,B,27,10,Study,User,-,,Study/JOL,"Study Phase",2711,,,-1,-1,,,,1
5ce2eaf7a74ff200195bf799,c8r08wqi11,Nick_Dissertation_EX1,1,36,2020-06-02T09:17:15-07:00,2.1934819221497,1,versionA_stim.csv,READVersionA.csv,"Read Version A","Dissertation, read only version A",ROOT,PLANT,Study1,F,13,31,Study,User,-,,Study/JOL,"Study Phase",1896,,,-1,-1,,,,1
5ce2eaf7a74ff200195bf799,c8r08wqi11,Nick_Dissertation_EX1,1,37,2020-06-02T09:17:18-07:00,3.6679100990295,1,versionA_stim.csv,READVersionA.csv,"Read Version A","Dissertation, read only version A",VALLEY,ADD,Study1,U,82,60,Study,User,-,,Study/JOL,"Study Phase",3358,,,-1,-1,,,,1
5ce2eaf7a74ff200195bf799,c8r08wqi11,Nick_Dissertation_EX1,1,38,2020-06-02T09:17:22-07:00,3.8589580059052,1,versionA_stim.csv,READVersionA.csv,"Read Version A","Dissertation, read only version A",DISCOVER,FLOOR,Study1,U,71,35,Study,User,-,,Study/JOL,"Study Phase",3543,,,-1,-1,,,,1
5ce2eaf7a74ff200195bf799,c8r08wqi11,Nick_Dissertation_EX1,1,39,2020-06-02T09:17:25-07:00,2.3612968921661,1,versionA_stim.csv,READVersionA.csv,"Read Version A","Dissertation, read only version A",PLANE,PILOT,Study1,B,44,48,Study,User,-,,Study/JOL,"Study Phase",2064,,,-1,-1,,,,1
5ce2eaf7a74ff200195bf799,c8r08wqi11,Nick_Dissertation_EX1,1,40,2020-06-02T09:17:27-07:00,2.3302690982819,1,versionA_stim.csv,READVersionA.csv,"Read Version A","Dissertation, read only version A",HIDE,SICK,Study1,U,84,42,Study,User,-,,Study/JOL,"Study Phase",2031,,,-1,-1,,,,1
5ce2eaf7a74ff200195bf799,c8r08wqi11,Nick_Dissertation_EX1,1,41,2020-06-02T09:17:31-07:00,4.3247709274292,1,versionA_stim.csv,READVersionA.csv,"Read Version A","Dissertation, read only version A",HAPPY,CAR,Study1,U,77,63,Study,User,-,,Study/JOL,"Study Phase",4035,,,-1,-1,,,,1
5ce2eaf7a74ff200195bf799,c8r08wqi11,Nick_Dissertation_EX1,1,42,2020-06-02T09:17:34-07:00,2.8988690376282,1,versionA_stim.csv,READVersionA.csv,"Read Version A","Dissertation, read only version A",ART,LION,Study1,U,79,47,Study,User,-,,Study/JOL,"Study Phase",2611,,,-1,-1,,,,1
5ce2eaf7a74ff200195bf799,c8r08wqi11,Nick_Dissertation_EX1,1,43,2020-06-02T09:17:37-07:00,2.8664090633392,1,versionA_stim.csv,READVersionA.csv,"Read Version A","Dissertation, read only version A",HUNGER,FAMINE,Study1,B,40,81,Study,User,-,,Study/JOL,"Study Phase",2581,,,-1,-1,,,,1
5ce2eaf7a74ff200195bf799,c8r08wqi11,Nick_Dissertation_EX1,1,44,2020-06-02T09:17:39-07:00,2.3939528465271,1,versionA_stim.csv,READVersionA.csv,"Read Version A","Dissertation, read only version A",DUE,ASSIGNMENT,Study1,S,46,74,Study,User,-,,Study/JOL,"Study Phase",2092,,,-1,-1,,,,1
5ce2eaf7a74ff200195bf799,c8r08wqi11,Nick_Dissertation_EX1,1,45,2020-06-02T09:17:41-07:00,1.1630392074585,1,versionA_stim.csv,READVersionA.csv,"Read Version A","Dissertation, read only version A",LAW,ATTORNEY,Study1,B,34,58,Study,User,-,,Study/JOL,"Study Phase",876,,,-1,-1,,,,1
5ce2eaf7a74ff200195bf799,c8r08wqi11,Nick_Dissertation_EX1,1,46,2020-06-02T09:17:42-07:00,1.4565298557281,1,versionA_stim.csv,READVersionA.csv,"Read Version A","Dissertation, read only version A",ORCHID,FLOWER,Study1,F,24,40,Study,User,-,,Study/JOL,"Study Phase",1093,,,-1,-1,,,,1
5ce2eaf7a74ff200195bf799,c8r08wqi11,Nick_Dissertation_EX1,1,47,2020-06-02T09:17:44-07:00,1.5926330089569,1,versionA_stim.csv,READVersionA.csv,"Read Version A","Dissertation, read only version A",CLOTHES,ATTIRE,Study1,B,43,11,Study,User,-,,Study/JOL,"Study Phase",1304,,,-1,-1,,,,1
5ce2eaf7a74ff200195bf799,c8r08wqi11,Nick_Dissertation_EX1,1,48,2020-06-02T09:17:45-07:00,1.8980050086975,1,versionA_stim.csv,READVersionA.csv,"Read Version A","Dissertation, read only version A",BALL,RACKET,Study1,B,38,20,Study,User,-,,Study/JOL,"Study Phase",1585,,,-1,-1,,,,1
5ce2eaf7a74ff200195bf799,c8r08wqi11,Nick_Dissertation_EX1,1,49,2020-06-02T09:17:48-07:00,2.5446729660034,1,versionA_stim.csv,READVersionA.csv,"Read Version A","Dissertation, read only version A",LETTUCE,SALAD,Study1,S,59,24,Study,User,-,,Study/JOL,"Study Phase",2229,,,-1,-1,,,,1
5ce2eaf7a74ff200195bf799,c8r08wqi11,Nick_Dissertation_EX1,1,50,2020-06-02T09:17:51-07:00,2.5193259716034,1,versionA_stim.csv,READVersionA.csv,"Read Version A","Dissertation, read only version A",HONEY,BEE,Study1,S,63,51,Study,User,-,,Study/JOL,"Study Phase",2223,,,-1,-1,,,,1
5ce2eaf7a74ff200195bf799,c8r08wqi11,Nick_Dissertation_EX1,1,51,2020-06-02T09:17:54-07:00,3.6728291511536,1,versionA_stim.csv,READVersionA.csv,"Read Version A","Dissertation, read only version A",PAW,DOG,Study1,F,15,22,Study,User,-,,Study/JOL,"Study Phase",3375,,,-1,-1,,,,1
5ce2eaf7a74ff200195bf799,c8r08wqi11,Nick_Dissertation_EX1,1,52,2020-06-02T09:17:57-07:00,3.0225088596344,1,versionA_stim.csv,READVersionA.csv,"Read Version A","Dissertation, read only version A",GREAT,FANTASTIC,Study1,B,35,78,Study,User,-,,Study/JOL,"Study Phase",2434,,,-1,-1,,,,1
5ce2eaf7a74ff200195bf799,c8r08wqi11,Nick_Dissertation_EX1,1,53,2020-06-02T09:18:00-07:00,3.0724439620972,1,versionA_stim.csv,READVersionA.csv,"Read Version A","Dissertation, read only version A",BLOW,WIND,Study1,S,55,32,Study,User,-,,Study/JOL,"Study Phase",2776,,,-1,-1,,,,1
5ce2eaf7a74ff200195bf799,c8r08wqi11,Nick_Dissertation_EX1,1,54,2020-06-02T09:18:02-07:00,1.5999710559845,1,versionA_stim.csv,READVersionA.csv,"Read Version A","Dissertation, read only version A",PARK,HUNGRY,Study1,U,68,79,Study,User,-,,Study/JOL,"Study Phase",1296,,,-1,-1,,,,1
5ce2eaf7a74ff200195bf799,c8r08wqi11,Nick_Dissertation_EX1,1,55,2020-06-02T09:18:04-07:00,1.8498201370239,1,versionA_stim.csv,READVersionA.csv,"Read Version A","Dissertation, read only version A",HEIGHT,GROWTH,Study1,B,30,55,Study,User,-,,Study/JOL,"Study Phase",1548,,,-1,-1,,,,1
5ce2eaf7a74ff200195bf799,c8r08wqi11,Nick_Dissertation_EX1,1,56,2020-06-02T09:18:06-07:00,2.0254259109497,1,versionA_stim.csv,READVersionA.csv,"Read Version A","Dissertation, read only version A",NUMBER,AMOUNT,Study1,S,47,54,Study,User,-,,Study/JOL,"Study Phase",1710,,,-1,-1,,,,1
5ce2eaf7a74ff200195bf799,c8r08wqi11,Nick_Dissertation_EX1,1,57,2020-06-02T09:18:08-07:00,2.1075758934021,1,versionA_stim.csv,READVersionA.csv,"Read Version A","Dissertation, read only version A",SMELL,STENCH,Study1,B,42,45,Study,User,-,,Study/JOL,"Study Phase",1816,,,-1,-1,,,,1
5ce2eaf7a74ff200195bf799,c8r08wqi11,Nick_Dissertation_EX1,1,58,2020-06-02T09:18:10-07:00,2.1592411994934,1,versionA_stim.csv,READVersionA.csv,"Read Version A","Dissertation, read only version A",KEY,LATCH,Study1,B,36,23,Study,User,-,,Study/JOL,"Study Phase",1854,,,-1,-1,,,,1
5ce2eaf7a74ff200195bf799,c8r08wqi11,Nick_Dissertation_EX1,1,59,2020-06-02T09:18:12-07:00,1.9568738937378,1,versionA_stim.csv,READVersionA.csv,"Read Version A","Dissertation, read only version A",SWAN,BIRD,Study1,F,14,46,Study,User,-,,Study/JOL,"Study Phase",1663,,,-1,-1,,,,1
5ce2eaf7a74ff200195bf799,c8r08wqi11,Nick_Dissertation_EX1,1,60,2020-06-02T09:18:15-07:00,3.2824900150299,1,versionA_stim.csv,READVersionA.csv,"Read Version A","Dissertation, read only version A",KING,VASE,Study1,U,85,50,Study,User,-,,Study/JOL,"Study Phase",2986,,,-1,-1,,,,1
5ce2eaf7a74ff200195bf799,c8r08wqi11,Nick_Dissertation_EX1,1,61,2020-06-02T09:18:18-07:00,2.2895040512085,1,versionA_stim.csv,READVersionA.csv,"Read Version A","Dissertation, read only version A",WAGE,MONEY,Study1,F,8,64,Study,User,-,,Study/JOL,"Study Phase",1981,,,-1,-1,,,,1
5ce2eaf7a74ff200195bf799,c8r08wqi11,Nick_Dissertation_EX1,1,62,2020-06-02T09:18:21-07:00,3.3594648838043,1,versionA_stim.csv,READVersionA.csv,"Read Version A","Dissertation, read only version A",DEATH,BUSINESS,Study1,U,72,80,Study,User,-,,Study/JOL,"Study Phase",3081,,,-1,-1,,,,1
5ce2eaf7a74ff200195bf799,c8r08wqi11,Nick_Dissertation_EX1,1,63,2020-06-02T09:18:23-07:00,2.0142130851746,1,versionA_stim.csv,READVersionA.csv,"Read Version A","Dissertation, read only version A",WAY,OUT,Study1,F,16,70,Study,User,-,,Study/JOL,"Study Phase",1736,,,-1,-1,,,,1
5ce2eaf7a74ff200195bf799,c8r08wqi11,Nick_Dissertation_EX1,1,64,2020-06-02T09:18:26-07:00,2.6195759773254,1,versionA_stim.csv,READVersionA.csv,"Read Version A","Dissertation, read only version A",MEANING,DEFINITION,Study1,S,62,69,Study,User,-,,Study/JOL,"Study Phase",2321,,,-1,-1,,,,1
5ce2eaf7a74ff200195bf799,c8r08wqi11,Nick_Dissertation_EX1,1,65,2020-06-02T09:18:29-07:00,3.1558818817139,1,versionA_stim.csv,READVersionA.csv,"Read Version A","Dissertation, read only version A",PUSHER,CLUTTER,Study1,U,66,17,Study,User,-,,Study/JOL,"Study Phase",2863,,,-1,-1,,,,1
5ce2eaf7a74ff200195bf799,c8r08wqi11,Nick_Dissertation_EX1,1,66,2020-06-02T09:18:31-07:00,2.6309220790863,1,versionA_stim.csv,READVersionA.csv,"Read Version A","Dissertation, read only version A",CREDIT,CARD,Study1,F,23,21,Study,User,-,,Study/JOL,"Study Phase",2335,,,-1,-1,,,,1
5ce2eaf7a74ff200195bf799,c8r08wqi11,Nick_Dissertation_EX1,1,67,2020-06-02T09:18:34-07:00,2.6376221179962,1,versionA_stim.csv,READVersionA.csv,"Read Version A","Dissertation, read only version A",CASH,WOULD,Study1,U,83,68,Study,User,-,,Study/JOL,"Study Phase",2337,,,-1,-1,,,,1
5ce2eaf7a74ff200195bf799,c8r08wqi11,Nick_Dissertation_EX1,1,68,2020-06-02T09:18:36-07:00,1.9219310283661,1,versionA_stim.csv,READVersionA.csv,"Read Version A","Dissertation, read only version A",GRILL,BAR,Study1,S,52,30,Study,User,-,,Study/JOL,"Study Phase",1628,,,-1,-1,,,,1
5ce2eaf7a74ff200195bf799,c8r08wqi11,Nick_Dissertation_EX1,1,69,2020-06-02T09:18:38-07:00,2.5305848121643,1,versionA_stim.csv,READVersionA.csv,"Read Version A","Dissertation, read only version A",DARK,CAVE,Study1,B,28,29,Study,User,-,,Study/JOL,"Study Phase",2222,,,-1,-1,,,,1
5ce2eaf7a74ff200195bf799,c8r08wqi11,Nick_Dissertation_EX1,1,70,2020-06-02T09:18:41-07:00,2.1637849807739,1,versionA_stim.csv,READVersionA.csv,"Read Version A","Dissertation, read only version A",DISCUSSION,TALK,Study1,F,21,72,Study,User,-,,Study/JOL,"Study Phase",1864,,,-1,-1,,,,1
5ce2eaf7a74ff200195bf799,c8r08wqi11,Nick_Dissertation_EX1,1,71,2020-06-02T09:18:42-07:00,1.5902190208435,1,versionA_stim.csv,READVersionA.csv,"Read Version A","Dissertation, read only version A",TRIAL,JURY,Study1,S,50,38,Study,User,-,,Study/JOL,"Study Phase",1277,,,-1,-1,,,,1
5ce2eaf7a74ff200195bf799,c8r08wqi11,Nick_Dissertation_EX1,1,72,2020-06-02T09:18:45-07:00,3.1168620586395,1,versionA_stim.csv,READVersionA.csv,"Read Version A","Dissertation, read only version A",REVOLUTION,WAR,Study1,F,20,25,Study,User,-,,Study/JOL,"Study Phase",2825,,,-1,-1,,,,1
5ce2eaf7a74ff200195bf799,c8r08wqi11,Nick_Dissertation_EX1,1,73,2020-06-02T09:18:47-07:00,1.9301989078522,1,versionA_stim.csv,READVersionA.csv,"Read Version A","Dissertation, read only version A",DELINQUENT,BAD,Study1,F,6,84,Study,User,-,,Study/JOL,"Study Phase",1636,,,-1,-1,,,,1
5ce2eaf7a74ff200195bf799,c8r08wqi11,Nick_Dissertation_EX1,1,74,2020-06-02T09:18:50-07:00,2.7860200405121,1,versionA_stim.csv,READVersionA.csv,"Read Version A","Dissertation, read only version A",GEOLOGY,ROCK,Study1,F,19,82,Study,User,-,,Study/JOL,"Study Phase",2491,,,-1,-1,,,,1
5ce2eaf7a74ff200195bf799,c8r08wqi11,Nick_Dissertation_EX1,1,75,2020-06-02T09:18:53-07:00,3.4781181812286,1,versionA_stim.csv,READVersionA.csv,"Read Version A","Dissertation, read only version A",PAST,FUTURE,Study1,S,61,16,Study,User,-,,Study/JOL,"Study Phase",3186,,,-1,-1,,,,1
5ce2eaf7a74ff200195bf799,c8r08wqi11,Nick_Dissertation_EX1,1,76,2020-06-02T09:18:55-07:00,1.699404001236,1,versionA_stim.csv,READVersionA.csv,"Read Version A","Dissertation, read only version A",TAKE,SEIZE,Study1,B,29,14,Study,User,-,,Study/JOL,"Study Phase",1386,,,-1,-1,,,,1
5ce2eaf7a74ff200195bf799,c8r08wqi11,Nick_Dissertation_EX1,1,77,2020-06-02T09:18:57-07:00,1.6758477687836,1,versionA_stim.csv,READVersionA.csv,"Read Version A","Dissertation, read only version A",ARCHITECTURE,DESIGN,Study1,S,51,36,Study,User,-,,Study/JOL,"Study Phase",1367,,,-1,-1,,,,1
5ce2eaf7a74ff200195bf799,c8r08wqi11,Nick_Dissertation_EX1,1,78,2020-06-02T09:18:58-07:00,1.5709731578827,1,versionA_stim.csv,READVersionA.csv,"Read Version A","Dissertation, read only version A",SUGAR,RIDDLE,Study1,U,81,86,Study,User,-,,Study/JOL,"Study Phase",1272,,,-1,-1,,,,1
5ce2eaf7a74ff200195bf799,c8r08wqi11,Nick_Dissertation_EX1,1,79,2020-06-02T09:19:00-07:00,1.9661009311676,1,versionA_stim.csv,READVersionA.csv,"Read Version A","Dissertation, read only version A",BRIDGE,WATER,Study1,F,18,77,Study,User,-,,Study/JOL,"Study Phase",1669,,,-1,-1,,,,1
5ce2eaf7a74ff200195bf799,c8r08wqi11,Nick_Dissertation_EX1,1,80,2020-06-02T09:19:02-07:00,1.5346629619598,1,versionA_stim.csv,READVersionA.csv,"Read Version A","Dissertation, read only version A",BABY,CHILD,Study1,S,64,85,Study,User,-,,Study/JOL,"Study Phase",1248,,,-1,-1,,,,1
5ce2eaf7a74ff200195bf799,c8r08wqi11,Nick_Dissertation_EX1,1,81,2020-06-02T09:19:04-07:00,2.0924990177155,1,versionA_stim.csv,READVersionA.csv,"Read Version A","Dissertation, read only version A",LIFT,WOMAN,Study1,U,69,67,Study,User,-,,Study/JOL,"Study Phase",1811,,,-1,-1,,,,1
5ce2eaf7a74ff200195bf799,c8r08wqi11,Nick_Dissertation_EX1,1,82,2020-06-02T09:19:06-07:00,1.8356430530548,1,versionA_stim.csv,READVersionA.csv,"Read Version A","Dissertation, read only version A",MACHINE,POSITION,Study1,U,76,62,Study,User,-,,Study/JOL,"Study Phase",1543,,,-1,-1,,,,1
5ce2eaf7a74ff200195bf799,c8r08wqi11,Nick_Dissertation_EX1,1,83,2020-06-02T09:19:08-07:00,2.0126190185547,1,versionA_stim.csv,READVersionA.csv,"Read Version A","Dissertation, read only version A",SOON,BELT,Study1,U,70,44,Study,User,-,,Study/JOL,"Study Phase",1723,,,-1,-1,,,,1
5ce2eaf7a74ff200195bf799,c8r08wqi11,Nick_Dissertation_EX1,1,84,2020-06-02T09:19:11-07:00,2.9407150745392,1,versionA_stim.csv,READVersionA.csv,"Read Version A","Dissertation, read only version A",FIRE,BLAZE,Study1,B,45,53,Study,User,-,,Study/JOL,"Study Phase",2661,,,-1,-1,,,,1
5ce2eaf7a74ff200195bf799,c8r08wqi11,Nick_Dissertation_EX1,1,85,2020-06-02T09:19:15-07:00,4.4493110179901,1,versionA_stim.csv,READVersionA.csv,"Read Version A","Dissertation, read only version A",HERD,COW,Study1,F,22,75,Study,User,-,,Study/JOL,"Study Phase",4141,,,-1,-1,,,,1
5ce2eaf7a74ff200195bf799,c8r08wqi11,Nick_Dissertation_EX1,1,86,2020-06-02T09:19:18-07:00,3.207407951355,1,versionA_stim.csv,READVersionA.csv,"Read Version A","Dissertation, read only version A",HORNET,STING,Study1,F,11,61,Study,User,-,,Study/JOL,"Study Phase",2924,,,-1,-1,,,,1
5ce2eaf7a74ff200195bf799,c8r08wqi11,Nick_Dissertation_EX1,1,87,2020-06-02T09:19:22-07:00,3.4001979827881,1,versionA_stim.csv,READVersionA.csv,"Read Version A","Dissertation, read only version A",GEESE,GOOSE,BUFFER2,Buffer,86,88,Study,User,-,,Study/JOL,BUFFER2,3088,,,-1,-1,,,,1
5ce2eaf7a74ff200195bf799,c8r08wqi11,Nick_Dissertation_EX1,1,88,2020-06-02T09:19:27-07:00,5.4082520008087,1,versionA_stim.csv,READVersionA.csv,"Read Version A","Dissertation, read only version A",MOON,SPACE,BUFFER2,Buffer,89,89,Study,User,-,,Study/JOL,BUFFER2,5092,,,-1,-1,,,,1
5ce2eaf7a74ff200195bf799,c8r08wqi11,Nick_Dissertation_EX1,1,89,2020-06-02T09:19:32-07:00,4.2770228385925,1,versionA_stim.csv,READVersionA.csv,"Read Version A","Dissertation, read only version A",THING,STUFF,BUFFER2,Buffer,90,91,Study,User,-,,Study/JOL,BUFFER2,2979,,,-1,-1,,,,1
5ce2eaf7a74ff200195bf799,c8r08wqi11,Nick_Dissertation_EX1,1,90,2020-06-02T09:19:35-07:00,3.4808812141418,1,versionA_stim.csv,READVersionA.csv,"Read Version A","Dissertation, read only version A",MALT,CHOCOLATE,BUFFER2,Buffer,88,90,Study,User,-,,Study/JOL,BUFFER2,2030,,,-1,-1,,,,1
5ce2eaf7a74ff200195bf799,c8r08wqi11,Nick_Dissertation_EX1,1,91,2020-06-02T09:19:38-07:00,2.5025579929352,1,versionA_stim.csv,READVersionA.csv,"Read Version A","Dissertation, read only version A",SHERRIF,POLICE,BUFFER2,Buffer,87,87,Study,User,-,,Study/JOL,BUFFER2,2200,,,-1,-1,,,,1
5ce2eaf7a74ff200195bf799,c8r08wqi11,Nick_Dissertation_EX1,1,92,2020-06-02T09:19:42-07:00,4.177848815918,1,versionA_stim.csv,READVersionA.csv,"Read Version A","Dissertation, read only version A",,,,,,0,Instruct,User,-,"You have completed this section. Please press Enter.",Filler_Instruction,Instruct2,3745,,,-1,-1,,,,1
5ce2eaf7a74ff200195bf799,c8r08wqi11,Nick_Dissertation_EX1,1,93,2020-06-02T09:21:42-07:00,120.35789418221,1,versionA_stim.csv,READVersionA.csv,"Read Version A","Dissertation, read only version A",,,,,,0,FreeRecall,120,120,"Please list the 50 US states in alphabetical order. The task will automatically advance to the next screen after two minutes.",,Filler1,120002,"Alabama Alaska Arkansas California Colorado Florida Hawaii Kansas Maryland Nevada North Carolina Ohio Oregon South Carolina Tennessee Washington",0,13591,115915,0,0,,1
5ce2eaf7a74ff200195bf799,c8r08wqi11,Nick_Dissertation_EX1,1,94,2020-06-02T09:21:55-07:00,13.04616689682,1,versionA_stim.csv,READVersionA.csv,"Read Version A","Dissertation, read only version A",,,,,,0,Instruct,-,10,"You will now be presented with the first word from each of the previously studied item pairs. Please type the missing word. If you do not know the word, you may guess or press Enter to skip forward to the next pair.",,Instruct3,12610,,,-1,-1,,,,1
5ce2eaf7a74ff200195bf799,c8r08wqi11,Nick_Dissertation_EX1,1,95,2020-06-02T09:22:11-07:00,16.048059940338,1,versionA_stim.csv,READVersionA.csv,"Read Version A","Dissertation, read only version A",ALLOW,TUCK,Study1,U,78,73,Test,User,-,,Recall,Recall1,15600,PASS,0,11427,13121,0,0,,1
5ce2eaf7a74ff200195bf799,c8r08wqi11,Nick_Dissertation_EX1,1,96,2020-06-02T09:22:23-07:00,11.742187976837,1,versionA_stim.csv,READVersionA.csv,"Read Version A","Dissertation, read only version A",FIRE,BLAZE,Study1,B,45,53,Test,User,-,,Recall,Recall1,11304,Hot,0,10823,11136,0,0,,1
5ce2eaf7a74ff200195bf799,c8r08wqi11,Nick_Dissertation_EX1,1,97,2020-06-02T09:22:32-07:00,9.3766131401062,1,versionA_stim.csv,READVersionA.csv,"Read Version A","Dissertation, read only version A",ART,LION,Study1,U,79,47,Test,User,-,,Recall,Recall1,8957,Paint,44.444444444444,8063,8586,0,0,,1
5ce2eaf7a74ff200195bf799,c8r08wqi11,Nick_Dissertation_EX1,1,98,2020-06-02T09:22:35-07:00,2.8191108703613,1,versionA_stim.csv,READVersionA.csv,"Read Version A","Dissertation, read only version A",HORNET,STING,Study1,F,11,61,Test,User,-,,Recall,Recall1,2434,STING,100,1479,2131,1,1,,1
5ce2eaf7a74ff200195bf799,c8r08wqi11,Nick_Dissertation_EX1,1,99,2020-06-02T09:22:52-07:00,17.379192113876,1,versionA_stim.csv,READVersionA.csv,"Read Version A","Dissertation, read only version A",ARCHITECTURE,DESIGN,Study1,S,51,36,Test,User,-,,Recall,Recall1,17046,PLAN,20,16389,16785,0,0,,1
5ce2eaf7a74ff200195bf799,c8r08wqi11,Nick_Dissertation_EX1,1,100,2020-06-02T09:22:58-07:00,5.0307250022888,1,versionA_stim.csv,READVersionA.csv,"Read Version A","Dissertation, read only version A",DRINK,SIP,Study1,B,27,10,Test,User,-,,Recall,Recall1,4625,WATER,0,3784,4340,0,0,,1
5ce2eaf7a74ff200195bf799,c8r08wqi11,Nick_Dissertation_EX1,1,101,2020-06-02T09:23:01-07:00,3.1947999000549,1,versionA_stim.csv,READVersionA.csv,"Read Version A","Dissertation, read only version A",ARTERY,BRONZE,Study1,U,74,37,Test,User,-,,Recall,Recall1,2904,GOLD,20,2229,2553,0,0,,1
5ce2eaf7a74ff200195bf799,c8r08wqi11,Nick_Dissertation_EX1,1,102,2020-06-02T09:23:03-07:00,1.8872320652008,1,versionA_stim.csv,READVersionA.csv,"Read Version A","Dissertation, read only version A",CREDIT,CARD,Study1,F,23,21,Test,User,-,,Recall,Recall1,1587,CARD,100,929,1369,1,1,,1
5ce2eaf7a74ff200195bf799,c8r08wqi11,Nick_Dissertation_EX1,1,103,2020-06-02T09:23:39-07:00,36.374310016632,1,versionA_stim.csv,READVersionA.csv,"Read Version A","Dissertation, read only version A",TAKE,SEIZE,Study1,B,29,14,Test,User,-,,Recall,Recall1,36052,SEIZE,100,33796,35595,1,1,,1
5ce2eaf7a74ff200195bf799,c8r08wqi11,Nick_Dissertation_EX1,1,104,2020-06-02T09:23:45-07:00,5.9181230068207,1,versionA_stim.csv,READVersionA.csv,"Read Version A","Dissertation, read only version A",DIETARY,SACKING,Study1,U,67,39,Test,User,-,,Recall,Recall1,5604,AID,40,5085,5285,0,0,,1
5ce2eaf7a74ff200195bf799,c8r08wqi11,Nick_Dissertation_EX1,1,105,2020-06-02T09:23:51-07:00,6.0463869571686,1,versionA_stim.csv,READVersionA.csv,"Read Version A","Dissertation, read only version A",BLOW,WIND,Study1,S,55,32,Test,User,-,,Recall,Recall1,5748,UP,0,5238,5458,0,0,,1
5ce2eaf7a74ff200195bf799,c8r08wqi11,Nick_Dissertation_EX1,1,106,2020-06-02T09:23:54-07:00,2.9912950992584,1,versionA_stim.csv,READVersionA.csv,"Read Version A","Dissertation, read only version A",SMELL,STENCH,Study1,B,42,45,Test,User,-,,Recall,Recall1,2687,NOSE,20,1788,2432,0,0,,1
5ce2eaf7a74ff200195bf799,c8r08wqi11,Nick_Dissertation_EX1,1,107,2020-06-02T09:24:00-07:00,6.2792448997498,1,versionA_stim.csv,READVersionA.csv,"Read Version A","Dissertation, read only version A",BALL,RACKET,Study1,B,38,20,Test,User,-,,Recall,Recall1,5962,SPORT,36.363636363636,5029,5645,0,0,,1
5ce2eaf7a74ff200195bf799,c8r08wqi11,Nick_Dissertation_EX1,1,108,2020-06-02T09:24:02-07:00,1.755439043045,1,versionA_stim.csv,READVersionA.csv,"Read Version A","Dissertation, read only version A",DUE,ASSIGNMENT,Study1,S,46,74,Test,User,-,,Recall,Recall1,1460,DATE,28.571428571429,895,1215,0,0,,1
5ce2eaf7a74ff200195bf799,c8r08wqi11,Nick_Dissertation_EX1,1,109,2020-06-02T09:24:05-07:00,2.5597169399261,1,versionA_stim.csv,READVersionA.csv,"Read Version A","Dissertation, read only version A",CHISEL,HAMMER,Study1,F,9,12,Test,User,-,,Recall,Recall1,2260,ART,44.444444444444,1726,2016,0,0,,1
5ce2eaf7a74ff200195bf799,c8r08wqi11,Nick_Dissertation_EX1,1,110,2020-06-02T09:24:13-07:00,8.1365220546722,1,versionA_stim.csv,READVersionA.csv,"Read Version A","Dissertation, read only version A",VALLEY,ADD,Study1,U,82,60,Test,User,-,,Recall,Recall1,7756,FIELD,25,6865,7297,0,0,,1
5ce2eaf7a74ff200195bf799,c8r08wqi11,Nick_Dissertation_EX1,1,111,2020-06-02T09:24:15-07:00,2.1636960506439,1,versionA_stim.csv,READVersionA.csv,"Read Version A","Dissertation, read only version A",BEGIN,END,Study1,S,54,83,Test,User,-,,Recall,Recall1,1839,END,100,1436,1596,1,1,,1
5ce2eaf7a74ff200195bf799,c8r08wqi11,Nick_Dissertation_EX1,1,112,2020-06-02T09:24:18-07:00,3.5406718254089,1,versionA_stim.csv,READVersionA.csv,"Read Version A","Dissertation, read only version A",FULL,ENOUGH,Study1,B,26,28,Test,User,-,,Recall,Recall1,3177,EMPTY,18.181818181818,2483,2935,0,0,,1
5ce2eaf7a74ff200195bf799,c8r08wqi11,Nick_Dissertation_EX1,1,113,2020-06-02T09:24:22-07:00,3.848197221756,1,versionA_stim.csv,READVersionA.csv,"Read Version A","Dissertation, read only version A",HERD,COW,Study1,F,22,75,Test,User,-,,Recall,Recall1,3536,COW,100,2970,3159,1,1,,1
5ce2eaf7a74ff200195bf799,c8r08wqi11,Nick_Dissertation_EX1,1,114,2020-06-02T09:24:31-07:00,8.5369639396667,1,versionA_stim.csv,READVersionA.csv,"Read Version A","Dissertation, read only version A",BUG,WASP,Study1,B,32,66,Test,User,-,,Recall,Recall1,8244,BITE,0,7692,8004,0,0,,1
5ce2eaf7a74ff200195bf799,c8r08wqi11,Nick_Dissertation_EX1,1,115,2020-06-02T09:24:35-07:00,4.1796209812164,1,versionA_stim.csv,READVersionA.csv,"Read Version A","Dissertation, read only version A",CLOTHES,ATTIRE,Study1,B,43,11,Test,User,-,,Recall,Recall1,3846,STORE,54.545454545455,3183,3607,0,0,,1
5ce2eaf7a74ff200195bf799,c8r08wqi11,Nick_Dissertation_EX1,1,116,2020-06-02T09:24:43-07:00,8.2365698814392,1,versionA_stim.csv,READVersionA.csv,"Read Version A","Dissertation, read only version A",STRONG,ACCIDENT,Study1,U,80,33,Test,User,-,,Recall,Recall1,7930,HOLD,16.666666666667,7208,7684,0,0,,1
5ce2eaf7a74ff200195bf799,c8r08wqi11,Nick_Dissertation_EX1,1,117,2020-06-02T09:24:45-07:00,2.0651710033417,1,versionA_stim.csv,READVersionA.csv,"Read Version A","Dissertation, read only version A",GEOLOGY,ROCK,Study1,F,19,82,Test,User,-,,Recall,Recall1,1754,ROCK,100,1101,1417,1,1,,1
5ce2eaf7a74ff200195bf799,c8r08wqi11,Nick_Dissertation_EX1,1,118,2020-06-02T09:24:51-07:00,5.3546750545502,1,versionA_stim.csv,READVersionA.csv,"Read Version A","Dissertation, read only version A",HUNGER,FAMINE,Study1,B,40,81,Test,User,-,,Recall,Recall1,5054,PAIN,60,3692,4403,0,0,,1
5ce2eaf7a74ff200195bf799,c8r08wqi11,Nick_Dissertation_EX1,1,119,2020-06-02T09:24:56-07:00,4.9382400512695,1,versionA_stim.csv,READVersionA.csv,"Read Version A","Dissertation, read only version A",DELINQUENT,BAD,Study1,F,6,84,Test,User,-,,Recall,Recall1,4632,BOY,33.333333333333,4040,4356,0,0,,1
5ce2eaf7a74ff200195bf799,c8r08wqi11,Nick_Dissertation_EX1,1,120,2020-06-02T09:25:00-07:00,4.8407609462738,1,versionA_stim.csv,READVersionA.csv,"Read Version A","Dissertation, read only version A",BATHROOM,TOILET,Study1,S,58,27,Test,User,-,,Recall,Recall1,4535,KITCHEN,30.769230769231,3127,4251,0,0,,1
5ce2eaf7a74ff200195bf799,c8r08wqi11,Nick_Dissertation_EX1,1,121,2020-06-02T09:25:02-07:00,2.10294008255,1,versionA_stim.csv,READVersionA.csv,"Read Version A","Dissertation, read only version A",REVOLUTION,WAR,Study1,F,20,25,Test,User,-,,Recall,Recall1,1769,WAR,100,1226,1482,1,1,,1
5ce2eaf7a74ff200195bf799,c8r08wqi11,Nick_Dissertation_EX1,1,122,2020-06-02T09:25:05-07:00,2.3787488937378,1,versionA_stim.csv,READVersionA.csv,"Read Version A","Dissertation, read only version A",DUMP,WASTE,Study1,S,49,9,Test,User,-,,Recall,Recall1,2072,TRUCK,20,1118,1737,0,0,,1
5ce2eaf7a74ff200195bf799,c8r08wqi11,Nick_Dissertation_EX1,1,123,2020-06-02T09:25:07-07:00,1.9669950008392,1,versionA_stim.csv,READVersionA.csv,"Read Version A","Dissertation, read only version A",BRIDGE,WATER,Study1,F,18,77,Test,User,-,,Recall,Recall1,1666,WATER,100,1002,1450,1,1,,1
5ce2eaf7a74ff200195bf799,c8r08wqi11,Nick_Dissertation_EX1,1,124,2020-06-02T09:25:10-07:00,2.975191116333,1,versionA_stim.csv,READVersionA.csv,"Read Version A","Dissertation, read only version A",ROOT,PLANT,Study1,F,13,31,Test,User,-,,Recall,Recall1,2677,CELLAR,36.363636363636,1914,2439,0,0,,1
5ce2eaf7a74ff200195bf799,c8r08wqi11,Nick_Dissertation_EX1,1,125,2020-06-02T09:25:15-07:00,4.8465209007263,1,versionA_stim.csv,READVersionA.csv,"Read Version A","Dissertation, read only version A",BABY,CHILD,Study1,S,64,85,Test,User,-,,Recall,Recall1,4520,CLOTHES,33.333333333333,1854,4261,0,0,,1
5ce2eaf7a74ff200195bf799,c8r08wqi11,Nick_Dissertation_EX1,1,126,2020-06-02T09:25:18-07:00,3.8036711215973,1,versionA_stim.csv,READVersionA.csv,"Read Version A","Dissertation, read only version A",SLEEP,DROWSY,Study1,B,41,34,Test,User,-,,Recall,Recall1,3505,AID,22.222222222222,3061,3269,0,0,,1
5ce2eaf7a74ff200195bf799,c8r08wqi11,Nick_Dissertation_EX1,1,127,2020-06-02T09:25:21-07:00,2.3286349773407,1,versionA_stim.csv,READVersionA.csv,"Read Version A","Dissertation, read only version A",WINE,CHEESE,Study1,S,57,15,Test,User,-,,Recall,Recall1,2018,CHEESE,100,1064,1672,1,1,,1
5ce2eaf7a74ff200195bf799,c8r08wqi11,Nick_Dissertation_EX1,1,128,2020-06-02T09:25:26-07:00,5.1688029766083,1,versionA_stim.csv,READVersionA.csv,"Read Version A","Dissertation, read only version A",TRIAL,JURY,Study1,S,50,38,Test,User,-,,Recall,Recall1,4836,LAWYER,20,2800,4472,0,0,,1
5ce2eaf7a74ff200195bf799,c8r08wqi11,Nick_Dissertation_EX1,1,129,2020-06-02T09:25:28-07:00,1.8373739719391,1,versionA_stim.csv,READVersionA.csv,"Read Version A","Dissertation, read only version A",TUNA,FISH,Study1,F,25,7,Test,User,-,,Recall,Recall1,1530,FISH,100,883,1203,1,1,,1
5ce2eaf7a74ff200195bf799,c8r08wqi11,Nick_Dissertation_EX1,1,130,2020-06-02T09:25:33-07:00,5.0145869255066,1,versionA_stim.csv,READVersionA.csv,"Read Version A","Dissertation, read only version A",LAW,ATTORNEY,Study1,B,34,58,Test,User,-,,Recall,Recall1,4721,CLERK,15.384615384615,3834,4410,0,0,,1
5ce2eaf7a74ff200195bf799,c8r08wqi11,Nick_Dissertation_EX1,1,131,2020-06-02T09:25:46-07:00,12.990790128708,1,versionA_stim.csv,READVersionA.csv,"Read Version A","Dissertation, read only version A",WAY,OUT,Study1,F,16,70,Test,User,-,,Recall,Recall1,12664,GONE,28.571428571429,10935,12349,0,0,,1
5ce2eaf7a74ff200195bf799,c8r08wqi11,Nick_Dissertation_EX1,1,132,2020-06-02T09:25:49-07:00,3.5103449821472,1,versionA_stim.csv,READVersionA.csv,"Read Version A","Dissertation, read only version A",FIX,HAND,Study1,U,75,49,Test,User,-,,Recall,Recall1,3124,HAND,100,1591,2790,1,1,,1
5ce2eaf7a74ff200195bf799,c8r08wqi11,Nick_Dissertation_EX1,1,133,2020-06-02T09:25:52-07:00,2.9196269512177,1,versionA_stim.csv,READVersionA.csv,"Read Version A","Dissertation, read only version A",PAST,FUTURE,Study1,S,61,16,Test,User,-,,Recall,Recall1,2612,PRESENT,30.769230769231,1623,2323,0,0,,1
5ce2eaf7a74ff200195bf799,c8r08wqi11,Nick_Dissertation_EX1,1,134,2020-06-02T09:25:56-07:00,3.6072371006012,1,versionA_stim.csv,READVersionA.csv,"Read Version A","Dissertation, read only version A",SENTENCE,WORD,Study1,B,31,8,Test,User,-,,Recall,Recall1,3303,END,28.571428571429,2433,3007,0,0,,1
5ce2eaf7a74ff200195bf799,c8r08wqi11,Nick_Dissertation_EX1,1,135,2020-06-02T09:25:59-07:00,3.4211897850037,1,versionA_stim.csv,READVersionA.csv,"Read Version A","Dissertation, read only version A",DISCUSSION,TALK,Study1,F,21,72,Test,User,-,,Recall,Recall1,3119,TALK,100,2357,2697,1,1,,1
5ce2eaf7a74ff200195bf799,c8r08wqi11,Nick_Dissertation_EX1,1,136,2020-06-02T09:26:09-07:00,9.296462059021,1,versionA_stim.csv,READVersionA.csv,"Read Version A","Dissertation, read only version A",GRILL,BAR,Study1,S,52,30,Test,User,-,,Recall,Recall1,8999,MEAT,28.571428571429,8391,8711,0,0,,1
5ce2eaf7a74ff200195bf799,c8r08wqi11,Nick_Dissertation_EX1,1,137,2020-06-02T09:26:12-07:00,3.8075971603394,1,versionA_stim.csv,READVersionA.csv,"Read Version A","Dissertation, read only version A",LETTUCE,SALAD,Study1,S,59,24,Test,User,-,,Recall,Recall1,3504,GREEN,0,2558,3042,0,0,,1
5ce2eaf7a74ff200195bf799,c8r08wqi11,Nick_Dissertation_EX1,1,138,2020-06-02T09:26:25-07:00,12.389920949936,1,versionA_stim.csv,READVersionA.csv,"Read Version A","Dissertation, read only version A",HEIGHT,GROWTH,Study1,B,30,55,Test,User,-,,Recall,Recall1,12050,LIFT,20,11093,11676,0,0,,1
5ce2eaf7a74ff200195bf799,c8r08wqi11,Nick_Dissertation_EX1,1,139,2020-06-02T09:26:30-07:00,5.211776971817,1,versionA_stim.csv,READVersionA.csv,"Read Version A","Dissertation, read only version A",MEANING,DEFINITION,Study1,S,62,69,Test,User,-,,Recall,Recall1,4800,DEFINITION,100,2648,4471,1,1,,1
5ce2eaf7a74ff200195bf799,c8r08wqi11,Nick_Dissertation_EX1,1,140,2020-06-02T09:26:34-07:00,4.1874170303345,1,versionA_stim.csv,READVersionA.csv,"Read Version A","Dissertation, read only version A",PAW,DOG,Study1,F,15,22,Test,User,-,,Recall,Recall1,3844,DOG,100,3218,3478,1,1,,1
5ce2eaf7a74ff200195bf799,c8r08wqi11,Nick_Dissertation_EX1,1,141,2020-06-02T09:26:40-07:00,6.3603689670563,1,versionA_stim.csv,READVersionA.csv,"Read Version A","Dissertation, read only version A",GREAT,FANTASTIC,Study1,B,35,78,Test,User,-,,Recall,Recall1,6060,WALL,15.384615384615,5381,5769,0,0,,1
5ce2eaf7a74ff200195bf799,c8r08wqi11,Nick_Dissertation_EX1,1,142,2020-06-02T09:26:47-07:00,6.2951300144196,1,versionA_stim.csv,READVersionA.csv,"Read Version A","Dissertation, read only version A",SHOE,FOOT,Study1,S,60,52,Test,User,-,,Recall,Recall1,5879,REPAIR,0,5100,5575,0,0,,1
5ce2eaf7a74ff200195bf799,c8r08wqi11,Nick_Dissertation_EX1,1,143,2020-06-02T09:26:49-07:00,2.4869358539581,1,versionA_stim.csv,READVersionA.csv,"Read Version A","Dissertation, read only version A",PLANE,PILOT,Study1,B,44,48,Test,User,-,,Recall,Recall1,2183,PILOT,100,1272,1880,1,1,,1
5ce2eaf7a74ff200195bf799,c8r08wqi11,Nick_Dissertation_EX1,1,144,2020-06-02T09:27:08-07:00,19.050853013992,1,versionA_stim.csv,READVersionA.csv,"Read Version A","Dissertation, read only version A",HYGIENE,CLEAN,Study1,F,17,19,Test,User,-,,Recall,Recall1,18710,TEETH,20,17809,18354,0,0,,1
5ce2eaf7a74ff200195bf799,c8r08wqi11,Nick_Dissertation_EX1,1,145,2020-06-02T09:27:13-07:00,4.5997371673584,1,versionA_stim.csv,READVersionA.csv,"Read Version A","Dissertation, read only version A",LIFT,WOMAN,Study1,U,69,67,Test,User,-,,Recall,Recall1,4217,UP,0,3499,3711,0,0,,1
5ce2eaf7a74ff200195bf799,c8r08wqi11,Nick_Dissertation_EX1,1,146,2020-06-02T09:27:17-07:00,4.5287568569183,1,versionA_stim.csv,READVersionA.csv,"Read Version A","Dissertation, read only version A",CIRCLE,ROUND,Study1,S,65,18,Test,User,-,,Recall,Recall1,4239,SQUARE,18.181818181818,3031,3945,0,0,,1
5ce2eaf7a74ff200195bf799,c8r08wqi11,Nick_Dissertation_EX1,1,147,2020-06-02T09:27:22-07:00,4.2908811569214,1,versionA_stim.csv,READVersionA.csv,"Read Version A","Dissertation, read only version A",WAGE,MONEY,Study1,F,8,64,Test,User,-,,Recall,Recall1,2992,PAY,25,2201,2666,0,0,,1
5ce2eaf7a74ff200195bf799,c8r08wqi11,Nick_Dissertation_EX1,1,148,2020-06-02T09:27:24-07:00,2.0775668621063,1,versionA_stim.csv,READVersionA.csv,"Read Version A","Dissertation, read only version A",POP,SODA,Study1,S,56,41,Test,User,-,,Recall,Recall1,1738,SODA,100,1073,1440,1,1,,1
5ce2eaf7a74ff200195bf799,c8r08wqi11,Nick_Dissertation_EX1,1,149,2020-06-02T09:27:27-07:00,2.7579131126404,1,versionA_stim.csv,READVersionA.csv,"Read Version A","Dissertation, read only version A",KEY,LATCH,Study1,B,36,23,Test,User,-,,Recall,Recall1,2452,LOCK,44.444444444444,1808,2139,0,0,,1
5ce2eaf7a74ff200195bf799,c8r08wqi11,Nick_Dissertation_EX1,1,150,2020-06-02T09:27:30-07:00,3.4581718444824,1,versionA_stim.csv,READVersionA.csv,"Read Version A","Dissertation, read only version A",CASH,WOULD,Study1,U,83,68,Test,User,-,,Recall,Recall1,3158,CHEQUE,18.181818181818,2259,2850,0,0,,1
5ce2eaf7a74ff200195bf799,c8r08wqi11,Nick_Dissertation_EX1,1,151,2020-06-02T09:27:35-07:00,4.6153771877289,1,versionA_stim.csv,READVersionA.csv,"Read Version A","Dissertation, read only version A",DARK,CAVE,Study1,B,28,29,Test,User,-,,Recall,Recall1,4315,FOREST,20,3477,3977,0,0,,1
5ce2eaf7a74ff200195bf799,c8r08wqi11,Nick_Dissertation_EX1,1,152,2020-06-02T09:27:43-07:00,8.0616118907928,1,versionA_stim.csv,READVersionA.csv,"Read Version A","Dissertation, read only version A",BITTER,COLD,Study1,F,12,57,Test,User,-,,Recall,Recall1,7753,ANGRY,0,6599,7411,0,0,,1
5ce2eaf7a74ff200195bf799,c8r08wqi11,Nick_Dissertation_EX1,1,153,2020-06-02T09:27:50-07:00,7.5803489685059,1,versionA_stim.csv,READVersionA.csv,"Read Version A","Dissertation, read only version A",DISCOVER,FLOOR,Study1,U,71,35,Test,User,-,,Recall,Recall1,7283,WEEKLY,18.181818181818,6230,7026,0,0,,1
5ce2eaf7a74ff200195bf799,c8r08wqi11,Nick_Dissertation_EX1,1,154,2020-06-02T09:27:52-07:00,2.1076009273529,1,versionA_stim.csv,READVersionA.csv,"Read Version A","Dissertation, read only version A",ORCHID,FLOWER,Study1,F,24,40,Test,User,-,,Recall,Recall1,1801,FLOWER,100,1084,1543,1,1,,1
5ce2eaf7a74ff200195bf799,c8r08wqi11,Nick_Dissertation_EX1,1,155,2020-06-02T09:27:55-07:00,2.3754241466522,1,versionA_stim.csv,READVersionA.csv,"Read Version A","Dissertation, read only version A",HIDE,SICK,Study1,U,84,42,Test,User,-,,Recall,Recall1,2061,SEEK,50,1241,1732,0,0,,1
5ce2eaf7a74ff200195bf799,c8r08wqi11,Nick_Dissertation_EX1,1,156,2020-06-02T09:27:57-07:00,2.2510180473328,1,versionA_stim.csv,READVersionA.csv,"Read Version A","Dissertation, read only version A",KING,VASE,Study1,U,85,50,Test,User,-,,Recall,Recall1,1952,QUEEN,22.222222222222,1193,1758,0,0,,1
5ce2eaf7a74ff200195bf799,c8r08wqi11,Nick_Dissertation_EX1,1,157,2020-06-02T09:28:00-07:00,3.0298898220062,1,versionA_stim.csv,READVersionA.csv,"Read Version A","Dissertation, read only version A",WORK,CHORE,Study1,B,39,59,Test,User,-,,Recall,Recall1,2704,WAGE,22.222222222222,2028,2376,0,0,,1
5ce2eaf7a74ff200195bf799,c8r08wqi11,Nick_Dissertation_EX1,1,158,2020-06-02T09:28:02-07:00,2.3907899856567,1,versionA_stim.csv,READVersionA.csv,"Read Version A","Dissertation, read only version A",HOT,CHILI,Study1,B,37,65,Test,User,-,,Recall,Recall1,2076,CHILI,100,1112,1535,1,1,,1
5ce2eaf7a74ff200195bf799,c8r08wqi11,Nick_Dissertation_EX1,1,159,2020-06-02T09:28:19-07:00,16.89254117012,1,versionA_stim.csv,READVersionA.csv,"Read Version A","Dissertation, read only version A",PUSHER,CLUTTER,Study1,U,66,17,Test,User,-,,Recall,Recall1,16550,PULLER,46.153846153846,15587,16331,0,0,,1
5ce2eaf7a74ff200195bf799,c8r08wqi11,Nick_Dissertation_EX1,1,160,2020-06-02T09:28:26-07:00,6.3590848445892,1,versionA_stim.csv,READVersionA.csv,"Read Version A","Dissertation, read only version A",DEBATE,SIGHT,Study1,U,73,43,Test,User,-,,Recall,Recall1,5922,DISCUSSION,26.666666666667,4626,5570,0,0,,1
5ce2eaf7a74ff200195bf799,c8r08wqi11,Nick_Dissertation_EX1,1,161,2020-06-02T09:28:32-07:00,6.7722451686859,1,versionA_stim.csv,READVersionA.csv,"Read Version A","Dissertation, read only version A",DEATH,BUSINESS,Study1,U,72,80,Test,User,-,,Recall,Recall1,5487,BUSINESS,100,2896,4020,1,1,,1
5ce2eaf7a74ff200195bf799,c8r08wqi11,Nick_Dissertation_EX1,1,162,2020-06-02T09:28:35-07:00,2.2354798316956,1,versionA_stim.csv,READVersionA.csv,"Read Version A","Dissertation, read only version A",SUGAR,RIDDLE,Study1,U,81,86,Test,User,-,,Recall,Recall1,1918,RUSH,20,1347,1606,0,0,,1
5ce2eaf7a74ff200195bf799,c8r08wqi11,Nick_Dissertation_EX1,1,163,2020-06-02T09:28:39-07:00,3.8281672000885,1,versionA_stim.csv,READVersionA.csv,"Read Version A","Dissertation, read only version A",SWAN,BIRD,Study1,F,14,46,Test,User,-,,Recall,Recall1,3534,BIRD,100,2625,3140,1,1,,1
5ce2eaf7a74ff200195bf799,c8r08wqi11,Nick_Dissertation_EX1,1,164,2020-06-02T09:28:45-07:00,6.540885925293,1,versionA_stim.csv,READVersionA.csv,"Read Version A","Dissertation, read only version A",NUMBER,AMOUNT,Study1,S,47,54,Test,User,-,,Recall,Recall1,6195,MATH,40,5184,5856,0,0,,1
5ce2eaf7a74ff200195bf799,c8r08wqi11,Nick_Dissertation_EX1,1,165,2020-06-02T09:28:47-07:00,2.2139608860016,1,versionA_stim.csv,READVersionA.csv,"Read Version A","Dissertation, read only version A",HONEY,BEE,Study1,S,63,51,Test,User,-,,Recall,Recall1,1886,BEE,100,1176,1480,1,1,,1
5ce2eaf7a74ff200195bf799,c8r08wqi11,Nick_Dissertation_EX1,1,166,2020-06-02T09:28:53-07:00,5.5570909976959,1,versionA_stim.csv,READVersionA.csv,"Read Version A","Dissertation, read only version A",DIGESTION,STOMACH,Study1,F,7,76,Test,User,-,,Recall,Recall1,5249,STOMACH,100,3841,4909,1,1,,1
5ce2eaf7a74ff200195bf799,c8r08wqi11,Nick_Dissertation_EX1,1,167,2020-06-02T09:28:58-07:00,5.3187301158905,1,versionA_stim.csv,READVersionA.csv,"Read Version A","Dissertation, read only version A",MACHINE,POSITION,Study1,U,76,62,Test,User,-,,Recall,Recall1,4989,FAX,0,3046,4394,0,0,,1
5ce2eaf7a74ff200195bf799,c8r08wqi11,Nick_Dissertation_EX1,1,168,2020-06-02T09:29:03-07:00,4.9446020126343,1,versionA_stim.csv,READVersionA.csv,"Read Version A","Dissertation, read only version A",EDITOR,NEWS,Study1,F,10,13,Test,User,-,,Recall,Recall1,4259,CHIEF,22.222222222222,1789,3850,0,0,,1
5ce2eaf7a74ff200195bf799,c8r08wqi11,Nick_Dissertation_EX1,1,169,2020-06-02T09:29:12-07:00,8.5085730552673,1,versionA_stim.csv,READVersionA.csv,"Read Version A","Dissertation, read only version A",PARK,HUNGRY,Study1,U,68,79,Test,User,-,,Recall,Recall1,7710,BIKE,0,7010,7434,0,0,,1
5ce2eaf7a74ff200195bf799,c8r08wqi11,Nick_Dissertation_EX1,1,170,2020-06-02T09:29:14-07:00,2.1831698417664,1,versionA_stim.csv,READVersionA.csv,"Read Version A","Dissertation, read only version A",KIDNEY,LIVER,Study1,S,53,71,Test,User,-,,Recall,Recall1,1841,LIVER,100,1194,1526,1,1,,1
5ce2eaf7a74ff200195bf799,c8r08wqi11,Nick_Dissertation_EX1,1,171,2020-06-02T09:29:17-07:00,3.0336410999298,1,versionA_stim.csv,READVersionA.csv,"Read Version A","Dissertation, read only version A",SOON,BELT,Study1,U,70,44,Test,User,-,,Recall,Recall1,2685,ENOUGH,20,1376,2344,0,0,,1
5ce2eaf7a74ff200195bf799,c8r08wqi11,Nick_Dissertation_EX1,1,172,2020-06-02T09:29:19-07:00,2.1904509067535,1,versionA_stim.csv,READVersionA.csv,"Read Version A","Dissertation, read only version A",HAPPY,CAR,Study1,U,77,63,Test,User,-,,Recall,Recall1,1878,ENDING,0,964,1516,0,0,,1
5ce2eaf7a74ff200195bf799,c8r08wqi11,Nick_Dissertation_EX1,1,173,2020-06-02T09:29:22-07:00,2.5390219688416,1,versionA_stim.csv,READVersionA.csv,"Read Version A","Dissertation, read only version A",MATH,DIVISION,Study1,B,33,26,Test,User,-,,Recall,Recall1,2224,NUMBER,14.285714285714,1266,1954,0,0,,1
5ce2eaf7a74ff200195bf799,c8r08wqi11,Nick_Dissertation_EX1,1,174,2020-06-02T09:29:33-07:00,11.606125116348,1,versionA_stim.csv,READVersionA.csv,"Read Version A","Dissertation, read only version A",LOCATION,SITE,Study1,S,48,56,Test,User,-,,Recall,Recall1,11266,MAP,0,10713,10923,0,0,,1
5ce2eaf7a74ff200195bf799,c8r08wqi11,Nick_Dissertation_EX1,1,175,2020-06-02T09:29:45-07:00,11.928847074509,1,versionA_stim.csv,READVersionA.csv,"Read Version A","Dissertation, read only version A",,,,,,0,Instruct,-,10,"You will now be presented with a new set of word pairs. Please study each pair. Remember that your memory will be tested! When finished, press Enter to move to the next pair.",Initial_Instruct,Instruct4,11582,,,-1,-1,,,,1
5ce2eaf7a74ff200195bf799,c8r08wqi11,Nick_Dissertation_EX1,1,176,2020-06-02T09:29:50-07:00,5.1637740135193,1,versionA_stim.csv,READVersionA.csv,"Read Version A","Dissertation, read only version A",NOODLE,STRING,BUFFER3,Buffer,92,94,Study,User,-,,Study/JOL,BUFFER3,4743,,,-1,-1,,,,1
5ce2eaf7a74ff200195bf799,c8r08wqi11,Nick_Dissertation_EX1,1,177,2020-06-02T09:29:55-07:00,5.1511218547821,1,versionA_stim.csv,READVersionA.csv,"Read Version A","Dissertation, read only version A",ICE,FROZEN,BUFFER3,Buffer,94,96,Study,User,-,,Study/JOL,BUFFER3,4841,,,-1,-1,,,,1
5ce2eaf7a74ff200195bf799,c8r08wqi11,Nick_Dissertation_EX1,1,178,2020-06-02T09:29:57-07:00,1.8079700469971,1,versionA_stim.csv,READVersionA.csv,"Read Version A","Dissertation, read only version A",CARROT,POTATO,BUFFER3,Buffer,91,95,Study,User,-,,Study/JOL,BUFFER3,1508,,,-1,-1,,,,1
5ce2eaf7a74ff200195bf799,c8r08wqi11,Nick_Dissertation_EX1,1,179,2020-06-02T09:30:00-07:00,2.502613067627,1,versionA_stim.csv,READVersionA.csv,"Read Version A","Dissertation, read only version A",SHRIMP,FISH,BUFFER3,Buffer,93,92,Study,User,-,,Study/JOL,BUFFER3,2205,,,-1,-1,,,,1
5ce2eaf7a74ff200195bf799,c8r08wqi11,Nick_Dissertation_EX1,1,180,2020-06-02T09:30:03-07:00,3.3729050159454,1,versionA_stim.csv,READVersionA.csv,"Read Version A","Dissertation, read only version A",CAMP,ADVENTURE,BUFFER3,Buffer,95,93,Study,User,-,,Study/JOL,BUFFER3,3064,,,-1,-1,,,,1
5ce2eaf7a74ff200195bf799,c8r08wqi11,Nick_Dissertation_EX1,1,181,2020-06-02T09:30:07-07:00,3.8270828723907,1,versionA_stim.csv,READVersionA.csv,"Read Version A","Dissertation, read only version A",MAZE,ELECTION,Study2,U,159,164,Study,User,-,,Study/JOL,"Study Phase2",3528,,,-1,-1,,,,1
5ce2eaf7a74ff200195bf799,c8r08wqi11,Nick_Dissertation_EX1,1,182,2020-06-02T09:30:12-07:00,4.6719810962677,1,versionA_stim.csv,READVersionA.csv,"Read Version A","Dissertation, read only version A",THREAD,THIMBLE,Study2,B,121,150,Study,User,-,,Study/JOL,"Study Phase2",4373,,,-1,-1,,,,1
5ce2eaf7a74ff200195bf799,c8r08wqi11,Nick_Dissertation_EX1,1,183,2020-06-02T09:30:15-07:00,3.666916847229,1,versionA_stim.csv,READVersionA.csv,"Read Version A","Dissertation, read only version A",CAKE,CLOTHES,Study2,U,166,159,Study,User,-,,Study/JOL,"Study Phase2",3371,,,-1,-1,,,,1
5ce2eaf7a74ff200195bf799,c8r08wqi11,Nick_Dissertation_EX1,1,184,2020-06-02T09:30:22-07:00,6.5491449832916,1,versionA_stim.csv,READVersionA.csv,"Read Version A","Dissertation, read only version A",STRETCH,CLOTH,Study2,U,157,144,Study,User,-,,Study/JOL,"Study Phase2",6237,,,-1,-1,,,,1
5ce2eaf7a74ff200195bf799,c8r08wqi11,Nick_Dissertation_EX1,1,185,2020-06-02T09:30:25-07:00,3.0024960041046,1,versionA_stim.csv,READVersionA.csv,"Read Version A","Dissertation, read only version A",WATER,DRINK,Study2,S,143,147,Study,User,-,,Study/JOL,"Study Phase2",2691,,,-1,-1,,,,1
5ce2eaf7a74ff200195bf799,c8r08wqi11,Nick_Dissertation_EX1,1,186,2020-06-02T09:30:30-07:00,4.6793811321259,1,versionA_stim.csv,READVersionA.csv,"Read Version A","Dissertation, read only version A",DEAD,COFFIN,Study2,B,128,103,Study,User,-,,Study/JOL,"Study Phase2",3368,,,-1,-1,,,,1
5ce2eaf7a74ff200195bf799,c8r08wqi11,Nick_Dissertation_EX1,1,187,2020-06-02T09:30:33-07:00,3.3105969429016,1,versionA_stim.csv,READVersionA.csv,"Read Version A","Dissertation, read only version A",SHOELACE,TIE,Study2,F,99,153,Study,User,-,,Study/JOL,"Study Phase2",2907,,,-1,-1,,,,1
5ce2eaf7a74ff200195bf799,c8r08wqi11,Nick_Dissertation_EX1,1,188,2020-06-02T09:30:37-07:00,4.4009530544281,1,versionA_stim.csv,READVersionA.csv,"Read Version A","Dissertation, read only version A",HONEST,TRUTHFUL,Study2,B,133,114,Study,User,-,,Study/JOL,"Study Phase2",3087,,,-1,-1,,,,1
5ce2eaf7a74ff200195bf799,c8r08wqi11,Nick_Dissertation_EX1,1,189,2020-06-02T09:30:40-07:00,3.2265710830688,1,versionA_stim.csv,READVersionA.csv,"Read Version A","Dissertation, read only version A",WRIST,BRACELET,Study2,S,140,176,Study,User,-,,Study/JOL,"Study Phase2",2928,,,-1,-1,,,,1
5ce2eaf7a74ff200195bf799,c8r08wqi11,Nick_Dissertation_EX1,1,190,2020-06-02T09:30:45-07:00,4.5147709846497,1,versionA_stim.csv,READVersionA.csv,"Read Version A","Dissertation, read only version A",ADJOURN,END,Study2,F,101,127,Study,User,-,,Study/JOL,"Study Phase2",4213,,,-1,-1,,,,1
5ce2eaf7a74ff200195bf799,c8r08wqi11,Nick_Dissertation_EX1,1,191,2020-06-02T09:30:48-07:00,2.9391767978668,1,versionA_stim.csv,READVersionA.csv,"Read Version A","Dissertation, read only version A",ALONE,LONELY,Study2,S,145,109,Study,User,-,,Study/JOL,"Study Phase2",2626,,,-1,-1,,,,1
5ce2eaf7a74ff200195bf799,c8r08wqi11,Nick_Dissertation_EX1,1,192,2020-06-02T09:30:51-07:00,2.6592411994934,1,versionA_stim.csv,READVersionA.csv,"Read Version A","Dissertation, read only version A",DINE,EAT,Study2,F,111,121,Study,User,-,,Study/JOL,"Study Phase2",2361,,,-1,-1,,,,1
5ce2eaf7a74ff200195bf799,c8r08wqi11,Nick_Dissertation_EX1,1,193,2020-06-02T09:30:55-07:00,3.9838259220123,1,versionA_stim.csv,READVersionA.csv,"Read Version A","Dissertation, read only version A",FRUIT,STRAWBERRY,Study2,B,124,122,Study,User,-,,Study/JOL,"Study Phase2",3687,,,-1,-1,,,,1
5ce2eaf7a74ff200195bf799,c8r08wqi11,Nick_Dissertation_EX1,1,194,2020-06-02T09:30:57-07:00,2.3258700370789,1,versionA_stim.csv,READVersionA.csv,"Read Version A","Dissertation, read only version A",BOTH,OUNCE,Study2,U,172,163,Study,User,-,,Study/JOL,"Study Phase2",2025,,,-1,-1,,,,1
5ce2eaf7a74ff200195bf799,c8r08wqi11,Nick_Dissertation_EX1,1,195,2020-06-02T09:31:00-07:00,2.9487528800964,1,versionA_stim.csv,READVersionA.csv,"Read Version A","Dissertation, read only version A",TRUTH,LIE,Study2,S,148,171,Study,User,-,,Study/JOL,"Study Phase2",2652,,,-1,-1,,,,1
5ce2eaf7a74ff200195bf799,c8r08wqi11,Nick_Dissertation_EX1,1,196,2020-06-02T09:31:03-07:00,2.8869190216064,1,versionA_stim.csv,READVersionA.csv,"Read Version A","Dissertation, read only version A",Shell,SHAKE,Study2,U,163,123,Study,User,-,,Study/JOL,"Study Phase2",2563,,,-1,-1,,,,1
5ce2eaf7a74ff200195bf799,c8r08wqi11,Nick_Dissertation_EX1,1,197,2020-06-02T09:31:06-07:00,3.3242449760437,1,versionA_stim.csv,READVersionA.csv,"Read Version A","Dissertation, read only version A",BASEBALL,LEAGUE,Study2,B,131,120,Study,User,-,,Study/JOL,"Study Phase2",3027,,,-1,-1,,,,1
5ce2eaf7a74ff200195bf799,c8r08wqi11,Nick_Dissertation_EX1,1,198,2020-06-02T09:31:08-07:00,2.4687211513519,1,versionA_stim.csv,READVersionA.csv,"Read Version A","Dissertation, read only version A",BEST,FAVORITE,Study2,B,125,145,Study,User,-,,Study/JOL,"Study Phase2",2143,,,-1,-1,,,,1
5ce2eaf7a74ff200195bf799,c8r08wqi11,Nick_Dissertation_EX1,1,199,2020-06-02T09:31:11-07:00,2.5776078701019,1,versionA_stim.csv,READVersionA.csv,"Read Version A","Dissertation, read only version A",LOAN,SIGN,Study2,U,171,149,Study,User,-,,Study/JOL,"Study Phase2",2266,,,-1,-1,,,,1
5ce2eaf7a74ff200195bf799,c8r08wqi11,Nick_Dissertation_EX1,1,200,2020-06-02T09:31:13-07:00,1.7963981628418,1,versionA_stim.csv,READVersionA.csv,"Read Version A","Dissertation, read only version A",STAR,ACTRESS,Study2,B,120,160,Study,User,-,,Study/JOL,"Study Phase2",1501,,,-1,-1,,,,1
5ce2eaf7a74ff200195bf799,c8r08wqi11,Nick_Dissertation_EX1,1,201,2020-06-02T09:31:15-07:00,2.2844789028168,1,versionA_stim.csv,READVersionA.csv,"Read Version A","Dissertation, read only version A",LOUD,NOISE,Study2,S,152,148,Study,User,-,,Study/JOL,"Study Phase2",1974,,,-1,-1,,,,1
5ce2eaf7a74ff200195bf799,c8r08wqi11,Nick_Dissertation_EX1,1,202,2020-06-02T09:31:17-07:00,1.7200720310211,1,versionA_stim.csv,READVersionA.csv,"Read Version A","Dissertation, read only version A",CHOP,CUT,Study2,F,107,156,Study,User,-,,Study/JOL,"Study Phase2",1409,,,-1,-1,,,,1
5ce2eaf7a74ff200195bf799,c8r08wqi11,Nick_Dissertation_EX1,1,203,2020-06-02T09:31:19-07:00,2.4571359157562,1,versionA_stim.csv,READVersionA.csv,"Read Version A","Dissertation, read only version A",PLANE,AIRCRAFT,Study2,B,129,107,Study,User,-,,Study/JOL,"Study Phase2",2129,,,-1,-1,,,,1
5ce2eaf7a74ff200195bf799,c8r08wqi11,Nick_Dissertation_EX1,1,204,2020-06-02T09:31:21-07:00,1.8925349712372,1,versionA_stim.csv,READVersionA.csv,"Read Version A","Dissertation, read only version A",CANDLE,WAX,Study2,S,139,111,Study,User,-,,Study/JOL,"Study Phase2",1571,,,-1,-1,,,,1
5ce2eaf7a74ff200195bf799,c8r08wqi11,Nick_Dissertation_EX1,1,205,2020-06-02T09:31:25-07:00,3.5491840839386,1,versionA_stim.csv,READVersionA.csv,"Read Version A","Dissertation, read only version A",CRACKLE,ABLE,Study2,U,162,143,Study,User,-,,Study/JOL,"Study Phase2",3236,,,-1,-1,,,,1
5ce2eaf7a74ff200195bf799,c8r08wqi11,Nick_Dissertation_EX1,1,206,2020-06-02T09:31:27-07:00,2.3934738636017,1,versionA_stim.csv,READVersionA.csv,"Read Version A","Dissertation, read only version A",CACTUS,PLANT,Study2,F,98,152,Study,User,-,,Study/JOL,"Study Phase2",2101,,,-1,-1,,,,1
5ce2eaf7a74ff200195bf799,c8r08wqi11,Nick_Dissertation_EX1,1,207,2020-06-02T09:31:29-07:00,1.935497045517,1,versionA_stim.csv,READVersionA.csv,"Read Version A","Dissertation, read only version A",CLUE,GAME,Study2,F,97,106,Study,User,-,,Study/JOL,"Study Phase2",1628,,,-1,-1,,,,1
5ce2eaf7a74ff200195bf799,c8r08wqi11,Nick_Dissertation_EX1,1,208,2020-06-02T09:31:32-07:00,2.4702639579773,1,versionA_stim.csv,READVersionA.csv,"Read Version A","Dissertation, read only version A",MAIN,SCAR,Study2,U,175,132,Study,User,-,,Study/JOL,"Study Phase2",2160,,,-1,-1,,,,1
5ce2eaf7a74ff200195bf799,c8r08wqi11,Nick_Dissertation_EX1,1,209,2020-06-02T09:31:34-07:00,2.0712201595306,1,versionA_stim.csv,READVersionA.csv,"Read Version A","Dissertation, read only version A",FURRY,DOG,Study2,F,102,128,Study,User,-,,Study/JOL,"Study Phase2",1747,,,-1,-1,,,,1
5ce2eaf7a74ff200195bf799,c8r08wqi11,Nick_Dissertation_EX1,1,210,2020-06-02T09:31:35-07:00,1.8248698711395,1,versionA_stim.csv,READVersionA.csv,"Read Version A","Dissertation, read only version A",TURN,FLIP,Study2,B,116,116,Study,User,-,,Study/JOL,"Study Phase2",1519,,,-1,-1,,,,1
5ce2eaf7a74ff200195bf799,c8r08wqi11,Nick_Dissertation_EX1,1,211,2020-06-02T09:31:38-07:00,2.8702239990234,1,versionA_stim.csv,READVersionA.csv,"Read Version A","Dissertation, read only version A",DOCUMENT,PAPER,Study2,F,109,99,Study,User,-,,Study/JOL,"Study Phase2",2560,,,-1,-1,,,,1
5ce2eaf7a74ff200195bf799,c8r08wqi11,Nick_Dissertation_EX1,1,212,2020-06-02T09:31:40-07:00,1.8559241294861,1,versionA_stim.csv,READVersionA.csv,"Read Version A","Dissertation, read only version A",FISH,SARDINE,Study2,B,130,175,Study,User,-,,Study/JOL,"Study Phase2",1550,,,-1,-1,,,,1
5ce2eaf7a74ff200195bf799,c8r08wqi11,Nick_Dissertation_EX1,1,213,2020-06-02T09:31:44-07:00,3.998379945755,1,versionA_stim.csv,READVersionA.csv,"Read Version A","Dissertation, read only version A",OWN,HAVE,Study2,S,153,115,Study,User,-,,Study/JOL,"Study Phase2",3691,,,-1,-1,,,,1
5ce2eaf7a74ff200195bf799,c8r08wqi11,Nick_Dissertation_EX1,1,214,2020-06-02T09:31:50-07:00,5.8923370838165,1,versionA_stim.csv,READVersionA.csv,"Read Version A","Dissertation, read only version A",FIGHT,BRAWL,Study2,B,135,166,Study,User,-,,Study/JOL,"Study Phase2",5577,,,-1,-1,,,,1
5ce2eaf7a74ff200195bf799,c8r08wqi11,Nick_Dissertation_EX1,1,215,2020-06-02T09:31:52-07:00,2.0426239967346,1,versionA_stim.csv,READVersionA.csv,"Read Version A","Dissertation, read only version A",MASON,JAR,Study2,S,138,125,Study,User,-,,Study/JOL,"Study Phase2",1743,,,-1,-1,,,,1
5ce2eaf7a74ff200195bf799,c8r08wqi11,Nick_Dissertation_EX1,1,216,2020-06-02T09:31:55-07:00,3.2162699699402,1,versionA_stim.csv,READVersionA.csv,"Read Version A","Dissertation, read only version A",MIRROR,CHILDREN,Study2,U,174,173,Study,User,-,,Study/JOL,"Study Phase2",2908,,,-1,-1,,,,1
5ce2eaf7a74ff200195bf799,c8r08wqi11,Nick_Dissertation_EX1,1,217,2020-06-02T09:31:58-07:00,2.4307780265808,1,versionA_stim.csv,READVersionA.csv,"Read Version A","Dissertation, read only version A",AFFECTION,LOVE,Study2,F,115,140,Study,User,-,,Study/JOL,"Study Phase2",2114,,,-1,-1,,,,1
5ce2eaf7a74ff200195bf799,c8r08wqi11,Nick_Dissertation_EX1,1,218,2020-06-02T09:32:01-07:00,3.1701099872589,1,versionA_stim.csv,READVersionA.csv,"Read Version A","Dissertation, read only version A",LEASE,TOIL,Study2,U,170,141,Study,User,-,,Study/JOL,"Study Phase2",2860,,,-1,-1,,,,1
5ce2eaf7a74ff200195bf799,c8r08wqi11,Nick_Dissertation_EX1,1,219,2020-06-02T09:32:03-07:00,2.3298740386963,1,versionA_stim.csv,READVersionA.csv,"Read Version A","Dissertation, read only version A",RIGHTS,EQUAL,Study2,S,137,172,Study,User,-,,Study/JOL,"Study Phase2",2025,,,-1,-1,,,,1
5ce2eaf7a74ff200195bf799,c8r08wqi11,Nick_Dissertation_EX1,1,220,2020-06-02T09:32:06-07:00,2.7459559440613,1,versionA_stim.csv,READVersionA.csv,"Read Version A","Dissertation, read only version A",CHILL,COLD,Study2,F,114,138,Study,User,-,,Study/JOL,"Study Phase2",2440,,,-1,-1,,,,1
5ce2eaf7a74ff200195bf799,c8r08wqi11,Nick_Dissertation_EX1,1,221,2020-06-02T09:32:08-07:00,2.2381708621979,1,versionA_stim.csv,READVersionA.csv,"Read Version A","Dissertation, read only version A",GLASS,BREAKABLE,Study2,B,127,130,Study,User,-,,Study/JOL,"Study Phase2",1947,,,-1,-1,,,,1
5ce2eaf7a74ff200195bf799,c8r08wqi11,Nick_Dissertation_EX1,1,222,2020-06-02T09:32:12-07:00,3.6372790336609,1,versionA_stim.csv,READVersionA.csv,"Read Version A","Dissertation, read only version A",KEYS,JOKE,Study2,U,165,139,Study,User,-,,Study/JOL,"Study Phase2",3344,,,-1,-1,,,,1
5ce2eaf7a74ff200195bf799,c8r08wqi11,Nick_Dissertation_EX1,1,223,2020-06-02T09:32:14-07:00,2.5786030292511,1,versionA_stim.csv,READVersionA.csv,"Read Version A","Dissertation, read only version A",POP,BALLOON,Study2,B,123,131,Study,User,-,,Study/JOL,"Study Phase2",2237,,,-1,-1,,,,1
5ce2eaf7a74ff200195bf799,c8r08wqi11,Nick_Dissertation_EX1,1,224,2020-06-02T09:32:18-07:00,3.5471279621124,1,versionA_stim.csv,READVersionA.csv,"Read Version A","Dissertation, read only version A",JUSTICE,MAROON,Study2,U,156,133,Study,User,-,,Study/JOL,"Study Phase2",3227,,,-1,-1,,,,1
5ce2eaf7a74ff200195bf799,c8r08wqi11,Nick_Dissertation_EX1,1,225,2020-06-02T09:32:21-07:00,3.3922431468964,1,versionA_stim.csv,READVersionA.csv,"Read Version A","Dissertation, read only version A",EXTENSION,LONG,Study2,F,96,135,Study,User,-,,Study/JOL,"Study Phase2",3057,,,-1,-1,,,,1
5ce2eaf7a74ff200195bf799,c8r08wqi11,Nick_Dissertation_EX1,1,226,2020-06-02T09:32:24-07:00,2.4440078735352,1,versionA_stim.csv,READVersionA.csv,"Read Version A","Dissertation, read only version A",MONEY,BANKER,Study2,B,132,134,Study,User,-,,Study/JOL,"Study Phase2",2119,,,-1,-1,,,,1
5ce2eaf7a74ff200195bf799,c8r08wqi11,Nick_Dissertation_EX1,1,227,2020-06-02T09:32:27-07:00,2.7912709712982,1,versionA_stim.csv,READVersionA.csv,"Read Version A","Dissertation, read only version A",MEAT,OBTAIN,Study2,U,161,142,Study,User,-,,Study/JOL,"Study Phase2",2491,,,-1,-1,,,,1
5ce2eaf7a74ff200195bf799,c8r08wqi11,Nick_Dissertation_EX1,1,228,2020-06-02T09:32:29-07:00,2.3802909851074,1,versionA_stim.csv,READVersionA.csv,"Read Version A","Dissertation, read only version A",INCENSE,SMELL,Study2,F,110,165,Study,User,-,,Study/JOL,"Study Phase2",2063,,,-1,-1,,,,1
5ce2eaf7a74ff200195bf799,c8r08wqi11,Nick_Dissertation_EX1,1,229,2020-06-02T09:32:31-07:00,2.2528741359711,1,versionA_stim.csv,READVersionA.csv,"Read Version A","Dissertation, read only version A",MOAT,CLEAR,Study2,U,169,174,Study,User,-,,Study/JOL,"Study Phase2",1950,,,-1,-1,,,,1
5ce2eaf7a74ff200195bf799,c8r08wqi11,Nick_Dissertation_EX1,1,230,2020-06-02T09:32:36-07:00,4.2230999469757,1,versionA_stim.csv,READVersionA.csv,"Read Version A","Dissertation, read only version A",SHEARS,SCISSORS,Study2,F,112,124,Study,User,-,,Study/JOL,"Study Phase2",3897,,,-1,-1,,,,1
5ce2eaf7a74ff200195bf799,c8r08wqi11,Nick_Dissertation_EX1,1,231,2020-06-02T09:32:38-07:00,2.9761919975281,1,versionA_stim.csv,READVersionA.csv,"Read Version A","Dissertation, read only version A",TANTRUM,TEMPER,Study2,S,154,113,Study,User,-,,Study/JOL,"Study Phase2",2668,,,-1,-1,,,,1
5ce2eaf7a74ff200195bf799,c8r08wqi11,Nick_Dissertation_EX1,1,232,2020-06-02T09:32:42-07:00,3.6074600219727,1,versionA_stim.csv,READVersionA.csv,"Read Version A","Dissertation, read only version A",BIRD,PENGUIN,Study2,B,119,155,Study,User,-,,Study/JOL,"Study Phase2",3274,,,-1,-1,,,,1
5ce2eaf7a74ff200195bf799,c8r08wqi11,Nick_Dissertation_EX1,1,233,2020-06-02T09:32:45-07:00,3.1996510028839,1,versionA_stim.csv,READVersionA.csv,"Read Version A","Dissertation, read only version A",RAZOR,SHAVE,Study2,S,136,146,Study,User,-,,Study/JOL,"Study Phase2",2893,,,-1,-1,,,,1
5ce2eaf7a74ff200195bf799,c8r08wqi11,Nick_Dissertation_EX1,1,234,2020-06-02T09:32:48-07:00,2.3430368900299,1,versionA_stim.csv,READVersionA.csv,"Read Version A","Dissertation, read only version A",GONE,AWAY,Study2,S,142,151,Study,User,-,,Study/JOL,"Study Phase2",2037,,,-1,-1,,,,1
5ce2eaf7a74ff200195bf799,c8r08wqi11,Nick_Dissertation_EX1,1,235,2020-06-02T09:32:50-07:00,2.6018471717834,1,versionA_stim.csv,READVersionA.csv,"Read Version A","Dissertation, read only version A",VEHICLE,CHARM,Study2,U,160,110,Study,User,-,,Study/JOL,"Study Phase2",2260,,,-1,-1,,,,1
5ce2eaf7a74ff200195bf799,c8r08wqi11,Nick_Dissertation_EX1,1,236,2020-06-02T09:32:52-07:00,2.19766497612,1,versionA_stim.csv,READVersionA.csv,"Read Version A","Dissertation, read only version A",SUN,TAN,Study2,S,155,136,Study,User,-,,Study/JOL,"Study Phase2",1891,,,-1,-1,,,,1
5ce2eaf7a74ff200195bf799,c8r08wqi11,Nick_Dissertation_EX1,1,237,2020-06-02T09:32:55-07:00,2.2091870307922,1,versionA_stim.csv,READVersionA.csv,"Read Version A","Dissertation, read only version A",LISTEN,FICTION,Study2,U,164,97,Study,User,-,,Study/JOL,"Study Phase2",1867,,,-1,-1,,,,1
5ce2eaf7a74ff200195bf799,c8r08wqi11,Nick_Dissertation_EX1,1,238,2020-06-02T09:32:59-07:00,4.6337018013,1,versionA_stim.csv,READVersionA.csv,"Read Version A","Dissertation, read only version A",CAT,PANTHER,Study2,B,126,137,Study,User,-,,Study/JOL,"Study Phase2",4296,,,-1,-1,,,,1
5ce2eaf7a74ff200195bf799,c8r08wqi11,Nick_Dissertation_EX1,1,239,2020-06-02T09:33:01-07:00,2.1109600067139,1,versionA_stim.csv,READVersionA.csv,"Read Version A","Dissertation, read only version A",DRY,WET,Study2,S,146,117,Study,User,-,,Study/JOL,"Study Phase2",1803,,,-1,-1,,,,1
5ce2eaf7a74ff200195bf799,c8r08wqi11,Nick_Dissertation_EX1,1,240,2020-06-02T09:33:04-07:00,2.3125531673431,1,versionA_stim.csv,READVersionA.csv,"Read Version A","Dissertation, read only version A",SCALP,HEAD,Study2,F,105,98,Study,User,-,,Study/JOL,"Study Phase2",1997,,,-1,-1,,,,1
5ce2eaf7a74ff200195bf799,c8r08wqi11,Nick_Dissertation_EX1,1,241,2020-06-02T09:33:06-07:00,2.0947709083557,1,versionA_stim.csv,READVersionA.csv,"Read Version A","Dissertation, read only version A",MULE,DONKEY,Study2,F,108,102,Study,User,-,,Study/JOL,"Study Phase2",1642,,,-1,-1,,,,1
5ce2eaf7a74ff200195bf799,c8r08wqi11,Nick_Dissertation_EX1,1,242,2020-06-02T09:33:08-07:00,2.4506099224091,1,versionA_stim.csv,READVersionA.csv,"Read Version A","Dissertation, read only version A",FLEA,TICK,Study2,S,151,162,Study,User,-,,Study/JOL,"Study Phase2",2126,,,-1,-1,,,,1
5ce2eaf7a74ff200195bf799,c8r08wqi11,Nick_Dissertation_EX1,1,243,2020-06-02T09:33:11-07:00,2.3700711727142,1,versionA_stim.csv,READVersionA.csv,"Read Version A","Dissertation, read only version A",NAME,HATE,Study2,U,167,119,Study,User,-,,Study/JOL,"Study Phase2",2052,,,-1,-1,,,,1
5ce2eaf7a74ff200195bf799,c8r08wqi11,Nick_Dissertation_EX1,1,244,2020-06-02T09:33:13-07:00,2.2301008701324,1,versionA_stim.csv,READVersionA.csv,"Read Version A","Dissertation, read only version A",TEMPERATURE,Morning,Study2,U,173,112,Study,User,-,,Study/JOL,"Study Phase2",1922,,,-1,-1,,,,1
5ce2eaf7a74ff200195bf799,c8r08wqi11,Nick_Dissertation_EX1,1,245,2020-06-02T09:33:17-07:00,4.5988390445709,1,versionA_stim.csv,READVersionA.csv,"Read Version A","Dissertation, read only version A",PHONE,COMMUNICATION,Study2,S,149,104,Study,User,-,,Study/JOL,"Study Phase2",4278,,,-1,-1,,,,1
5ce2eaf7a74ff200195bf799,c8r08wqi11,Nick_Dissertation_EX1,1,246,2020-06-02T09:33:21-07:00,3.5883560180664,1,versionA_stim.csv,READVersionA.csv,"Read Version A","Dissertation, read only version A",FEUD,FIGHT,Study2,F,113,158,Study,User,-,,Study/JOL,"Study Phase2",3265,,,-1,-1,,,,1
5ce2eaf7a74ff200195bf799,c8r08wqi11,Nick_Dissertation_EX1,1,247,2020-06-02T09:33:23-07:00,2.2870450019836,1,versionA_stim.csv,READVersionA.csv,"Read Version A","Dissertation, read only version A",FUZZY,BANG,Study2,U,168,126,Study,User,-,,Study/JOL,"Study Phase2",1984,,,-1,-1,,,,1
5ce2eaf7a74ff200195bf799,c8r08wqi11,Nick_Dissertation_EX1,1,248,2020-06-02T09:33:25-07:00,1.9680380821228,1,versionA_stim.csv,READVersionA.csv,"Read Version A","Dissertation, read only version A",DRIVER,CAR,Study2,F,106,105,Study,User,-,,Study/JOL,"Study Phase2",1658,,,-1,-1,,,,1
5ce2eaf7a74ff200195bf799,c8r08wqi11,Nick_Dissertation_EX1,1,249,2020-06-02T09:33:27-07:00,2.1626219749451,1,versionA_stim.csv,READVersionA.csv,"Read Version A","Dissertation, read only version A",EVEN,REVENGE,Study2,B,122,167,Study,User,-,,Study/JOL,"Study Phase2",1838,,,-1,-1,,,,1
5ce2eaf7a74ff200195bf799,c8r08wqi11,Nick_Dissertation_EX1,1,250,2020-06-02T09:33:30-07:00,2.0702030658722,1,versionA_stim.csv,READVersionA.csv,"Read Version A","Dissertation, read only version A",ROD,REEL,Study2,S,150,100,Study,User,-,,Study/JOL,"Study Phase2",1760,,,-1,-1,,,,1
5ce2eaf7a74ff200195bf799,c8r08wqi11,Nick_Dissertation_EX1,1,251,2020-06-02T09:33:31-07:00,1.702223777771,1,versionA_stim.csv,READVersionA.csv,"Read Version A","Dissertation, read only version A",BAD,VILLAIN,Study2,B,118,101,Study,User,-,,Study/JOL,"Study Phase2",1410,,,-1,-1,,,,1
5ce2eaf7a74ff200195bf799,c8r08wqi11,Nick_Dissertation_EX1,1,252,2020-06-02T09:33:34-07:00,3.2833712100983,1,versionA_stim.csv,READVersionA.csv,"Read Version A","Dissertation, read only version A",GIVE,STEAK,Study2,U,158,170,Study,User,-,,Study/JOL,"Study Phase2",2979,,,-1,-1,,,,1
5ce2eaf7a74ff200195bf799,c8r08wqi11,Nick_Dissertation_EX1,1,253,2020-06-02T09:33:39-07:00,4.3697760105133,1,versionA_stim.csv,READVersionA.csv,"Read Version A","Dissertation, read only version A",CAR,WINDSHIELD,Study2,B,117,168,Study,User,-,,Study/JOL,"Study Phase2",4047,,,-1,-1,,,,1
5ce2eaf7a74ff200195bf799,c8r08wqi11,Nick_Dissertation_EX1,1,254,2020-06-02T09:33:42-07:00,2.6913828849792,1,versionA_stim.csv,READVersionA.csv,"Read Version A","Dissertation, read only version A",SLEEP,NAP,Study2,B,134,169,Study,User,-,,Study/JOL,"Study Phase2",2303,,,-1,-1,,,,1
5ce2eaf7a74ff200195bf799,c8r08wqi11,Nick_Dissertation_EX1,1,255,2020-06-02T09:33:46-07:00,4.6219871044159,1,versionA_stim.csv,READVersionA.csv,"Read Version A","Dissertation, read only version A",ELEMENT,CARBON,Study2,S,141,161,Study,User,-,,Study/JOL,"Study Phase2",4309,,,-1,-1,,,,1
5ce2eaf7a74ff200195bf799,c8r08wqi11,Nick_Dissertation_EX1,1,256,2020-06-02T09:33:51-07:00,5.0884039402008,1,versionA_stim.csv,READVersionA.csv,"Read Version A","Dissertation, read only version A",SAFETY,SEATBELT,Study2,S,147,154,Study,User,-,,Study/JOL,"Study Phase2",4773,,,-1,-1,,,,1
5ce2eaf7a74ff200195bf799,c8r08wqi11,Nick_Dissertation_EX1,1,257,2020-06-02T09:33:54-07:00,3.0830030441284,1,versionA_stim.csv,READVersionA.csv,"Read Version A","Dissertation, read only version A",DETECTIVE,MYSTERY,Study2,F,100,108,Study,User,-,,Study/JOL,"Study Phase2",2774,,,-1,-1,,,,1
5ce2eaf7a74ff200195bf799,c8r08wqi11,Nick_Dissertation_EX1,1,258,2020-06-02T09:33:57-07:00,2.7047770023346,1,versionA_stim.csv,READVersionA.csv,"Read Version A","Dissertation, read only version A",EARTH,GROUND,Study2,S,144,129,Study,User,-,,Study/JOL,"Study Phase2",2389,,,-1,-1,,,,1
5ce2eaf7a74ff200195bf799,c8r08wqi11,Nick_Dissertation_EX1,1,259,2020-06-02T09:34:00-07:00,2.6411709785461,1,versionA_stim.csv,READVersionA.csv,"Read Version A","Dissertation, read only version A",LITTER,TRASH,Study2,F,103,157,Study,User,-,,Study/JOL,"Study Phase2",2325,,,-1,-1,,,,1
5ce2eaf7a74ff200195bf799,c8r08wqi11,Nick_Dissertation_EX1,1,260,2020-06-02T09:34:02-07:00,1.959105014801,1,versionA_stim.csv,READVersionA.csv,"Read Version A","Dissertation, read only version A",CHERRY,RED,Study2,F,104,118,Study,User,-,,Study/JOL,"Study Phase2",1662,,,-1,-1,,,,1
5ce2eaf7a74ff200195bf799,c8r08wqi11,Nick_Dissertation_EX1,1,261,2020-06-02T09:34:04-07:00,1.9603409767151,1,versionA_stim.csv,READVersionA.csv,"Read Version A","Dissertation, read only version A",SPRING,MARCH,BUFFER4,Buffer,179,180,Study,User,-,,Study/JOL,BUFFER4,1635,,,-1,-1,,,,1
5ce2eaf7a74ff200195bf799,c8r08wqi11,Nick_Dissertation_EX1,1,262,2020-06-02T09:34:07-07:00,3.2132868766785,1,versionA_stim.csv,READVersionA.csv,"Read Version A","Dissertation, read only version A",DAYS,WEAKS,BUFFER4,Buffer,176,181,Study,User,-,,Study/JOL,BUFFER4,2877,,,-1,-1,,,,1
5ce2eaf7a74ff200195bf799,c8r08wqi11,Nick_Dissertation_EX1,1,263,2020-06-02T09:34:09-07:00,2.1628630161285,1,versionA_stim.csv,READVersionA.csv,"Read Version A","Dissertation, read only version A",OCTOBER,SPOOKY,BUFFER4,Buffer,180,179,Study,User,-,,Study/JOL,BUFFER4,1814,,,-1,-1,,,,1
5ce2eaf7a74ff200195bf799,c8r08wqi11,Nick_Dissertation_EX1,1,264,2020-06-02T09:34:11-07:00,1.6663069725037,1,versionA_stim.csv,READVersionA.csv,"Read Version A","Dissertation, read only version A",TOOL,SHED,BUFFER4,Buffer,178,178,Study,User,-,,Study/JOL,BUFFER4,1354,,,-1,-1,,,,1
5ce2eaf7a74ff200195bf799,c8r08wqi11,Nick_Dissertation_EX1,1,265,2020-06-02T09:34:13-07:00,2.4759509563446,1,versionA_stim.csv,READVersionA.csv,"Read Version A","Dissertation, read only version A",MONTH,YEAR,BUFFER4,Buffer,177,177,Study,User,-,,Study/JOL,BUFFER4,2155,,,-1,-1,,,,1
5ce2eaf7a74ff200195bf799,c8r08wqi11,Nick_Dissertation_EX1,1,266,2020-06-02T09:34:16-07:00,2.7427031993866,1,versionA_stim.csv,READVersionA.csv,"Read Version A","Dissertation, read only version A",,,,,,0,Instruct,User,-,"You have completed this section. Please press Enter.",Filler_Instruction,Instruct5,2434,,,-1,-1,,,,1
5ce2eaf7a74ff200195bf799,c8r08wqi11,Nick_Dissertation_EX1,1,267,2020-06-02T09:36:16-07:00,120.36552000046,1,versionA_stim.csv,READVersionA.csv,"Read Version A","Dissertation, read only version A",,,,,,0,FreeRecall,120,120,"Please list the 50 US states in reverse alphabetical order (z - a). The task will automatically advance to the next screen after two minutes.",,Filler2,120006,"Wyoming Wisconsin Washington Tennessee South Dakota South Carolina Mississippi Missouri Maryland North Dakota North Carolina Kansas Illinois Indiana Delaware California Arkansas Alabama Alaska",0,5663,113500,0,0,,1
5ce2eaf7a74ff200195bf799,c8r08wqi11,Nick_Dissertation_EX1,1,268,2020-06-02T09:36:29-07:00,12.479928016663,1,versionA_stim.csv,READVersionA.csv,"Read Version A","Dissertation, read only version A",,,,,,0,Instruct,-,10,"You will now be presented with the first word from each of the previously studied item pairs. Please type the missing word. If you do not know the word, you may guess or press Enter to skip forward to the next pair.",,Instruct6,12021,,,-1,-1,,,,1
5ce2eaf7a74ff200195bf799,c8r08wqi11,Nick_Dissertation_EX1,1,269,2020-06-02T09:36:36-07:00,7.0494918823242,1,versionA_stim.csv,READVersionA.csv,"Read Version A","Dissertation, read only version A",BIRD,PENGUIN,Study2,B,119,155,Test,User,-,,Recall,Recall2,5623,PENGUIN,100,1276,5109,1,1,,1
5ce2eaf7a74ff200195bf799,c8r08wqi11,Nick_Dissertation_EX1,1,270,2020-06-02T09:36:41-07:00,4.8862109184265,1,versionA_stim.csv,READVersionA.csv,"Read Version A","Dissertation, read only version A",ADJOURN,END,Study2,F,101,127,Test,User,-,,Recall,Recall2,4449,COURT,0,3589,4069,0,0,,1
5ce2eaf7a74ff200195bf799,c8r08wqi11,Nick_Dissertation_EX1,1,271,2020-06-02T09:36:46-07:00,4.9526040554047,1,versionA_stim.csv,READVersionA.csv,"Read Version A","Dissertation, read only version A",MULE,DONKEY,Study2,F,108,102,Test,User,-,,Recall,Recall2,4627,MAN,22.222222222222,4092,4312,0,0,,1
5ce2eaf7a74ff200195bf799,c8r08wqi11,Nick_Dissertation_EX1,1,272,2020-06-02T09:36:48-07:00,2.8785910606384,1,versionA_stim.csv,READVersionA.csv,"Read Version A","Dissertation, read only version A",EARTH,GROUND,Study2,S,144,129,Test,User,-,,Recall,Recall2,2565,SPHERE,16.666666666667,1642,2162,0,0,,1
5ce2eaf7a74ff200195bf799,c8r08wqi11,Nick_Dissertation_EX1,1,273,2020-06-02T09:36:51-07:00,2.2279698848724,1,versionA_stim.csv,READVersionA.csv,"Read Version A","Dissertation, read only version A",FEUD,FIGHT,Study2,F,113,158,Test,User,-,,Recall,Recall2,1917,FAMILY,36.363636363636,1219,1627,0,0,,1
5ce2eaf7a74ff200195bf799,c8r08wqi11,Nick_Dissertation_EX1,1,274,2020-06-02T09:36:54-07:00,3.2259330749512,1,versionA_stim.csv,READVersionA.csv,"Read Version A","Dissertation, read only version A",SUN,TAN,Study2,S,155,136,Test,User,-,,Recall,Recall2,2901,MOON,28.571428571429,1993,2561,0,0,,1
5ce2eaf7a74ff200195bf799,c8r08wqi11,Nick_Dissertation_EX1,1,275,2020-06-02T09:37:01-07:00,7.3013429641724,1,versionA_stim.csv,READVersionA.csv,"Read Version A","Dissertation, read only version A",SAFETY,SEATBELT,Study2,S,147,154,Test,User,-,,Recall,Recall2,6994,FIRE,16.666666666667,6323,6606,0,0,,1
5ce2eaf7a74ff200195bf799,c8r08wqi11,Nick_Dissertation_EX1,1,276,2020-06-02T09:37:05-07:00,3.8898730278015,1,versionA_stim.csv,READVersionA.csv,"Read Version A","Dissertation, read only version A",LEASE,TOIL,Study2,U,170,141,Test,User,-,,Recall,Recall2,3475,VAULT,22.222222222222,2693,3189,0,0,,1
5ce2eaf7a74ff200195bf799,c8r08wqi11,Nick_Dissertation_EX1,1,277,2020-06-02T09:37:09-07:00,3.7879869937897,1,versionA_stim.csv,READVersionA.csv,"Read Version A","Dissertation, read only version A",SHEARS,SCISSORS,Study2,F,112,124,Test,User,-,,Recall,Recall2,3433,SCISSORS,100,2013,3121,1,1,,1
5ce2eaf7a74ff200195bf799,c8r08wqi11,Nick_Dissertation_EX1,1,278,2020-06-02T09:37:12-07:00,2.6656341552734,1,versionA_stim.csv,READVersionA.csv,"Read Version A","Dissertation, read only version A",KEYS,JOKE,Study2,U,165,139,Test,User,-,,Recall,Recall2,2323,LOCK,50,1728,2050,0,0,,1
5ce2eaf7a74ff200195bf799,c8r08wqi11,Nick_Dissertation_EX1,1,279,2020-06-02T09:37:16-07:00,3.9485309123993,1,versionA_stim.csv,READVersionA.csv,"Read Version A","Dissertation, read only version A",LOAN,SIGN,Study2,U,171,149,Test,User,-,,Recall,Recall2,3632,BANK,25,3063,3361,0,0,,1
5ce2eaf7a74ff200195bf799,c8r08wqi11,Nick_Dissertation_EX1,1,280,2020-06-02T09:37:34-07:00,18.243604898453,1,versionA_stim.csv,READVersionA.csv,"Read Version A","Dissertation, read only version A",BAD,VILLAIN,Study2,B,118,101,Test,User,-,,Recall,Recall2,17898,HURT,0,17369,17626,0,0,,1
5ce2eaf7a74ff200195bf799,c8r08wqi11,Nick_Dissertation_EX1,1,281,2020-06-02T09:37:37-07:00,3.010421037674,1,versionA_stim.csv,READVersionA.csv,"Read Version A","Dissertation, read only version A",WATER,DRINK,Study2,S,143,147,Test,User,-,,Recall,Recall2,2669,WET,0,2084,2336,0,0,,1
5ce2eaf7a74ff200195bf799,c8r08wqi11,Nick_Dissertation_EX1,1,282,2020-06-02T09:37:39-07:00,2.0874450206757,1,versionA_stim.csv,READVersionA.csv,"Read Version A","Dissertation, read only version A",CLUE,GAME,Study2,F,97,106,Test,User,-,,Recall,Recall2,1775,GAME,100,1067,1435,1,1,,1
5ce2eaf7a74ff200195bf799,c8r08wqi11,Nick_Dissertation_EX1,1,283,2020-06-02T09:37:43-07:00,4.2257521152496,1,versionA_stim.csv,READVersionA.csv,"Read Version A","Dissertation, read only version A",EXTENSION,LONG,Study2,F,96,135,Test,User,-,,Recall,Recall2,3904,DEADLINE,33.333333333333,2203,3555,0,0,,1
5ce2eaf7a74ff200195bf799,c8r08wqi11,Nick_Dissertation_EX1,1,284,2020-06-02T09:37:48-07:00,4.8452749252319,1,versionA_stim.csv,READVersionA.csv,"Read Version A","Dissertation, read only version A",Shell,SHAKE,Study2,U,163,123,Test,User,-,,Recall,Recall2,4517,SEA,50,3859,4178,0,0,,1
5ce2eaf7a74ff200195bf799,c8r08wqi11,Nick_Dissertation_EX1,1,285,2020-06-02T09:37:51-07:00,2.6282758712769,1,versionA_stim.csv,READVersionA.csv,"Read Version A","Dissertation, read only version A",PHONE,COMMUNICATION,Study2,S,149,104,Test,User,-,,Recall,Recall2,2309,NUMBERS,10,1245,1989,0,0,,1
5ce2eaf7a74ff200195bf799,c8r08wqi11,Nick_Dissertation_EX1,1,286,2020-06-02T09:38:02-07:00,11.455982208252,1,versionA_stim.csv,READVersionA.csv,"Read Version A","Dissertation, read only version A",FURRY,DOG,Study2,F,102,128,Test,User,-,,Recall,Recall2,11111,HANDS,25,10381,10692,0,0,,1
5ce2eaf7a74ff200195bf799,c8r08wqi11,Nick_Dissertation_EX1,1,287,2020-06-02T09:38:06-07:00,4.0926349163055,1,versionA_stim.csv,READVersionA.csv,"Read Version A","Dissertation, read only version A",BEST,FAVORITE,Study2,B,125,145,Test,User,-,,Recall,Recall2,3663,FRIENDS,53.333333333333,2735,3320,0,0,,1
5ce2eaf7a74ff200195bf799,c8r08wqi11,Nick_Dissertation_EX1,1,288,2020-06-02T09:38:12-07:00,5.4572999477386,1,versionA_stim.csv,READVersionA.csv,"Read Version A","Dissertation, read only version A",DINE,EAT,Study2,F,111,121,Test,User,-,,Recall,Recall2,5150,WINE,28.571428571429,4533,4792,0,0,,1
5ce2eaf7a74ff200195bf799,c8r08wqi11,Nick_Dissertation_EX1,1,289,2020-06-02T09:38:22-07:00,10.391042947769,1,versionA_stim.csv,READVersionA.csv,"Read Version A","Dissertation, read only version A",LISTEN,FICTION,Study2,U,164,97,Test,User,-,,Recall,Recall2,10028,MUTE,18.181818181818,9233,9689,0,0,,1
5ce2eaf7a74ff200195bf799,c8r08wqi11,Nick_Dissertation_EX1,1,290,2020-06-02T09:38:24-07:00,1.7425000667572,1,versionA_stim.csv,READVersionA.csv,"Read Version A","Dissertation, read only version A",MASON,JAR,Study2,S,138,125,Test,User,-,,Recall,Recall2,1422,JAR,100,971,1115,1,1,,1
5ce2eaf7a74ff200195bf799,c8r08wqi11,Nick_Dissertation_EX1,1,291,2020-06-02T09:38:26-07:00,2.6478021144867,1,versionA_stim.csv,READVersionA.csv,"Read Version A","Dissertation, read only version A",WRIST,BRACELET,Study2,S,140,176,Test,User,-,,Recall,Recall2,2321,HAND,16.666666666667,1433,2051,0,0,,1
5ce2eaf7a74ff200195bf799,c8r08wqi11,Nick_Dissertation_EX1,1,292,2020-06-02T09:38:29-07:00,2.2044868469238,1,versionA_stim.csv,READVersionA.csv,"Read Version A","Dissertation, read only version A",ROD,REEL,Study2,S,150,100,Test,User,-,,Recall,Recall2,1868,REEL,100,1075,1436,1,1,,1
5ce2eaf7a74ff200195bf799,c8r08wqi11,Nick_Dissertation_EX1,1,293,2020-06-02T09:38:30-07:00,1.856997013092,1,versionA_stim.csv,READVersionA.csv,"Read Version A","Dissertation, read only version A",GIVE,STEAK,Study2,U,158,170,Test,User,-,,Recall,Recall2,1545,UP,0,1031,1207,0,0,,1
5ce2eaf7a74ff200195bf799,c8r08wqi11,Nick_Dissertation_EX1,1,294,2020-06-02T09:38:34-07:00,3.8947770595551,1,versionA_stim.csv,READVersionA.csv,"Read Version A","Dissertation, read only version A",CHOP,CUT,Study2,F,107,156,Test,User,-,,Recall,Recall2,3580,CUT,100,2925,3217,1,1,,1
5ce2eaf7a74ff200195bf799,c8r08wqi11,Nick_Dissertation_EX1,1,295,2020-06-02T09:38:38-07:00,4.1439259052277,1,versionA_stim.csv,READVersionA.csv,"Read Version A","Dissertation, read only version A",THREAD,THIMBLE,Study2,B,121,150,Test,User,-,,Recall,Recall2,3837,NEEDLE,30.769230769231,2973,3513,0,0,,1
5ce2eaf7a74ff200195bf799,c8r08wqi11,Nick_Dissertation_EX1,1,296,2020-06-02T09:38:42-07:00,3.7893040180206,1,versionA_stim.csv,READVersionA.csv,"Read Version A","Dissertation, read only version A",MOAT,CLEAR,Study2,U,169,174,Test,User,-,,Recall,Recall2,3458,CASTLE,54.545454545455,2490,3133,0,0,,1
5ce2eaf7a74ff200195bf799,c8r08wqi11,Nick_Dissertation_EX1,1,297,2020-06-02T09:38:46-07:00,3.7957351207733,1,versionA_stim.csv,READVersionA.csv,"Read Version A","Dissertation, read only version A",OWN,HAVE,Study2,S,153,115,Test,User,-,,Recall,Recall2,3483,HAVE,100,2879,3182,1,1,,1
5ce2eaf7a74ff200195bf799,c8r08wqi11,Nick_Dissertation_EX1,1,298,2020-06-02T09:38:51-07:00,5.0799219608307,1,versionA_stim.csv,READVersionA.csv,"Read Version A","Dissertation, read only version A",SCALP,HEAD,Study2,F,105,98,Test,User,-,,Recall,Recall2,4758,HEAD,100,3095,4535,1,1,,1
5ce2eaf7a74ff200195bf799,c8r08wqi11,Nick_Dissertation_EX1,1,299,2020-06-02T09:38:54-07:00,3.341362953186,1,versionA_stim.csv,READVersionA.csv,"Read Version A","Dissertation, read only version A",MONEY,BANKER,Study2,B,132,134,Test,User,-,,Recall,Recall2,3026,WALLET,33.333333333333,2063,2535,0,0,,1
5ce2eaf7a74ff200195bf799,c8r08wqi11,Nick_Dissertation_EX1,1,300,2020-06-02T09:38:57-07:00,2.9416499137878,1,versionA_stim.csv,READVersionA.csv,"Read Version A","Dissertation, read only version A",DETECTIVE,MYSTERY,Study2,F,100,108,Test,User,-,,Recall,Recall2,2634,CASE,36.363636363636,1825,2269,0,0,,1
5ce2eaf7a74ff200195bf799,c8r08wqi11,Nick_Dissertation_EX1,1,301,2020-06-02T09:39:03-07:00,5.321337223053,1,versionA_stim.csv,READVersionA.csv,"Read Version A","Dissertation, read only version A",BASEBALL,LEAGUE,Study2,B,131,120,Test,User,-,,Recall,Recall2,4991,CATCHER,30.769230769231,2432,3260,0,0,,1
5ce2eaf7a74ff200195bf799,c8r08wqi11,Nick_Dissertation_EX1,1,302,2020-06-02T09:39:07-07:00,3.9595539569855,1,versionA_stim.csv,READVersionA.csv,"Read Version A","Dissertation, read only version A",TEMPERATURE,Morning,Study2,U,173,112,Test,User,-,,Recall,Recall2,3630,MORNING,100,2015,3208,1,1,,1
5ce2eaf7a74ff200195bf799,c8r08wqi11,Nick_Dissertation_EX1,1,303,2020-06-02T09:39:10-07:00,3.7015290260315,1,versionA_stim.csv,READVersionA.csv,"Read Version A","Dissertation, read only version A",CAKE,CLOTHES,Study2,U,166,159,Test,User,-,,Recall,Recall2,3378,BATTER,30.769230769231,2030,2954,0,0,,1
5ce2eaf7a74ff200195bf799,c8r08wqi11,Nick_Dissertation_EX1,1,304,2020-06-02T09:39:20-07:00,9.2527039051056,1,versionA_stim.csv,READVersionA.csv,"Read Version A","Dissertation, read only version A",HONEST,TRUTHFUL,Study2,B,133,114,Test,User,-,,Recall,Recall2,8932,TRUTHFUL,100,7134,8545,1,1,,1
5ce2eaf7a74ff200195bf799,c8r08wqi11,Nick_Dissertation_EX1,1,305,2020-06-02T09:39:21-07:00,1.817183971405,1,versionA_stim.csv,READVersionA.csv,"Read Version A","Dissertation, read only version A",POP,BALLOON,Study2,B,123,131,Test,User,-,,Recall,Recall2,1497,SODA,18.181818181818,901,1169,0,0,,1
5ce2eaf7a74ff200195bf799,c8r08wqi11,Nick_Dissertation_EX1,1,306,2020-06-02T09:39:26-07:00,4.9503109455109,1,versionA_stim.csv,READVersionA.csv,"Read Version A","Dissertation, read only version A",MAZE,ELECTION,Study2,U,159,164,Test,User,-,,Recall,Recall2,4622,GAME,16.666666666667,3971,4331,0,0,,1
5ce2eaf7a74ff200195bf799,c8r08wqi11,Nick_Dissertation_EX1,1,307,2020-06-02T09:39:29-07:00,2.1644899845123,1,versionA_stim.csv,READVersionA.csv,"Read Version A","Dissertation, read only version A",CAT,PANTHER,Study2,B,126,137,Test,User,-,,Recall,Recall2,1829,DOG,0,1238,1486,0,0,,1
5ce2eaf7a74ff200195bf799,c8r08wqi11,Nick_Dissertation_EX1,1,308,2020-06-02T09:39:33-07:00,4.8089730739594,1,versionA_stim.csv,READVersionA.csv,"Read Version A","Dissertation, read only version A",INCENSE,SMELL,Study2,F,110,165,Test,User,-,,Recall,Recall2,3358,SMELL,100,1669,3049,1,1,,1
5ce2eaf7a74ff200195bf799,c8r08wqi11,Nick_Dissertation_EX1,1,309,2020-06-02T09:39:35-07:00,1.9379930496216,1,versionA_stim.csv,READVersionA.csv,"Read Version A","Dissertation, read only version A",CHERRY,RED,Study2,F,104,118,Test,User,-,,Recall,Recall2,1624,RED,100,973,1237,1,1,,1
5ce2eaf7a74ff200195bf799,c8r08wqi11,Nick_Dissertation_EX1,1,310,2020-06-02T09:39:38-07:00,2.6656908988953,1,versionA_stim.csv,READVersionA.csv,"Read Version A","Dissertation, read only version A",DOCUMENT,PAPER,Study2,F,109,99,Test,User,-,,Recall,Recall2,2312,SCAN,22.222222222222,1521,1901,0,0,,1
5ce2eaf7a74ff200195bf799,c8r08wqi11,Nick_Dissertation_EX1,1,311,2020-06-02T09:39:44-07:00,5.8918371200562,1,versionA_stim.csv,READVersionA.csv,"Read Version A","Dissertation, read only version A",CANDLE,WAX,Study2,S,139,111,Test,User,-,,Recall,Recall2,5556,FIRE,0,4384,5111,0,0,,1
5ce2eaf7a74ff200195bf799,c8r08wqi11,Nick_Dissertation_EX1,1,312,2020-06-02T09:39:57-07:00,13.42538690567,1,versionA_stim.csv,READVersionA.csv,"Read Version A","Dissertation, read only version A",ELEMENT,CARBON,Study2,S,141,161,Test,User,-,,Recall,Recall2,13073,SPACE,18.181818181818,12300,12727,0,0,,1
5ce2eaf7a74ff200195bf799,c8r08wqi11,Nick_Dissertation_EX1,1,313,2020-06-02T09:40:01-07:00,3.6661760807037,1,versionA_stim.csv,READVersionA.csv,"Read Version A","Dissertation, read only version A",PLANE,AIRCRAFT,Study2,B,129,107,Test,User,-,,Recall,Recall2,3256,PILOT,30.769230769231,1698,2404,0,0,,1
5ce2eaf7a74ff200195bf799,c8r08wqi11,Nick_Dissertation_EX1,1,314,2020-06-02T09:40:07-07:00,6.373969078064,1,versionA_stim.csv,READVersionA.csv,"Read Version A","Dissertation, read only version A",SLEEP,NAP,Study2,B,134,169,Test,User,-,,Recall,Recall2,5046,BED,0,4277,4694,0,0,,1
5ce2eaf7a74ff200195bf799,c8r08wqi11,Nick_Dissertation_EX1,1,315,2020-06-02T09:40:11-07:00,3.5214359760284,1,versionA_stim.csv,READVersionA.csv,"Read Version A","Dissertation, read only version A",EVEN,REVENGE,Study2,B,122,167,Test,User,-,,Recall,Recall2,3104,REVENGE,100,2103,2754,1,1,,1
5ce2eaf7a74ff200195bf799,c8r08wqi11,Nick_Dissertation_EX1,1,316,2020-06-02T09:40:13-07:00,2.2110378742218,1,versionA_stim.csv,READVersionA.csv,"Read Version A","Dissertation, read only version A",FISH,SARDINE,Study2,B,130,175,Test,User,-,,Recall,Recall2,1892,TUNA,18.181818181818,1355,1643,0,0,,1
5ce2eaf7a74ff200195bf799,c8r08wqi11,Nick_Dissertation_EX1,1,317,2020-06-02T09:40:16-07:00,2.8993520736694,1,versionA_stim.csv,READVersionA.csv,"Read Version A","Dissertation, read only version A",FUZZY,BANG,Study2,U,168,126,Test,User,-,,Recall,Recall2,2579,HANDS,44.444444444444,1727,2183,0,0,,1
5ce2eaf7a74ff200195bf799,c8r08wqi11,Nick_Dissertation_EX1,1,318,2020-06-02T09:40:18-07:00,2.2192800045013,1,versionA_stim.csv,READVersionA.csv,"Read Version A","Dissertation, read only version A",ALONE,LONELY,Study2,S,145,109,Test,User,-,,Recall,Recall2,1902,LONELY,100,955,1541,1,1,,1
5ce2eaf7a74ff200195bf799,c8r08wqi11,Nick_Dissertation_EX1,1,319,2020-06-02T09:40:23-07:00,4.6241829395294,1,versionA_stim.csv,READVersionA.csv,"Read Version A","Dissertation, read only version A",DRIVER,CAR,Study2,F,106,105,Test,User,-,,Recall,Recall2,3266,CAR,100,2283,3008,1,1,,1
5ce2eaf7a74ff200195bf799,c8r08wqi11,Nick_Dissertation_EX1,1,320,2020-06-02T09:40:29-07:00,6.2764880657196,1,versionA_stim.csv,READVersionA.csv,"Read Version A","Dissertation, read only version A",STRETCH,CLOTH,Study2,U,157,144,Test,User,-,,Recall,Recall2,4938,LIFT,44.444444444444,4305,4673,0,0,,1
5ce2eaf7a74ff200195bf799,c8r08wqi11,Nick_Dissertation_EX1,1,321,2020-06-02T09:40:34-07:00,4.7447018623352,1,versionA_stim.csv,READVersionA.csv,"Read Version A","Dissertation, read only version A",RAZOR,SHAVE,Study2,S,136,146,Test,User,-,,Recall,Recall2,4394,BLADE,40,2937,3412,0,0,,1
5ce2eaf7a74ff200195bf799,c8r08wqi11,Nick_Dissertation_EX1,1,322,2020-06-02T09:40:38-07:00,3.8376541137695,1,versionA_stim.csv,READVersionA.csv,"Read Version A","Dissertation, read only version A",BOTH,OUNCE,Study2,U,172,163,Test,User,-,,Recall,Recall2,3420,END,25,2788,3015,0,0,,1
5ce2eaf7a74ff200195bf799,c8r08wqi11,Nick_Dissertation_EX1,1,323,2020-06-02T09:40:42-07:00,4.3225200176239,1,versionA_stim.csv,READVersionA.csv,"Read Version A","Dissertation, read only version A",MAIN,SCAR,Study2,U,175,132,Test,User,-,,Recall,Recall2,3926,LINE,0,2945,3608,0,0,,1
5ce2eaf7a74ff200195bf799,c8r08wqi11,Nick_Dissertation_EX1,1,324,2020-06-02T09:41:03-07:00,20.868721008301,1,versionA_stim.csv,READVersionA.csv,"Read Version A","Dissertation, read only version A",MEAT,OBTAIN,Study2,U,161,142,Test,User,-,,Recall,Recall2,20488,GRILL,18.181818181818,19219,20152,0,0,,1
5ce2eaf7a74ff200195bf799,c8r08wqi11,Nick_Dissertation_EX1,1,325,2020-06-02T09:41:09-07:00,6.528058052063,1,versionA_stim.csv,READVersionA.csv,"Read Version A","Dissertation, read only version A",SHOELACE,TIE,Study2,F,99,153,Test,User,-,,Recall,Recall2,6208,FEET,28.571428571429,3741,5857,0,0,,1
5ce2eaf7a74ff200195bf799,c8r08wqi11,Nick_Dissertation_EX1,1,326,2020-06-02T09:41:17-07:00,7.7055540084839,1,versionA_stim.csv,READVersionA.csv,"Read Version A","Dissertation, read only version A",FRUIT,STRAWBERRY,Study2,B,124,122,Test,User,-,,Recall,Recall2,7387,PEACH,13.333333333333,6663,7099,0,0,,1
5ce2eaf7a74ff200195bf799,c8r08wqi11,Nick_Dissertation_EX1,1,327,2020-06-02T09:41:19-07:00,2.3220148086548,1,versionA_stim.csv,READVersionA.csv,"Read Version A","Dissertation, read only version A",LOUD,NOISE,Study2,S,152,148,Test,User,-,,Recall,Recall2,1955,BANG,22.222222222222,1378,1678,0,0,,1
5ce2eaf7a74ff200195bf799,c8r08wqi11,Nick_Dissertation_EX1,1,328,2020-06-02T09:41:29-07:00,9.592561006546,1,versionA_stim.csv,READVersionA.csv,"Read Version A","Dissertation, read only version A",TANTRUM,TEMPER,Study2,S,154,113,Test,User,-,,Recall,Recall2,8160,LOUD,0,6589,7816,0,0,,1
5ce2eaf7a74ff200195bf799,c8r08wqi11,Nick_Dissertation_EX1,1,329,2020-06-02T09:41:31-07:00,2.2104380130768,1,versionA_stim.csv,READVersionA.csv,"Read Version A","Dissertation, read only version A",DRY,WET,Study2,S,146,117,Test,User,-,,Recall,Recall2,1851,WET,100,1212,1532,1,1,,1
5ce2eaf7a74ff200195bf799,c8r08wqi11,Nick_Dissertation_EX1,1,330,2020-06-02T09:41:42-07:00,10.456809997559,1,versionA_stim.csv,READVersionA.csv,"Read Version A","Dissertation, read only version A",CRACKLE,ABLE,Study2,U,162,143,Test,User,-,,Recall,Recall2,10110,SNAP,25,8606,8912,0,0,,1
5ce2eaf7a74ff200195bf799,c8r08wqi11,Nick_Dissertation_EX1,1,331,2020-06-02T09:41:44-07:00,2.4183809757233,1,versionA_stim.csv,READVersionA.csv,"Read Version A","Dissertation, read only version A",CAR,WINDSHIELD,Study2,B,117,168,Test,User,-,,Recall,Recall2,2077,DRIVER,37.5,1133,1817,0,0,,1
5ce2eaf7a74ff200195bf799,c8r08wqi11,Nick_Dissertation_EX1,1,332,2020-06-02T09:41:49-07:00,4.6148190498352,1,versionA_stim.csv,READVersionA.csv,"Read Version A","Dissertation, read only version A",VEHICLE,CHARM,Study2,U,160,110,Test,User,-,,Recall,Recall2,4280,WHEEL,20,3404,3913,0,0,,1
5ce2eaf7a74ff200195bf799,c8r08wqi11,Nick_Dissertation_EX1,1,333,2020-06-02T09:41:52-07:00,2.8761420249939,1,versionA_stim.csv,READVersionA.csv,"Read Version A","Dissertation, read only version A",FIGHT,BRAWL,Study2,B,135,166,Test,User,-,,Recall,Recall2,2551,CLUB,22.222222222222,1739,2223,0,0,,1
5ce2eaf7a74ff200195bf799,c8r08wqi11,Nick_Dissertation_EX1,1,334,2020-06-02T09:42:10-07:00,18.012721061707,1,versionA_stim.csv,READVersionA.csv,"Read Version A","Dissertation, read only version A",NAME,HATE,Study2,U,167,119,Test,User,-,,Recall,Recall2,17625,AGE,57.142857142857,17140,17351,0,0,,1
5ce2eaf7a74ff200195bf799,c8r08wqi11,Nick_Dissertation_EX1,1,335,2020-06-02T09:42:12-07:00,2.5708539485931,1,versionA_stim.csv,READVersionA.csv,"Read Version A","Dissertation, read only version A",RIGHTS,EQUAL,Study2,S,137,172,Test,User,-,,Recall,Recall2,2225,EQUAL,100,1202,1898,1,1,,1
5ce2eaf7a74ff200195bf799,c8r08wqi11,Nick_Dissertation_EX1,1,336,2020-06-02T09:42:18-07:00,5.7065401077271,1,versionA_stim.csv,READVersionA.csv,"Read Version A","Dissertation, read only version A",DEAD,COFFIN,Study2,B,128,103,Test,User,-,,Recall,Recall2,5388,COFFIN,100,4410,5047,1,1,,1
5ce2eaf7a74ff200195bf799,c8r08wqi11,Nick_Dissertation_EX1,1,337,2020-06-02T09:42:21-07:00,3.0846757888794,1,versionA_stim.csv,READVersionA.csv,"Read Version A","Dissertation, read only version A",AFFECTION,LOVE,Study2,F,115,140,Test,User,-,,Recall,Recall2,2758,LOVE,100,2165,2448,1,1,,1
5ce2eaf7a74ff200195bf799,c8r08wqi11,Nick_Dissertation_EX1,1,338,2020-06-02T09:42:24-07:00,3.3423051834106,1,versionA_stim.csv,READVersionA.csv,"Read Version A","Dissertation, read only version A",GLASS,BREAKABLE,Study2,B,127,130,Test,User,-,,Recall,Recall2,2975,CASE,30.769230769231,2228,2680,0,0,,1
5ce2eaf7a74ff200195bf799,c8r08wqi11,Nick_Dissertation_EX1,1,339,2020-06-02T09:42:27-07:00,2.5655150413513,1,versionA_stim.csv,READVersionA.csv,"Read Version A","Dissertation, read only version A",JUSTICE,MAROON,Study2,U,156,133,Test,User,-,,Recall,Recall2,2255,SERVED,16.666666666667,1318,1945,0,0,,1
5ce2eaf7a74ff200195bf799,c8r08wqi11,Nick_Dissertation_EX1,1,340,2020-06-02T09:42:33-07:00,5.8260259628296,1,versionA_stim.csv,READVersionA.csv,"Read Version A","Dissertation, read only version A",GONE,AWAY,Study2,S,142,151,Test,User,-,,Recall,Recall2,5508,AWAY,100,3707,5184,1,1,,1
5ce2eaf7a74ff200195bf799,c8r08wqi11,Nick_Dissertation_EX1,1,341,2020-06-02T09:42:36-07:00,2.8727049827576,1,versionA_stim.csv,READVersionA.csv,"Read Version A","Dissertation, read only version A",LITTER,TRASH,Study2,F,103,157,Test,User,-,,Recall,Recall2,2534,CAT,25,1945,2252,0,0,,1
5ce2eaf7a74ff200195bf799,c8r08wqi11,Nick_Dissertation_EX1,1,342,2020-06-02T09:42:38-07:00,2.2043428421021,1,versionA_stim.csv,READVersionA.csv,"Read Version A","Dissertation, read only version A",FLEA,TICK,Study2,S,151,162,Test,User,-,,Recall,Recall2,1861,MARKET,20,1089,1510,0,0,,1
5ce2eaf7a74ff200195bf799,c8r08wqi11,Nick_Dissertation_EX1,1,343,2020-06-02T09:42:40-07:00,2.0656561851501,1,versionA_stim.csv,READVersionA.csv,"Read Version A","Dissertation, read only version A",TRUTH,LIE,Study2,S,148,171,Test,User,-,,Recall,Recall2,1647,LIE,100,1141,1297,1,1,,1
5ce2eaf7a74ff200195bf799,c8r08wqi11,Nick_Dissertation_EX1,1,344,2020-06-02T09:42:43-07:00,3.5696399211884,1,versionA_stim.csv,READVersionA.csv,"Read Version A","Dissertation, read only version A",MIRROR,CHILDREN,Study2,U,174,173,Test,User,-,,Recall,Recall2,3218,CHILDREN,100,1553,2597,1,1,,1
5ce2eaf7a74ff200195bf799,c8r08wqi11,Nick_Dissertation_EX1,1,345,2020-06-02T09:42:50-07:00,6.6690609455109,1,versionA_stim.csv,READVersionA.csv,"Read Version A","Dissertation, read only version A",STAR,ACTRESS,Study2,B,120,160,Test,User,-,,Recall,Recall2,6345,JAM,20,2957,6005,0,0,,1
