"","id","Response","key","percent_match","Scored","Trial","Condition.Number","Condition.Description","Stimuli.Cue","Stimuli.Shuffle","Stimuli.Stimuli.Notes","Procedure.Trial.Type","Procedure.Shuffle","Procedure.Post.1.Item","Procedure.Post.1.Trial.Type","Response.RT","Response.Response","Response.post1_JOL","Procedure.Shuffle.1","Response.RT.1"
"1","w10050706","","tuck","0",0,20,5,"JOL Version A","allow","Study1","U","Study","Study Phase",22,"JOL",5001,NA,"0","Recall1",3840
"2","w10099624_hjk","approve","tuck","0",0,14,5,"JOL Version A","allow","Study1","U","Study","Study Phase",72,"JOL",5008,NA,"5","Recall1",21133
"3","W10107879-wra","","tuck","0",0,23,5,"JOL Version A","allow","Study1","U","Study","Study Phase",29,"JOL",5016,NA,"30","Recall1",4453
"4","w10110599","forbid","tuck","0",0,65,5,"JOL Version A","allow","Study1","U","Study","Study Phase",43,"JOL",5006,NA,"64","Recall1",3052
"5","w10113200_ems","","tuck","0",0,32,5,"JOL Version A","allow","Study1","U","Study","Study Phase",60,"JOL",5011,NA,"20","Recall1",3370
"6","w10117888","permission ","tuck","0",0,42,5,"JOL Version A","allow","Study1","U","Study","Study Phase",40,"JOL",5002,NA,"5","Recall1",9073
"7","w10123216","","tuck","0",0,30,5,"JOL Version A","allow","Study1","U","Study","Study Phase",10,"JOL",5002,NA,"25","Recall1",3099
"8","w843029_SD","give","tuck","0",0,68,5,"JOL Version A","allow","Study1","U","Study","Study Phase",75,"JOL",5004,NA,"90","Recall1",26440
"9","w881414_BAC","come","tuck","0.25",0,23,5,"JOL Version A","allow","Study1","U","Study","Study Phase",49,"JOL",5003,NA,"79","Recall1",5473
"10","W8i4325_SMcM","admit","tuck","0",0,48,5,"JOL Version A","allow","Study1","U","Study","Study Phase",52,"JOL",5004,NA,"10","Recall1",7204
"11","w10050706","","design","0",0,74,5,"JOL Version A","architecture","Study1","S","Study","Study Phase",46,"JOL",5001,NA,"40","Recall1",3805
"12","w10099624_hjk","design","design","1",1,34,5,"JOL Version A","architecture","Study1","S","Study","Study Phase",23,"JOL",5007,NA,"86","Recall1",4338
"13","W10107879-wra","designe","design","0.857142857142857",1,38,5,"JOL Version A","architecture","Study1","S","Study","Study Phase",23,"JOL",5009,NA,"70","Recall1",7112
"14","w10110599","work","design","0",0,23,5,"JOL Version A","architecture","Study1","S","Study","Study Phase",24,"JOL",5002,NA,"34","Recall1",2991
"15","w10113200_ems","design","design","1",1,82,5,"JOL Version A","architecture","Study1","S","Study","Study Phase",16,"JOL",5013,NA,"50","Recall1",4187
"16","w10117888","design ","design","0.857142857142857",1,40,5,"JOL Version A","architecture","Study1","S","Study","Study Phase",58,"JOL",5002,NA,"50","Recall1",4378
"17","w10123216","design","design","1",1,61,5,"JOL Version A","architecture","Study1","S","Study","Study Phase",53,"JOL",5002,NA,"20","Recall1",10683
"18","w843029_SD","design","design","1",1,84,5,"JOL Version A","architecture","Study1","S","Study","Study Phase",61,"JOL",5003,NA,"100","Recall1",4166
"19","w881414_BAC","build","design","0.333333333333333",0,13,5,"JOL Version A","architecture","Study1","S","Study","Study Phase",55,"JOL",5005,NA,"87","Recall1",2829
"20","W8i4325_SMcM","design","design","1",1,11,5,"JOL Version A","architecture","Study1","S","Study","Study Phase",27,"JOL",5004,NA,"10","Recall1",12898
"21","w10050706","crafts","lion","0",0,26,5,"JOL Version A","art","Study1","U","Study","Study Phase",78,"JOL",5001,NA,"0","Recall1",5287
"22","w10099624_hjk","","lion","0",0,12,5,"JOL Version A","art","Study1","U","Study","Study Phase",77,"JOL",5005,NA,"10","Recall1",3037
"23","W10107879-wra","","lion","0",0,76,5,"JOL Version A","art","Study1","U","Study","Study Phase",81,"JOL",5005,NA,"40","Recall1",4440
"24","w10110599","history ","lion","0.125",0,81,5,"JOL Version A","art","Study1","U","Study","Study Phase",38,"JOL",5003,NA,"23","Recall1",3147
"25","w10113200_ems","","lion","0",0,57,5,"JOL Version A","art","Study1","U","Study","Study Phase",58,"JOL",5014,NA,"10","Recall1",12434
"26","w10117888","huge","lion","0",0,39,5,"JOL Version A","art","Study1","U","Study","Study Phase",47,"JOL",5002,NA,"11","Recall1",11299
"27","w10123216","lion","lion","1",1,90,5,"JOL Version A","art","Study1","U","Study","Study Phase",75,"JOL",5002,NA,"6","Recall1",4809
"28","w843029_SD","tiger","lion","0.2",0,47,5,"JOL Version A","art","Study1","U","Study","Study Phase",58,"JOL",5002,NA,"80","Recall1",15327
"29","w881414_BAC","class","lion","0.2",0,26,5,"JOL Version A","art","Study1","U","Study","Study Phase",79,"JOL",5009,NA,"76","Recall1",2574
"30","W8i4325_SMcM","lion","lion","1",1,44,5,"JOL Version A","art","Study1","U","Study","Study Phase",26,"JOL",5009,NA,"75","Recall1",21528
"31","w10050706","","bronze","0",0,83,5,"JOL Version A","artery","Study1","U","Study","Study Phase",41,"JOL",5001,NA,"0","Recall1",1405
"32","w10099624_hjk","sacking","bronze","0.142857142857143",0,29,5,"JOL Version A","artery","Study1","U","Study","Study Phase",8,"JOL",5007,NA,"4","Recall1",4194
"33","W10107879-wra","","bronze","0",0,67,5,"JOL Version A","artery","Study1","U","Study","Study Phase",75,"JOL",5011,NA,"45","Recall1",4414
"34","w10110599","lung","bronze","0.166666666666667",0,75,5,"JOL Version A","artery","Study1","U","Study","Study Phase",61,"JOL",5002,NA,"43","Recall1",4223
"35","w10113200_ems","gun","bronze","0.166666666666667",0,83,5,"JOL Version A","artery","Study1","U","Study","Study Phase",20,"JOL",5016,NA,"40","Recall1",7427
"36","w10117888","heart","bronze","0.333333333333333",0,12,5,"JOL Version A","artery","Study1","U","Study","Study Phase",51,"JOL",5016,NA,"10","Recall1",7613
"37","w10123216","bronze","bronze","1",1,25,5,"JOL Version A","artery","Study1","U","Study","Study Phase",41,"JOL",5002,NA,"25","Recall1",4139
"38","w843029_SD","vein","bronze","0.333333333333333",0,14,5,"JOL Version A","artery","Study1","U","Study","Study Phase",55,"JOL",5003,NA,"10","Recall1",16667
"39","w881414_BAC","clog","bronze","0.166666666666667",0,52,5,"JOL Version A","artery","Study1","U","Study","Study Phase",43,"JOL",5005,NA,"40","Recall1",2373
"40","W8i4325_SMcM","vase","bronze","0.166666666666667",0,72,5,"JOL Version A","artery","Study1","U","Study","Study Phase",8,"JOL",5011,NA,"1","Recall1",13650
"41","w10050706","child","child","1",1,78,5,"JOL Version A","baby","Study1","S","Study","Study Phase",44,"JOL",5002,NA,"95","Recall1",3362
"42","w10099624_hjk","child","child","1",1,53,5,"JOL Version A","baby","Study1","S","Study","Study Phase",34,"JOL",5006,NA,"100","Recall1",5819
"43","W10107879-wra","child","child","1",1,47,5,"JOL Version A","baby","Study1","S","Study","Study Phase",7,"JOL",5005,NA,"70","Recall1",4712
"44","w10110599","child","child","1",1,46,5,"JOL Version A","baby","Study1","S","Study","Study Phase",15,"JOL",5002,NA,"85","Recall1",2176
"45","w10113200_ems","child","child","1",1,14,5,"JOL Version A","baby","Study1","S","Study","Study Phase",72,"JOL",5012,NA,"100","Recall1",3498
"46","w10117888","lotion ","child","0.285714285714286",0,11,5,"JOL Version A","baby","Study1","S","Study","Study Phase",65,"JOL",5002,NA,"10","Recall1",4634
"47","w10123216","child","child","1",1,28,5,"JOL Version A","baby","Study1","S","Study","Study Phase",30,"JOL",5002,NA,"100","Recall1",2347
"48","w843029_SD","child","child","1",1,53,5,"JOL Version A","baby","Study1","S","Study","Study Phase",49,"JOL",5003,NA,"100","Recall1",5087
"49","w881414_BAC","sitter","child","0.166666666666667",0,87,5,"JOL Version A","baby","Study1","S","Study","Study Phase",17,"JOL",5003,NA,"5","Recall1",3383
"50","W8i4325_SMcM","child","child","1",1,69,5,"JOL Version A","baby","Study1","S","Study","Study Phase",41,"JOL",5011,NA,"100","Recall1",10316
"51","w10050706","hoop","racket","0",0,35,5,"JOL Version A","ball","Study1","B","Study","Study Phase",37,"JOL",5001,NA,"20","Recall1",6581
"52","w10099624_hjk","sport","racket","0.333333333333333",0,60,5,"JOL Version A","ball","Study1","B","Study","Study Phase",48,"JOL",5005,NA,"47","Recall1",5588
"53","W10107879-wra","catcher","racket","0.714285714285714",0,70,5,"JOL Version A","ball","Study1","B","Study","Study Phase",85,"JOL",5010,NA,"70","Recall1",8711
"54","w10110599","basket","racket","0.666666666666667",0,60,5,"JOL Version A","ball","Study1","B","Study","Study Phase",39,"JOL",5002,NA,"45","Recall1",2922
"55","w10113200_ems","","racket","0",0,52,5,"JOL Version A","ball","Study1","B","Study","Study Phase",14,"JOL",5013,NA,"100","Recall1",13237
"56","w10117888","racket ","racket","0.857142857142857",1,75,5,"JOL Version A","ball","Study1","B","Study","Study Phase",72,"JOL",5002,NA,"75","Recall1",5270
"57","w10123216","racket","racket","1",1,56,5,"JOL Version A","ball","Study1","B","Study","Study Phase",52,"JOL",5002,NA,"40","Recall1",3642
"58","w843029_SD","racket","racket","1",1,40,5,"JOL Version A","ball","Study1","B","Study","Study Phase",8,"JOL",5003,NA,"100","Recall1",23264
"59","w881414_BAC","game","racket","0.333333333333333",0,77,5,"JOL Version A","ball","Study1","B","Study","Study Phase",24,"JOL",5007,NA,"15","Recall1",2978
"60","W8i4325_SMcM","catcher","racket","0.714285714285714",0,35,5,"JOL Version A","ball","Study1","B","Study","Study Phase",45,"JOL",5010,NA,"75","Recall1",12518
"61","w10050706","toilet","toilet","1",1,67,5,"JOL Version A","bathroom","Study1","S","Study","Study Phase",58,"JOL",5002,NA,"50","Recall1",3607
"62","w10099624_hjk","toliet","toilet","1",1,11,5,"JOL Version A","bathroom","Study1","S","Study","Study Phase",70,"JOL",5007,NA,"90","Recall1",2768
"63","W10107879-wra","toilet","toilet","1",1,27,5,"JOL Version A","bathroom","Study1","S","Study","Study Phase",71,"JOL",5004,NA,"70","Recall1",7353
"64","w10110599","toliet","toilet","1",1,67,5,"JOL Version A","bathroom","Study1","S","Study","Study Phase",52,"JOL",5000,NA,"76","Recall1",2201
"65","w10113200_ems","toilet","toilet","1",1,74,5,"JOL Version A","bathroom","Study1","S","Study","Study Phase",28,"JOL",5015,NA,"100","Recall1",3890
"66","w10117888","toilet ","toilet","0.857142857142857",1,65,5,"JOL Version A","bathroom","Study1","S","Study","Study Phase",76,"JOL",5001,NA,"99","Recall1",4126
"67","w10123216","toilet","toilet","1",1,38,5,"JOL Version A","bathroom","Study1","S","Study","Study Phase",62,"JOL",5002,NA,"80","Recall1",3599
"68","w843029_SD","toilet","toilet","1",1,70,5,"JOL Version A","bathroom","Study1","S","Study","Study Phase",23,"JOL",5003,NA,"100","Recall1",8544
"69","w881414_BAC","toilet","toilet","1",1,33,5,"JOL Version A","bathroom","Study1","S","Study","Study Phase",40,"JOL",5004,NA,"64","Recall1",3026
"70","W8i4325_SMcM","toilet","toilet","1",1,17,5,"JOL Version A","bathroom","Study1","S","Study","Study Phase",81,"JOL",5003,NA,"100","Recall1",12792
"71","w10050706","end","end","1",1,80,5,"JOL Version A","begin","Study1","S","Study","Study Phase",71,"JOL",5001,NA,"100","Recall1",3757
"72","w10099624_hjk","end","end","1",1,84,5,"JOL Version A","begin","Study1","S","Study","Study Phase",24,"JOL",5005,NA,"74","Recall1",1629
"73","W10107879-wra","end","end","1",1,66,5,"JOL Version A","begin","Study1","S","Study","Study Phase",14,"JOL",5005,NA,"75","Recall1",6918
"74","w10110599","end","end","1",1,16,5,"JOL Version A","begin","Study1","S","Study","Study Phase",33,"JOL",5001,NA,"86","Recall1",2508
"75","w10113200_ems","end","end","1",1,45,5,"JOL Version A","begin","Study1","S","Study","Study Phase",81,"JOL",5013,NA,"90","Recall1",3501
"76","w10117888","end ","end","0.75",1,26,5,"JOL Version A","begin","Study1","S","Study","Study Phase",9,"JOL",5004,NA,"99","Recall1",3845
"77","w10123216","end","end","1",1,29,5,"JOL Version A","begin","Study1","S","Study","Study Phase",16,"JOL",5003,NA,"100","Recall1",1965
"78","w843029_SD","end","end","1",1,30,5,"JOL Version A","begin","Study1","S","Study","Study Phase",19,"JOL",5008,NA,"100","Recall1",2718
"79","w881414_BAC","stop","end","0",0,53,5,"JOL Version A","begin","Study1","S","Study","Study Phase",65,"JOL",5003,NA,"39","Recall1",5129
"80","W8i4325_SMcM","end","end","1",1,87,5,"JOL Version A","begin","Study1","S","Study","Study Phase",50,"JOL",5003,NA,"50","Recall1",6781
"81","w10050706","taste","cold","0",0,87,5,"JOL Version A","bitter","Study1","F","Study","Study Phase",82,"JOL",5001,NA,"9","Recall1",3193
"82","w10099624_hjk","sour","cold","0.25",0,64,5,"JOL Version A","bitter","Study1","F","Study","Study Phase",21,"JOL",5010,NA,"84","Recall1",3790
"83","W10107879-wra","","cold","0",0,49,5,"JOL Version A","bitter","Study1","F","Study","Study Phase",31,"JOL",5005,NA,"40","Recall1",3325
"84","w10110599","sweet","cold","0",0,80,5,"JOL Version A","bitter","Study1","F","Study","Study Phase",8,"JOL",5003,NA,"65","Recall1",2211
"85","w10113200_ems","cold","cold","1",1,50,5,"JOL Version A","bitter","Study1","F","Study","Study Phase",82,"JOL",5013,NA,"30","Recall1",3478
"86","w10117888","sweet","cold","0",0,60,5,"JOL Version A","bitter","Study1","F","Study","Study Phase",23,"JOL",5001,NA,"69","Recall1",4075
"87","w10123216","honey","cold","0.2",0,22,5,"JOL Version A","bitter","Study1","F","Study","Study Phase",11,"JOL",5002,NA,"85","Recall1",19591
"88","w843029_SD","cold","cold","1",1,63,5,"JOL Version A","bitter","Study1","F","Study","Study Phase",56,"JOL",5003,NA,"100","Recall1",12164
"89","w881414_BAC","sweet","cold","0",0,82,5,"JOL Version A","bitter","Study1","F","Study","Study Phase",20,"JOL",5010,NA,"10","Recall1",5977
"90","W8i4325_SMcM","cold","cold","1",1,67,5,"JOL Version A","bitter","Study1","F","Study","Study Phase",56,"JOL",5004,NA,"75","Recall1",11422
"91","w10050706","pop","wind","0",0,72,5,"JOL Version A","blow","Study1","S","Study","Study Phase",18,"JOL",5001,NA,"20","Recall1",3488
"92","w10099624_hjk","out","wind","0",0,50,5,"JOL Version A","blow","Study1","S","Study","Study Phase",68,"JOL",5009,NA,"87","Recall1",14201
"93","W10107879-wra","wind","wind","1",1,73,5,"JOL Version A","blow","Study1","S","Study","Study Phase",58,"JOL",5005,NA,"60","Recall1",3654
"94","w10110599","air","wind","0.25",0,79,5,"JOL Version A","blow","Study1","S","Study","Study Phase",13,"JOL",5003,NA,"54","Recall1",5811
"95","w10113200_ems","","wind","0",0,49,5,"JOL Version A","blow","Study1","S","Study","Study Phase",71,"JOL",5012,NA,"50","Recall1",3660
"96","w10117888","dry","wind","0.25",0,66,5,"JOL Version A","blow","Study1","S","Study","Study Phase",78,"JOL",5016,NA,"68","Recall1",7436
"97","w10123216","wind","wind","1",1,51,5,"JOL Version A","blow","Study1","S","Study","Study Phase",9,"JOL",5001,NA,"90","Recall1",2322
"98","w843029_SD","wind","wind","1",1,17,5,"JOL Version A","blow","Study1","S","Study","Study Phase",52,"JOL",5003,NA,"100","Recall1",4292
"99","w881414_BAC","job","wind","0",0,65,5,"JOL Version A","blow","Study1","S","Study","Study Phase",22,"JOL",5006,NA,"27","Recall1",4337
"100","W8i4325_SMcM","wind","wind","1",1,19,5,"JOL Version A","blow","Study1","S","Study","Study Phase",71,"JOL",5003,NA,"70","Recall1",7816
"101","w10050706","","water","0",0,46,5,"JOL Version A","bridge","Study1","F","Study","Study Phase",83,"JOL",5001,NA,"10","Recall1",3832
"102","w10099624_hjk","water","water","1",1,58,5,"JOL Version A","bridge","Study1","F","Study","Study Phase",79,"JOL",5005,NA,"95","Recall1",3168
"103","W10107879-wra","water ","water","0.833333333333333",1,36,5,"JOL Version A","bridge","Study1","F","Study","Study Phase",44,"JOL",5004,NA,"75","Recall1",5405
"104","w10110599","brick","water","0.2",0,61,5,"JOL Version A","bridge","Study1","F","Study","Study Phase",53,"JOL",5004,NA,"67","Recall1",4072
"105","w10113200_ems","water","water","1",1,59,5,"JOL Version A","bridge","Study1","F","Study","Study Phase",56,"JOL",5014,NA,"90","Recall1",3833
"106","w10117888","crosd","water","0.2",0,13,5,"JOL Version A","bridge","Study1","F","Study","Study Phase",22,"JOL",5001,NA,"1","Recall1",5656
"107","w10123216","water","water","1",1,50,5,"JOL Version A","bridge","Study1","F","Study","Study Phase",33,"JOL",5002,NA,"99","Recall1",2125
"108","w843029_SD","water","water","1",1,51,5,"JOL Version A","bridge","Study1","F","Study","Study Phase",47,"JOL",5002,NA,"100","Recall1",15747
"109","w881414_BAC","gap","water","0.2",0,84,5,"JOL Version A","bridge","Study1","F","Study","Study Phase",62,"JOL",5007,NA,"8","Recall1",2948
"110","W8i4325_SMcM","water","water","1",1,15,5,"JOL Version A","bridge","Study1","F","Study","Study Phase",35,"JOL",5003,NA,"50","Recall1",8928
"111","w10050706","wasp","wasp","1",1,27,5,"JOL Version A","bug","Study1","B","Study","Study Phase",59,"JOL",5001,NA,"10","Recall1",4777
"112","w10099624_hjk","wasp","wasp","1",1,62,5,"JOL Version A","bug","Study1","B","Study","Study Phase",43,"JOL",5008,NA,"76","Recall1",2728
"113","W10107879-wra","insect","wasp","0.166666666666667",0,74,5,"JOL Version A","bug","Study1","B","Study","Study Phase",21,"JOL",5004,NA,"70","Recall1",4272
"114","w10110599","bite","wasp","0",0,34,5,"JOL Version A","bug","Study1","B","Study","Study Phase",86,"JOL",5001,NA,"64","Recall1",2034
"115","w10113200_ems","","wasp","0",0,28,5,"JOL Version A","bug","Study1","B","Study","Study Phase",36,"JOL",5009,NA,"50","Recall1",1317
"116","w10117888","wasp","wasp","1",1,90,5,"JOL Version A","bug","Study1","B","Study","Study Phase",37,"JOL",5002,NA,"74","Recall1",8863
"117","w10123216","wasp","wasp","1",1,15,5,"JOL Version A","bug","Study1","B","Study","Study Phase",73,"JOL",5002,NA,"50","Recall1",2031
"118","w843029_SD","wasp","wasp","1",1,60,5,"JOL Version A","bug","Study1","B","Study","Study Phase",21,"JOL",5003,NA,"100","Recall1",12550
"119","w881414_BAC","insect","wasp","0.166666666666667",0,62,5,"JOL Version A","bug","Study1","B","Study","Study Phase",27,"JOL",5007,NA,"30","Recall1",3552
"120","W8i4325_SMcM","wasp","wasp","1",1,50,5,"JOL Version A","bug","Study1","B","Study","Study Phase",47,"JOL",5006,NA,"75","Recall1",5592
"121","w10050706","money","would","0.2",0,18,5,"JOL Version A","cash","Study1","U","Study","Study Phase",77,"JOL",5001,NA,"0","Recall1",6869
"122","w10099624_hjk","dollar","would","0.666666666666667",0,59,5,"JOL Version A","cash","Study1","U","Study","Study Phase",39,"JOL",5006,NA,"1","Recall1",12144
"123","W10107879-wra","money","would","0.2",0,65,5,"JOL Version A","cash","Study1","U","Study","Study Phase",80,"JOL",5013,NA,"55","Recall1",8475
"124","w10110599","money","would","0.2",0,33,5,"JOL Version A","cash","Study1","U","Study","Study Phase",42,"JOL",5008,NA,"35","Recall1",1879
"125","w10113200_ems","money","would","0.2",0,84,5,"JOL Version A","cash","Study1","U","Study","Study Phase",11,"JOL",5013,NA,"0","Recall1",4647
"126","w10117888","choice ","would","0.142857142857143",0,43,5,"JOL Version A","cash","Study1","U","Study","Study Phase",46,"JOL",5002,NA,"8","Recall1",12859
"127","w10123216","wage","would","0.2",0,46,5,"JOL Version A","cash","Study1","U","Study","Study Phase",18,"JOL",5002,NA,"10","Recall1",4363
"128","w843029_SD","flow","would","0.6",0,31,5,"JOL Version A","cash","Study1","U","Study","Study Phase",37,"JOL",5005,NA,"60","Recall1",6267
"129","w881414_BAC","money","would","0.2",0,36,5,"JOL Version A","cash","Study1","U","Study","Study Phase",34,"JOL",5009,NA,"62","Recall1",4455
"130","W8i4325_SMcM","back","would","0",0,31,5,"JOL Version A","cash","Study1","U","Study","Study Phase",54,"JOL",5004,NA,"5","Recall1",11364
"131","w10050706","","hammer","0",0,57,5,"JOL Version A","chisel","Study1","F","Study","Study Phase",14,"JOL",5001,NA,"0","Recall1",907
"132","w10099624_hjk","statue","hammer","0.333333333333333",0,35,5,"JOL Version A","chisel","Study1","F","Study","Study Phase",11,"JOL",5005,NA,"52","Recall1",5877
"133","W10107879-wra","hammer","hammer","1",1,78,5,"JOL Version A","chisel","Study1","F","Study","Study Phase",16,"JOL",5007,NA,"70","Recall1",4481
"134","w10110599","hammer","hammer","1",1,45,5,"JOL Version A","chisel","Study1","F","Study","Study Phase",78,"JOL",5005,NA,"68","Recall1",2097
"135","w10113200_ems","","hammer","0",0,46,5,"JOL Version A","chisel","Study1","F","Study","Study Phase",27,"JOL",5012,NA,"30","Recall1",7151
"136","w10117888","hammer","hammer","1",1,53,5,"JOL Version A","chisel","Study1","F","Study","Study Phase",43,"JOL",5002,NA,"9","Recall1",4995
"137","w10123216","hammer","hammer","1",1,74,5,"JOL Version A","chisel","Study1","F","Study","Study Phase",17,"JOL",5002,NA,"50","Recall1",3448
"138","w843029_SD","hammer","hammer","1",1,57,5,"JOL Version A","chisel","Study1","F","Study","Study Phase",46,"JOL",5010,NA,"100","Recall1",3571
"139","w881414_BAC","knife","hammer","0.166666666666667",0,74,5,"JOL Version A","chisel","Study1","F","Study","Study Phase",54,"JOL",5009,NA,"18","Recall1",8550
"140","W8i4325_SMcM","hammer","hammer","1",1,66,5,"JOL Version A","chisel","Study1","F","Study","Study Phase",84,"JOL",5003,NA,"100","Recall1",7034
"141","w10050706","","round","0",0,62,5,"JOL Version A","circle","Study1","S","Study","Study Phase",55,"JOL",5001,NA,"100","Recall1",3451
"142","w10099624_hjk","round","round","1",1,45,5,"JOL Version A","circle","Study1","S","Study","Study Phase",13,"JOL",5006,NA,"100","Recall1",2076
"143","W10107879-wra","round","round","1",1,71,5,"JOL Version A","circle","Study1","S","Study","Study Phase",17,"JOL",5007,NA,"70","Recall1",6198
"144","w10110599","round","round","1",1,47,5,"JOL Version A","circle","Study1","S","Study","Study Phase",74,"JOL",5004,NA,"68","Recall1",2162
"145","w10113200_ems","round","round","1",1,39,5,"JOL Version A","circle","Study1","S","Study","Study Phase",78,"JOL",5009,NA,"60","Recall1",4219
"146","w10117888","round","round","1",1,54,5,"JOL Version A","circle","Study1","S","Study","Study Phase",68,"JOL",5002,NA,"97","Recall1",3536
"147","w10123216","round","round","1",1,70,5,"JOL Version A","circle","Study1","S","Study","Study Phase",21,"JOL",5002,NA,"98","Recall1",2346
"148","w843029_SD","round","round","1",1,83,5,"JOL Version A","circle","Study1","S","Study","Study Phase",85,"JOL",5003,NA,"100","Recall1",4158
"149","w881414_BAC","round","round","1",1,71,5,"JOL Version A","circle","Study1","S","Study","Study Phase",73,"JOL",5006,NA,"21","Recall1",2755
"150","W8i4325_SMcM","round","round","1",1,37,5,"JOL Version A","circle","Study1","S","Study","Study Phase",23,"JOL",5007,NA,"100","Recall1",9467
"151","w10050706","shoes","attire","0.166666666666667",0,65,5,"JOL Version A","clothes","Study1","B","Study","Study Phase",50,"JOL",5001,NA,"70","Recall1",3444
"152","w10099624_hjk","shirt","attire","0.5",0,33,5,"JOL Version A","clothes","Study1","B","Study","Study Phase",69,"JOL",5008,NA,"74","Recall1",8906
"153","W10107879-wra","pants","attire","0.333333333333333",0,31,5,"JOL Version A","clothes","Study1","B","Study","Study Phase",47,"JOL",5004,NA,"65","Recall1",5060
"154","w10110599","pant","attire","0.333333333333333",0,76,5,"JOL Version A","clothes","Study1","B","Study","Study Phase",56,"JOL",5009,NA,"68","Recall1",5145
"155","w10113200_ems","body","attire","0",0,77,5,"JOL Version A","clothes","Study1","B","Study","Study Phase",76,"JOL",5012,NA,"30","Recall1",8207
"156","w10117888","wear","attire","0.5",0,51,5,"JOL Version A","clothes","Study1","B","Study","Study Phase",86,"JOL",5002,NA,"78","Recall1",3013
"157","w10123216","wardrobe","attire","0.375",0,33,5,"JOL Version A","clothes","Study1","B","Study","Study Phase",77,"JOL",5002,NA,"86","Recall1",20615
"158","w843029_SD","attire","attire","1",1,90,5,"JOL Version A","clothes","Study1","B","Study","Study Phase",59,"JOL",5003,NA,"100","Recall1",21909
"159","w881414_BAC","laundry","attire","0.285714285714286",0,48,5,"JOL Version A","clothes","Study1","B","Study","Study Phase",25,"JOL",5004,NA,"44","Recall1",3067
"160","W8i4325_SMcM","pants","attire","0.333333333333333",0,78,5,"JOL Version A","clothes","Study1","B","Study","Study Phase",49,"JOL",5003,NA,"50","Recall1",30577
"161","w10050706","card","card","1",1,21,5,"JOL Version A","credit","Study1","F","Study","Study Phase",85,"JOL",5001,NA,"100","Recall1",2577
"162","w10099624_hjk","card","card","1",1,44,5,"JOL Version A","credit","Study1","F","Study","Study Phase",22,"JOL",5009,NA,"100","Recall1",4699
"163","W10107879-wra","card","card","1",1,14,5,"JOL Version A","credit","Study1","F","Study","Study Phase",30,"JOL",5004,NA,"90","Recall1",3657
"164","w10110599","card","card","1",1,63,5,"JOL Version A","credit","Study1","F","Study","Study Phase",57,"JOL",5002,NA,"85","Recall1",1818
"165","w10113200_ems","card","card","1",1,24,5,"JOL Version A","credit","Study1","F","Study","Study Phase",18,"JOL",5013,NA,"100","Recall1",3120
"166","w10117888","card","card","1",1,77,5,"JOL Version A","credit","Study1","F","Study","Study Phase",12,"JOL",5001,NA,"99.9","Recall1",2815
"167","w10123216","card","card","1",1,34,5,"JOL Version A","credit","Study1","F","Study","Study Phase",74,"JOL",5002,NA,"100","Recall1",3020
"168","w843029_SD","card","card","1",1,66,5,"JOL Version A","credit","Study1","F","Study","Study Phase",29,"JOL",5004,NA,"100","Recall1",20525
"169","w881414_BAC","card","card","1",1,24,5,"JOL Version A","credit","Study1","F","Study","Study Phase",15,"JOL",5016,NA,"78","Recall1",1884
"170","W8i4325_SMcM","card","card","1",1,28,5,"JOL Version A","credit","Study1","F","Study","Study Phase",76,"JOL",5003,NA,"100","Recall1",6025
"171","w10050706","alley ","cave","0.333333333333333",0,75,5,"JOL Version A","dark","Study1","B","Study","Study Phase",62,"JOL",5001,NA,"30","Recall1",12647
"172","w10099624_hjk","fear","cave","0.5",0,54,5,"JOL Version A","dark","Study1","B","Study","Study Phase",20,"JOL",5007,NA,"65","Recall1",5837
"173","W10107879-wra","cave","cave","1",1,88,5,"JOL Version A","dark","Study1","B","Study","Study Phase",69,"JOL",5011,NA,"75","Recall1",4042
"174","w10110599","cave","cave","1",1,12,5,"JOL Version A","dark","Study1","B","Study","Study Phase",63,"JOL",5002,NA,"79","Recall1",1938
"175","w10113200_ems","","cave","0",0,89,5,"JOL Version A","dark","Study1","B","Study","Study Phase",32,"JOL",5013,NA,"20","Recall1",4588
"176","w10117888","mysterious ","cave","0",0,36,5,"JOL Version A","dark","Study1","B","Study","Study Phase",84,"JOL",5003,NA,"70","Recall1",19537
"177","w10123216","cave","cave","1",1,26,5,"JOL Version A","dark","Study1","B","Study","Study Phase",14,"JOL",5001,NA,"75","Recall1",2446
"178","w843029_SD","cave","cave","1",1,49,5,"JOL Version A","dark","Study1","B","Study","Study Phase",33,"JOL",5003,NA,"100","Recall1",17102
"179","w881414_BAC","night","cave","0",0,32,5,"JOL Version A","dark","Study1","B","Study","Study Phase",47,"JOL",5004,NA,"65","Recall1",2369
"180","W8i4325_SMcM","cave","cave","1",1,29,5,"JOL Version A","dark","Study1","B","Study","Study Phase",85,"JOL",5004,NA,"100","Recall1",13401
"181","w10050706","","business","0",0,29,5,"JOL Version A","death","Study1","U","Study","Study Phase",33,"JOL",5001,NA,"0","Recall1",6390
"182","w10099624_hjk","bed","business","0.25",0,40,5,"JOL Version A","death","Study1","U","Study","Study Phase",65,"JOL",5006,NA,"5","Recall1",9853
"183","W10107879-wra","buissenes","business","0.888888888888889",1,32,5,"JOL Version A","death","Study1","U","Study","Study Phase",9,"JOL",5005,NA,"50","Recall1",10986
"184","w10110599","life","business","0.25",0,18,5,"JOL Version A","death","Study1","U","Study","Study Phase",69,"JOL",5002,NA,"57","Recall1",2127
"185","w10113200_ems","","business","0",0,37,5,"JOL Version A","death","Study1","U","Study","Study Phase",9,"JOL",5010,NA,"30","Recall1",2073
"186","w10117888","end","business","0.25",0,17,5,"JOL Version A","death","Study1","U","Study","Study Phase",73,"JOL",5002,NA,"2","Recall1",6486
"187","w10123216","","business","0",0,82,5,"JOL Version A","death","Study1","U","Study","Study Phase",80,"JOL",5002,NA,"40","Recall1",7155
"188","w843029_SD","sad","business","0.125",0,22,5,"JOL Version A","death","Study1","U","Study","Study Phase",13,"JOL",5004,NA,"30","Recall1",23882
"189","w881414_BAC","row","business","0",0,60,5,"JOL Version A","death","Study1","U","Study","Study Phase",57,"JOL",5013,NA,"32","Recall1",2435
"190","W8i4325_SMcM","funeral","business","0.375",0,59,5,"JOL Version A","death","Study1","U","Study","Study Phase",66,"JOL",5004,NA,"10","Recall1",16960
"191","w10050706","","sight","0",0,76,5,"JOL Version A","debate","Study1","U","Study","Study Phase",29,"JOL",5001,NA,"2","Recall1",7197
"192","w10099624_hjk","political","sight","0.222222222222222",0,87,5,"JOL Version A","debate","Study1","U","Study","Study Phase",35,"JOL",5006,NA,"8","Recall1",5022
"193","W10107879-wra","talk","sight","0.2",0,51,5,"JOL Version A","debate","Study1","U","Study","Study Phase",60,"JOL",5009,NA,"20","Recall1",4542
"194","w10110599","argument ","sight","0.111111111111111",0,24,5,"JOL Version A","debate","Study1","U","Study","Study Phase",64,"JOL",5003,NA,"63","Recall1",4087
"195","w10113200_ems","discussion","sight","0.2",0,42,5,"JOL Version A","debate","Study1","U","Study","Study Phase",85,"JOL",5011,NA,"70","Recall1",10351
"196","w10117888","argue","sight","0.2",0,55,5,"JOL Version A","debate","Study1","U","Study","Study Phase",41,"JOL",5002,NA,"2","Recall1",3849
"197","w10123216","discussion","sight","0.2",0,75,5,"JOL Version A","debate","Study1","U","Study","Study Phase",67,"JOL",5002,NA,"4","Recall1",8673
"198","w843029_SD","argue","sight","0.2",0,59,5,"JOL Version A","debate","Study1","U","Study","Study Phase",74,"JOL",5003,NA,"0","Recall1",3658
"199","w881414_BAC","argue","sight","0.2",0,66,5,"JOL Version A","debate","Study1","U","Study","Study Phase",82,"JOL",5004,NA,"26","Recall1",2831
"200","W8i4325_SMcM","talk","sight","0.2",0,70,5,"JOL Version A","debate","Study1","U","Study","Study Phase",64,"JOL",5002,NA,"5","Recall1",21841
"201","w10050706","bad","bad","1",1,14,5,"JOL Version A","delinquent","Study1","F","Study","Study Phase",9,"JOL",5001,NA,"0","Recall1",4655
"202","w10099624_hjk","bad","bad","1",1,41,5,"JOL Version A","delinquent","Study1","F","Study","Study Phase",38,"JOL",5005,NA,"94","Recall1",7223
"203","W10107879-wra","bad","bad","1",1,45,5,"JOL Version A","delinquent","Study1","F","Study","Study Phase",77,"JOL",5007,NA,"75","Recall1",11907
"204","w10110599","bad","bad","1",1,30,5,"JOL Version A","delinquent","Study1","F","Study","Study Phase",26,"JOL",5003,NA,"87","Recall1",2064
"205","w10113200_ems","bad","bad","1",1,87,5,"JOL Version A","delinquent","Study1","F","Study","Study Phase",25,"JOL",5013,NA,"100","Recall1",3834
"206","w10117888","bad","bad","1",1,29,5,"JOL Version A","delinquent","Study1","F","Study","Study Phase",14,"JOL",5002,NA,"6","Recall1",3309
"207","w10123216","bad","bad","1",1,80,5,"JOL Version A","delinquent","Study1","F","Study","Study Phase",65,"JOL",5001,NA,"90","Recall1",2852
"208","w843029_SD","due","bad","0.333333333333333",0,39,5,"JOL Version A","delinquent","Study1","F","Study","Study Phase",17,"JOL",5004,NA,"100","Recall1",7791
"209","w881414_BAC","bad","bad","1",1,39,5,"JOL Version A","delinquent","Study1","F","Study","Study Phase",10,"JOL",5003,NA,"58","Recall1",7309
"210","W8i4325_SMcM","bad","bad","1",1,88,5,"JOL Version A","delinquent","Study1","F","Study","Study Phase",69,"JOL",5002,NA,"20","Recall1",7277
"211","w10050706","milk","sacking","0.285714285714286",0,48,5,"JOL Version A","dietary","Study1","U","Study","Study Phase",30,"JOL",5001,NA,"0","Recall1",4721
"212","w10099624_hjk","sacking","sacking","1",1,78,5,"JOL Version A","dietary","Study1","U","Study","Study Phase",27,"JOL",5008,NA,"0","Recall1",4884
"213","W10107879-wra","cash","sacking","0.428571428571429",0,26,5,"JOL Version A","dietary","Study1","U","Study","Study Phase",86,"JOL",5007,NA,"20","Recall1",7863
"214","w10110599","sacking","sacking","1",1,56,5,"JOL Version A","dietary","Study1","U","Study","Study Phase",36,"JOL",5002,NA,"23","Recall1",2844
"215","w10113200_ems","","sacking","0",0,38,5,"JOL Version A","dietary","Study1","U","Study","Study Phase",68,"JOL",5012,NA,"20","Recall1",5448
"216","w10117888","fiber ","sacking","0.142857142857143",0,73,5,"JOL Version A","dietary","Study1","U","Study","Study Phase",75,"JOL",5002,NA,"30","Recall1",5778
"217","w10123216","","sacking","0",0,39,5,"JOL Version A","dietary","Study1","U","Study","Study Phase",70,"JOL",5001,NA,"10","Recall1",4483
"218","w843029_SD","weight","sacking","0.285714285714286",0,80,5,"JOL Version A","dietary","Study1","U","Study","Study Phase",45,"JOL",5003,NA,"0","Recall1",22794
"219","w881414_BAC","meal","sacking","0.142857142857143",0,19,5,"JOL Version A","dietary","Study1","U","Study","Study Phase",23,"JOL",5005,NA,"83","Recall1",2379
"220","W8i4325_SMcM","cook","sacking","0.285714285714286",0,71,5,"JOL Version A","dietary","Study1","U","Study","Study Phase",58,"JOL",5003,NA,"5","Recall1",8272
"221","w10050706","stomach","stomach","1",1,38,5,"JOL Version A","digestion","Study1","F","Study","Study Phase",57,"JOL",5001,NA,"50","Recall1",5388
"222","w10099624_hjk","stomach","stomach","1",1,26,5,"JOL Version A","digestion","Study1","F","Study","Study Phase",41,"JOL",5006,NA,"91","Recall1",3098
"223","W10107879-wra","place","stomach","0.285714285714286",0,52,5,"JOL Version A","digestion","Study1","F","Study","Study Phase",13,"JOL",5004,NA,"20","Recall1",5382
"224","w10110599","stomach","stomach","1",1,44,5,"JOL Version A","digestion","Study1","F","Study","Study Phase",65,"JOL",5002,NA,"69","Recall1",3346
"225","w10113200_ems","stomach","stomach","1",1,40,5,"JOL Version A","digestion","Study1","F","Study","Study Phase",44,"JOL",5011,NA,"90","Recall1",4622
"226","w10117888","stomach ","stomach","0.875",1,69,5,"JOL Version A","digestion","Study1","F","Study","Study Phase",69,"JOL",5002,NA,"67","Recall1",5360
"227","w10123216","stomach","stomach","1",1,66,5,"JOL Version A","digestion","Study1","F","Study","Study Phase",79,"JOL",5002,NA,"85","Recall1",3798
"228","w843029_SD","stomach","stomach","1",1,54,5,"JOL Version A","digestion","Study1","F","Study","Study Phase",86,"JOL",5003,NA,"100","Recall1",5210
"229","w881414_BAC","throat","stomach","0.571428571428571",0,76,5,"JOL Version A","digestion","Study1","F","Study","Study Phase",66,"JOL",5006,NA,"16","Recall1",7118
"230","W8i4325_SMcM","tract","stomach","0.428571428571429",0,60,5,"JOL Version A","digestion","Study1","F","Study","Study Phase",57,"JOL",5003,NA,"100","Recall1",14304
"231","w10050706","find","floor","0.2",0,79,5,"JOL Version A","discover","Study1","U","Study","Study Phase",70,"JOL",5001,NA,"23","Recall1",3145
"232","w10099624_hjk","","floor","0",0,38,5,"JOL Version A","discover","Study1","U","Study","Study Phase",84,"JOL",5006,NA,"10","Recall1",5916
"233","W10107879-wra","land","floor","0.2",0,18,5,"JOL Version A","discover","Study1","U","Study","Study Phase",65,"JOL",5010,NA,"45","Recall1",3958
"234","w10110599","card","floor","0.2",0,54,5,"JOL Version A","discover","Study1","U","Study","Study Phase",11,"JOL",5003,NA,"34","Recall1",2461
"235","w10113200_ems","","floor","0",0,48,5,"JOL Version A","discover","Study1","U","Study","Study Phase",48,"JOL",5010,NA,"20","Recall1",2604
"236","w10117888","world ","floor","0.5",0,76,5,"JOL Version A","discover","Study1","U","Study","Study Phase",74,"JOL",5001,NA,"Hey1","Recall1",4075
"237","w10123216","","floor","0",0,59,5,"JOL Version A","discover","Study1","U","Study","Study Phase",56,"JOL",5002,NA,"5","Recall1",4677
"238","w843029_SD","earth","floor","0.2",0,11,5,"JOL Version A","discover","Study1","U","Study","Study Phase",20,"JOL",5002,NA,"0","Recall1",33702
"239","w881414_BAC","card","floor","0.2",0,18,5,"JOL Version A","discover","Study1","U","Study","Study Phase",71,"JOL",5006,NA,"84","Recall1",2459
"240","W8i4325_SMcM","card","floor","0.2",0,49,5,"JOL Version A","discover","Study1","U","Study","Study Phase",72,"JOL",5004,NA,"20","Recall1",11412
"241","w10050706","","talk","0",0,41,5,"JOL Version A","discussion","Study1","F","Study","Study Phase",75,"JOL",5001,NA,"60","Recall1",8098
"242","w10099624_hjk","talk","talk","1",1,21,5,"JOL Version A","discussion","Study1","F","Study","Study Phase",46,"JOL",5007,NA,"88","Recall1",2748
"243","W10107879-wra","talk","talk","1",1,77,5,"JOL Version A","discussion","Study1","F","Study","Study Phase",54,"JOL",5006,NA,"50","Recall1",4199
"244","w10110599","board","talk","0.2",0,26,5,"JOL Version A","discussion","Study1","F","Study","Study Phase",48,"JOL",5002,NA,"54","Recall1",2033
"245","w10113200_ems","debate","talk","0.166666666666667",0,17,5,"JOL Version A","discussion","Study1","F","Study","Study Phase",8,"JOL",5010,NA,"80","Recall1",15477
"246","w10117888","talk","talk","1",1,34,5,"JOL Version A","discussion","Study1","F","Study","Study Phase",54,"JOL",5002,NA,"60","Recall1",3884
"247","w10123216","talk","talk","1",1,76,5,"JOL Version A","discussion","Study1","F","Study","Study Phase",57,"JOL",5002,NA,"85","Recall1",3096
"248","w843029_SD","talk","talk","1",1,56,5,"JOL Version A","discussion","Study1","F","Study","Study Phase",35,"JOL",5007,NA,"100","Recall1",4414
"249","w881414_BAC","talk","talk","1",1,40,5,"JOL Version A","discussion","Study1","F","Study","Study Phase",7,"JOL",5012,NA,"56","Recall1",5165
"250","W8i4325_SMcM","talk","talk","1",1,89,5,"JOL Version A","discussion","Study1","F","Study","Study Phase",59,"JOL",5003,NA,"50","Recall1",10184
"251","w10050706","cold","sip","0",0,77,5,"JOL Version A","drink","Study1","B","Study","Study Phase",8,"JOL",5000,NA,"60","Recall1",3440
"252","w10099624_hjk","","sip","0",0,30,5,"JOL Version A","drink","Study1","B","Study","Study Phase",9,"JOL",5008,NA,"97","Recall1",4602
"253","W10107879-wra","beverage","sip","0",0,19,5,"JOL Version A","drink","Study1","B","Study","Study Phase",36,"JOL",5004,NA,"70","Recall1",6358
"254","w10110599","sip","sip","1",1,43,5,"JOL Version A","drink","Study1","B","Study","Study Phase",44,"JOL",5002,NA,"67","Recall1",2904
"255","w10113200_ems","","sip","0",0,73,5,"JOL Version A","drink","Study1","B","Study","Study Phase",33,"JOL",5013,NA,"50","Recall1",2078
"256","w10117888","water","sip","0",0,24,5,"JOL Version A","drink","Study1","B","Study","Study Phase",18,"JOL",5011,NA,"99","Recall1",7560
"257","w10123216","sip","sip","1",1,85,5,"JOL Version A","drink","Study1","B","Study","Study Phase",50,"JOL",5002,NA,"70","Recall1",2703
"258","w843029_SD","sip","sip","1",1,29,5,"JOL Version A","drink","Study1","B","Study","Study Phase",42,"JOL",5005,NA,"100","Recall1",20556
"259","w881414_BAC","wate","sip","0",0,88,5,"JOL Version A","drink","Study1","B","Study","Study Phase",81,"JOL",5010,NA,"4","Recall1",5717
"260","W8i4325_SMcM","water","sip","0",0,32,5,"JOL Version A","drink","Study1","B","Study","Study Phase",36,"JOL",5003,NA,"50","Recall1",8248
"261","w10050706","time","assignment","0.4",0,45,5,"JOL Version A","due","Study1","S","Study","Study Phase",74,"JOL",5000,NA,"70","Recall1",3785
"262","w10099624_hjk","assignment","assignment","1",1,47,5,"JOL Version A","due","Study1","S","Study","Study Phase",50,"JOL",5006,NA,"99","Recall1",3551
"263","W10107879-wra","assignment","assignment","1",1,44,5,"JOL Version A","due","Study1","S","Study","Study Phase",15,"JOL",5006,NA,"65","Recall1",6076
"264","w10110599","assignment ","assignment","0.909090909090909",1,17,5,"JOL Version A","due","Study1","S","Study","Study Phase",55,"JOL",5003,NA,"43","Recall1",3090
"265","w10113200_ems","assignment ","assignment","0.909090909090909",1,71,5,"JOL Version A","due","Study1","S","Study","Study Phase",63,"JOL",5012,NA,"100","Recall1",4436
"266","w10117888","assignment ","assignment","0.909090909090909",1,62,5,"JOL Version A","due","Study1","S","Study","Study Phase",85,"JOL",5012,NA,"88","Recall1",3861
"267","w10123216","assignment","assignment","1",1,52,5,"JOL Version A","due","Study1","S","Study","Study Phase",35,"JOL",5002,NA,"50","Recall1",4827
"268","w843029_SD","assignment","assignment","1",1,81,5,"JOL Version A","due","Study1","S","Study","Study Phase",11,"JOL",5005,NA,"100","Recall1",6684
"269","w881414_BAC","homework","assignment","0.2",0,45,5,"JOL Version A","due","Study1","S","Study","Study Phase",31,"JOL",5003,NA,"47","Recall1",4538
"270","W8i4325_SMcM","assignment","assignment","1",1,14,5,"JOL Version A","due","Study1","S","Study","Study Phase",24,"JOL",5008,NA,"100","Recall1",20287
"271","w10050706","waste","waste","1",1,55,5,"JOL Version A","dump","Study1","S","Study","Study Phase",67,"JOL",5001,NA,"20","Recall1",3442
"272","w10099624_hjk","trash","waste","0.6",0,43,5,"JOL Version A","dump","Study1","S","Study","Study Phase",25,"JOL",5009,NA,"82","Recall1",2840
"273","W10107879-wra","","waste","0",0,13,5,"JOL Version A","dump","Study1","S","Study","Study Phase",48,"JOL",5004,NA,"65","Recall1",3970
"274","w10110599","photo","waste","0.2",0,48,5,"JOL Version A","dump","Study1","S","Study","Study Phase",68,"JOL",5001,NA,NA,"Recall1",2128
"275","w10113200_ems","","waste","0",0,18,5,"JOL Version A","dump","Study1","S","Study","Study Phase",31,"JOL",5012,NA,"70","Recall1",1442
"276","w10117888","garbage ","waste","0.25",0,80,5,"JOL Version A","dump","Study1","S","Study","Study Phase",64,"JOL",5002,NA,"78","Recall1",7254
"277","w10123216","waste","waste","1",1,67,5,"JOL Version A","dump","Study1","S","Study","Study Phase",71,"JOL",5002,NA,"95","Recall1",2787
"278","w843029_SD","waste","waste","1",1,37,5,"JOL Version A","dump","Study1","S","Study","Study Phase",30,"JOL",5003,NA,"100","Recall1",21223
"279","w881414_BAC","trash","waste","0.6",0,55,5,"JOL Version A","dump","Study1","S","Study","Study Phase",42,"JOL",5004,NA,"37","Recall1",8861
"280","W8i4325_SMcM","garbage","waste","0.285714285714286",0,81,5,"JOL Version A","dump","Study1","S","Study","Study Phase",79,"JOL",5004,NA,"75","Recall1",13240
"281","w10050706","writer","news","0.166666666666667",0,43,5,"JOL Version A","editor","Study1","F","Study","Study Phase",52,"JOL",5002,NA,"5","Recall1",4816
"282","w10099624_hjk","news","news","1",1,88,5,"JOL Version A","editor","Study1","F","Study","Study Phase",36,"JOL",5006,NA,"27","Recall1",2764
"283","W10107879-wra","newspaper ","news","0.4",0,16,5,"JOL Version A","editor","Study1","F","Study","Study Phase",83,"JOL",5004,NA,"50","Recall1",9132
"284","w10110599","work","news","0.25",0,21,5,"JOL Version A","editor","Study1","F","Study","Study Phase",25,"JOL",5004,NA,"76","Recall1",2793
"285","w10113200_ems","","news","0",0,54,5,"JOL Version A","editor","Study1","F","Study","Study Phase",64,"JOL",5012,NA,"80","Recall1",7062
"286","w10117888","newspaper ","news","0.4",0,85,5,"JOL Version A","editor","Study1","F","Study","Study Phase",45,"JOL",5002,NA,"60","Recall1",11949
"287","w10123216","news","news","1",1,89,5,"JOL Version A","editor","Study1","F","Study","Study Phase",54,"JOL",5001,NA,"9","Recall1",2567
"288","w843029_SD","news","news","1",1,28,5,"JOL Version A","editor","Study1","F","Study","Study Phase",7,"JOL",5006,NA,"100","Recall1",6307
"289","w881414_BAC","paper","news","0.2",0,27,5,"JOL Version A","editor","Study1","F","Study","Study Phase",78,"JOL",5004,NA,"75","Recall1",4506
"290","W8i4325_SMcM","newspaper","news","0.444444444444444",0,23,5,"JOL Version A","editor","Study1","F","Study","Study Phase",51,"JOL",5003,NA,"70","Recall1",22086
"291","w10050706","","blaze","0",0,60,5,"JOL Version A","fire","Study1","B","Study","Study Phase",32,"JOL",5001,NA,"10","Recall1",2412
"292","w10099624_hjk","blaze","blaze","1",1,27,5,"JOL Version A","fire","Study1","B","Study","Study Phase",83,"JOL",5006,NA,"95","Recall1",3929
"293","W10107879-wra","inferno","blaze","0.142857142857143",0,81,5,"JOL Version A","fire","Study1","B","Study","Study Phase",82,"JOL",5005,NA,"60","Recall1",32458
"294","w10110599","ice","blaze","0.2",0,31,5,"JOL Version A","fire","Study1","B","Study","Study Phase",28,"JOL",5003,NA,"69","Recall1",1730
"295","w10113200_ems","","blaze","0",0,47,5,"JOL Version A","fire","Study1","B","Study","Study Phase",26,"JOL",5010,NA,"20","Recall1",13333
"296","w10117888","drill","blaze","0.4",0,49,5,"JOL Version A","fire","Study1","B","Study","Study Phase",39,"JOL",5002,NA,"90","Recall1",5742
"297","w10123216","blaze","blaze","1",1,40,5,"JOL Version A","fire","Study1","B","Study","Study Phase",48,"JOL",5001,NA,"75","Recall1",2794
"298","w843029_SD","blaze","blaze","1",1,88,5,"JOL Version A","fire","Study1","B","Study","Study Phase",64,"JOL",5003,NA,"100","Recall1",4656
"299","w881414_BAC","hazard","blaze","0.5",0,79,5,"JOL Version A","fire","Study1","B","Study","Study Phase",14,"JOL",5004,NA,"13","Recall1",3605
"300","W8i4325_SMcM","wood","blaze","0",0,36,5,"JOL Version A","fire","Study1","B","Study","Study Phase",15,"JOL",5008,NA,"50","Recall1",19524
"301","w10050706","","hand","0",0,73,5,"JOL Version A","fix","Study1","U","Study","Study Phase",25,"JOL",5000,NA,"60","Recall1",6066
"302","w10099624_hjk","quick","hand","0",0,89,5,"JOL Version A","fix","Study1","U","Study","Study Phase",31,"JOL",5008,NA,"35","Recall1",5306
"303","W10107879-wra","repair","hand","0.166666666666667",0,58,5,"JOL Version A","fix","Study1","U","Study","Study Phase",32,"JOL",5007,NA,"40","Recall1",6239
"304","w10110599","broke","hand","0",0,53,5,"JOL Version A","fix","Study1","U","Study","Study Phase",49,"JOL",5002,NA,"84","Recall1",3906
"305","w10113200_ems","hand","hand","1",1,72,5,"JOL Version A","fix","Study1","U","Study","Study Phase",17,"JOL",5013,NA,"90","Recall1",5241
"306","w10117888","correct ","hand","0",0,19,5,"JOL Version A","fix","Study1","U","Study","Study Phase",80,"JOL",5012,NA,"1","Recall1",7032
"307","w10123216","hand","hand","1",1,16,5,"JOL Version A","fix","Study1","U","Study","Study Phase",22,"JOL",5002,NA,"35","Recall1",3758
"308","w843029_SD","hand","hand","1",1,73,5,"JOL Version A","fix","Study1","U","Study","Study Phase",51,"JOL",5006,NA,"100","Recall1",21922
"309","w881414_BAC","help","hand","0.25",0,49,5,"JOL Version A","fix","Study1","U","Study","Study Phase",53,"JOL",5006,NA,"43","Recall1",5328
"310","W8i4325_SMcM","car","hand","0.25",0,38,5,"JOL Version A","fix","Study1","U","Study","Study Phase",43,"JOL",5009,NA,"50","Recall1",19630
"311","w10050706","","enough","0",0,53,5,"JOL Version A","full","Study1","B","Study","Study Phase",40,"JOL",5001,NA,"40","Recall1",1679
"312","w10099624_hjk","big","enough","0.166666666666667",0,72,5,"JOL Version A","full","Study1","B","Study","Study Phase",17,"JOL",5006,NA,"75","Recall1",38983
"313","W10107879-wra","enough","enough","1",1,61,5,"JOL Version A","full","Study1","B","Study","Study Phase",34,"JOL",5005,NA,"60","Recall1",5161
"314","w10110599","sentence","enough","0.5",0,42,5,"JOL Version A","full","Study1","B","Study","Study Phase",31,"JOL",5002,NA,"86","Recall1",2533
"315","w10113200_ems","","enough","0",0,33,5,"JOL Version A","full","Study1","B","Study","Study Phase",50,"JOL",5011,NA,"50","Recall1",1358
"316","w10117888","complete ","enough","0.222222222222222",0,84,5,"JOL Version A","full","Study1","B","Study","Study Phase",81,"JOL",5012,NA,"67","Recall1",19136
"317","w10123216","enough","enough","1",1,83,5,"JOL Version A","full","Study1","B","Study","Study Phase",29,"JOL",5002,NA,"78","Recall1",5112
"318","w843029_SD","enough","enough","1",1,23,5,"JOL Version A","full","Study1","B","Study","Study Phase",32,"JOL",5003,NA,"100","Recall1",6369
"319","w881414_BAC","hungry","enough","0.666666666666667",0,29,5,"JOL Version A","full","Study1","B","Study","Study Phase",28,"JOL",5005,NA,"70","Recall1",4681
"320","W8i4325_SMcM","empty","enough","0.166666666666667",0,51,5,"JOL Version A","full","Study1","B","Study","Study Phase",34,"JOL",5002,NA,"75","Recall1",14786
"321","w10050706","","rock","0",0,32,5,"JOL Version A","geology","Study1","F","Study","Study Phase",39,"JOL",5001,NA,"30","Recall1",2406
"322","w10099624_hjk","rock","rock","1",1,32,5,"JOL Version A","geology","Study1","F","Study","Study Phase",78,"JOL",5006,NA,"100","Recall1",2373
"323","W10107879-wra","rock","rock","1",1,40,5,"JOL Version A","geology","Study1","F","Study","Study Phase",28,"JOL",5006,NA,"80","Recall1",4709
"324","w10110599","rock","rock","1",1,41,5,"JOL Version A","geology","Study1","F","Study","Study Phase",30,"JOL",5003,NA,"64","Recall1",1995
"325","w10113200_ems","","rock","0",0,22,5,"JOL Version A","geology","Study1","F","Study","Study Phase",70,"JOL",5007,NA,"10","Recall1",2704
"326","w10117888","rock","rock","1",1,23,5,"JOL Version A","geology","Study1","F","Study","Study Phase",21,"JOL",5002,NA,"88","Recall1",3066
"327","w10123216","rock","rock","1",1,86,5,"JOL Version A","geology","Study1","F","Study","Study Phase",64,"JOL",5003,NA,"60","Recall1",3199
"328","w843029_SD","rock","rock","1",1,15,5,"JOL Version A","geology","Study1","F","Study","Study Phase",34,"JOL",5006,NA,"100","Recall1",4847
"329","w881414_BAC","world","rock","0.4",0,37,5,"JOL Version A","geology","Study1","F","Study","Study Phase",9,"JOL",5011,NA,"61","Recall1",2994
"330","W8i4325_SMcM","rock","rock","1",1,62,5,"JOL Version A","geology","Study1","F","Study","Study Phase",70,"JOL",5002,NA,"100","Recall1",6567
"331","w10050706","fantastic","fantastic","1",1,15,5,"JOL Version A","great","Study1","B","Study","Study Phase",38,"JOL",5001,NA,"0","Recall1",11421
"332","w10099624_hjk","bad","fantastic","0.111111111111111",0,28,5,"JOL Version A","great","Study1","B","Study","Study Phase",57,"JOL",5007,NA,"74","Recall1",6187
"333","W10107879-wra","fantastic","fantastic","1",1,69,5,"JOL Version A","great","Study1","B","Study","Study Phase",12,"JOL",5006,NA,"65","Recall1",6946
"334","w10110599","good","fantastic","0",0,82,5,"JOL Version A","great","Study1","B","Study","Study Phase",51,"JOL",5002,NA,"54","Recall1",2569
"335","w10113200_ems","fantastic","fantastic","1",1,41,5,"JOL Version A","great","Study1","B","Study","Study Phase",80,"JOL",5027,NA,"100","Recall1",18561
"336","w10117888","awesome ","fantastic","0.222222222222222",0,22,5,"JOL Version A","great","Study1","B","Study","Study Phase",70,"JOL",5002,NA,"3","Recall1",7074
"337","w10123216","fantastic","fantastic","1",1,31,5,"JOL Version A","great","Study1","B","Study","Study Phase",27,"JOL",5002,NA,"60","Recall1",3993
"338","w843029_SD","fantastic","fantastic","1",1,50,5,"JOL Version A","great","Study1","B","Study","Study Phase",26,"JOL",5005,NA,"100","Recall1",20235
"339","w881414_BAC","debate","fantastic","0.222222222222222",0,17,5,"JOL Version A","great","Study1","B","Study","Study Phase",36,"JOL",5005,NA,"86","Recall1",3626
"340","W8i4325_SMcM","awesome","fantastic","0.222222222222222",0,53,5,"JOL Version A","great","Study1","B","Study","Study Phase",80,"JOL",5004,NA,"100","Recall1",14667
"341","w10050706","food","bar","0",0,66,5,"JOL Version A","grill","Study1","S","Study","Study Phase",16,"JOL",5001,NA,"40","Recall1",2775
"342","w10099624_hjk","bar","bar","1",1,18,5,"JOL Version A","grill","Study1","S","Study","Study Phase",47,"JOL",5005,NA,"55","Recall1",5284
"343","W10107879-wra","bar","bar","1",1,22,5,"JOL Version A","grill","Study1","S","Study","Study Phase",41,"JOL",5004,NA,"50","Recall1",5903
"344","w10110599","brick","bar","0.4",0,37,5,"JOL Version A","grill","Study1","S","Study","Study Phase",70,"JOL",5003,NA,"75","Recall1",8680
"345","w10113200_ems","","bar","0",0,86,5,"JOL Version A","grill","Study1","S","Study","Study Phase",77,"JOL",5014,NA,"100","Recall1",2085
"346","w10117888","bar","bar","1",1,31,5,"JOL Version A","grill","Study1","S","Study","Study Phase",36,"JOL",5013,NA,"70","Recall1",3133
"347","w10123216","bar","bar","1",1,57,5,"JOL Version A","grill","Study1","S","Study","Study Phase",34,"JOL",5001,NA,"50","Recall1",1893
"348","w843029_SD","bar","bar","1",1,78,5,"JOL Version A","grill","Study1","S","Study","Study Phase",25,"JOL",5003,NA,"100","Recall1",3150
"349","w881414_BAC","oven","bar","0",0,47,5,"JOL Version A","grill","Study1","S","Study","Study Phase",21,"JOL",5004,NA,"45","Recall1",2877
"350","W8i4325_SMcM","bar","bar","1",1,20,5,"JOL Version A","grill","Study1","S","Study","Study Phase",10,"JOL",5008,NA,"75","Recall1",5476
"351","w10050706","sad","car","0.333333333333333",0,22,5,"JOL Version A","happy","Study1","U","Study","Study Phase",43,"JOL",5001,NA,"0","Recall1",2244
"352","w10099624_hjk","delighted","car","0",0,86,5,"JOL Version A","happy","Study1","U","Study","Study Phase",73,"JOL",5016,NA,"6","Recall1",15684
"353","W10107879-wra","","car","0",0,80,5,"JOL Version A","happy","Study1","U","Study","Study Phase",55,"JOL",5005,NA,"40","Recall1",3889
"354","w10110599","sad","car","0.333333333333333",0,22,5,"JOL Version A","happy","Study1","U","Study","Study Phase",76,"JOL",5004,NA,"53","Recall1",1675
"355","w10113200_ems","car","car","1",1,62,5,"JOL Version A","happy","Study1","U","Study","Study Phase",59,"JOL",5010,NA,"30","Recall1",5824
"356","w10117888","sad","car","0.333333333333333",0,59,5,"JOL Version A","happy","Study1","U","Study","Study Phase",66,"JOL",5002,NA,"12","Recall1",4477
"357","w10123216","","car","0",0,43,5,"JOL Version A","happy","Study1","U","Study","Study Phase",49,"JOL",5002,NA,"20","Recall1",5363
"358","w843029_SD","sad","car","0.333333333333333",0,55,5,"JOL Version A","happy","Study1","U","Study","Study Phase",14,"JOL",5002,NA,"0","Recall1",12432
"359","w881414_BAC","sad","car","0.333333333333333",0,50,5,"JOL Version A","happy","Study1","U","Study","Study Phase",74,"JOL",5004,NA,"42","Recall1",2355
"360","W8i4325_SMcM","cute","car","0.25",0,63,5,"JOL Version A","happy","Study1","U","Study","Study Phase",55,"JOL",5003,NA,"10","Recall1",12027
"361","w10050706","weight","growth","0.666666666666667",0,63,5,"JOL Version A","height","Study1","B","Study","Study Phase",17,"JOL",5001,NA,"50","Recall1",2746
"362","w10099624_hjk","growth","growth","1",1,48,5,"JOL Version A","height","Study1","B","Study","Study Phase",29,"JOL",5012,NA,"96","Recall1",2328
"363","W10107879-wra","legnth","growth","0.5",0,57,5,"JOL Version A","height","Study1","B","Study","Study Phase",78,"JOL",5005,NA,"65","Recall1",12476
"364","w10110599","weight","growth","0.666666666666667",0,59,5,"JOL Version A","height","Study1","B","Study","Study Phase",21,"JOL",5003,NA,"64","Recall1",2052
"365","w10113200_ems","growth","growth","1",1,53,5,"JOL Version A","height","Study1","B","Study","Study Phase",62,"JOL",5014,NA,"100","Recall1",5554
"366","w10117888","growth","growth","1",1,72,5,"JOL Version A","height","Study1","B","Study","Study Phase",20,"JOL",5001,NA,"81","Recall1",5607
"367","w10123216","growth","growth","1",1,77,5,"JOL Version A","height","Study1","B","Study","Study Phase",55,"JOL",5002,NA,"66","Recall1",2754
"368","w843029_SD","growth","growth","1",1,35,5,"JOL Version A","height","Study1","B","Study","Study Phase",71,"JOL",5003,NA,"100","Recall1",16390
"369","w881414_BAC","tall","growth","0.166666666666667",0,31,5,"JOL Version A","height","Study1","B","Study","Study Phase",32,"JOL",5002,NA,"66","Recall1",4550
"370","W8i4325_SMcM","weight","growth","0.666666666666667",0,77,5,"JOL Version A","height","Study1","B","Study","Study Phase",31,"JOL",5003,NA,"25","Recall1",12120
"371","w10050706","","cow","0",0,24,5,"JOL Version A","herd","Study1","F","Study","Study Phase",20,"JOL",5001,NA,"0","Recall1",3955
"372","w10099624_hjk","cow","cow","1",1,52,5,"JOL Version A","herd","Study1","F","Study","Study Phase",16,"JOL",5006,NA,"100","Recall1",1858
"373","W10107879-wra","cows","cow","0.75",1,46,5,"JOL Version A","herd","Study1","F","Study","Study Phase",59,"JOL",5008,NA,"66","Recall1",3750
"374","w10110599","cow","cow","1",1,27,5,"JOL Version A","herd","Study1","F","Study","Study Phase",82,"JOL",5002,NA,"89","Recall1",1657
"375","w10113200_ems","","cow","0",0,88,5,"JOL Version A","herd","Study1","F","Study","Study Phase",79,"JOL",5014,NA,"10","Recall1",1576
"376","w10117888","sheep","cow","0",0,21,5,"JOL Version A","herd","Study1","F","Study","Study Phase",56,"JOL",5002,NA,"3","Recall1",4470
"377","w10123216","cow","cow","1",1,69,5,"JOL Version A","herd","Study1","F","Study","Study Phase",69,"JOL",5002,NA,"89","Recall1",1962
"378","w843029_SD","cow","cow","1",1,34,5,"JOL Version A","herd","Study1","F","Study","Study Phase",16,"JOL",5003,NA,"100","Recall1",2457
"379","w881414_BAC","sheep","cow","0",0,54,5,"JOL Version A","herd","Study1","F","Study","Study Phase",46,"JOL",5007,NA,"38","Recall1",2397
"380","W8i4325_SMcM","cow","cow","1",1,73,5,"JOL Version A","herd","Study1","F","Study","Study Phase",38,"JOL",5003,NA,"50","Recall1",4408
"381","w10050706","seek","sick","0.5",0,12,5,"JOL Version A","hide","Study1","U","Study","Study Phase",47,"JOL",5001,NA,"10","Recall1",2899
"382","w10099624_hjk","scared","sick","0.333333333333333",0,65,5,"JOL Version A","hide","Study1","U","Study","Study Phase",80,"JOL",5006,NA,"0","Recall1",4689
"383","W10107879-wra","","sick","0",0,84,5,"JOL Version A","hide","Study1","U","Study","Study Phase",19,"JOL",5004,NA,"45","Recall1",16149
"384","w10110599","seek","sick","0.5",0,39,5,"JOL Version A","hide","Study1","U","Study","Study Phase",23,"JOL",5003,NA,"67","Recall1",1620
"385","w10113200_ems","","sick","0",0,64,5,"JOL Version A","hide","Study1","U","Study","Study Phase",12,"JOL",5014,NA,"10","Recall1",2196
"386","w10117888","seek","sick","0.5",0,18,5,"JOL Version A","hide","Study1","U","Study","Study Phase",26,"JOL",5002,NA,"1","Recall1",8884
"387","w10123216","scare","sick","0.4",0,48,5,"JOL Version A","hide","Study1","U","Study","Study Phase",24,"JOL",5002,NA,"20","Recall1",10485
"388","w843029_SD","seek","sick","0.5",0,71,5,"JOL Version A","hide","Study1","U","Study","Study Phase",80,"JOL",5003,NA,"40","Recall1",14021
"389","w881414_BAC","seek","sick","0.5",0,80,5,"JOL Version A","hide","Study1","U","Study","Study Phase",30,"JOL",5004,NA,"12","Recall1",2094
"390","W8i4325_SMcM","cave","sick","0.25",0,12,5,"JOL Version A","hide","Study1","U","Study","Study Phase",74,"JOL",5007,NA,"0","Recall1",17033
"391","w10050706","bun","bee","0.333333333333333",0,68,5,"JOL Version A","honey","Study1","S","Study","Study Phase",12,"JOL",5001,NA,"20","Recall1",2583
"392","w10099624_hjk","bee","bee","1",1,75,5,"JOL Version A","honey","Study1","S","Study","Study Phase",59,"JOL",5015,NA,"85","Recall1",3688
"393","W10107879-wra","bee","bee","1",1,90,5,"JOL Version A","honey","Study1","S","Study","Study Phase",50,"JOL",5007,NA,"75","Recall1",3490
"394","w10110599","bee","bee","1",1,90,5,"JOL Version A","honey","Study1","S","Study","Study Phase",16,"JOL",5002,NA,"67","Recall1",1405
"395","w10113200_ems","bee","bee","1",1,21,5,"JOL Version A","honey","Study1","S","Study","Study Phase",43,"JOL",5012,NA,"100","Recall1",2827
"396","w10117888","bee","bee","1",1,78,5,"JOL Version A","honey","Study1","S","Study","Study Phase",11,"JOL",5002,NA,"99.9999","Recall1",2899
"397","w10123216","bee","bee","1",1,21,5,"JOL Version A","honey","Study1","S","Study","Study Phase",47,"JOL",5001,NA,"100","Recall1",3933
"398","w843029_SD","bee","bee","1",1,20,5,"JOL Version A","honey","Study1","S","Study","Study Phase",72,"JOL",5003,NA,"100","Recall1",2812
"399","w881414_BAC","bees","bee","0.75",1,81,5,"JOL Version A","honey","Study1","S","Study","Study Phase",29,"JOL",5003,NA,"11","Recall1",2571
"400","W8i4325_SMcM","bee","bee","1",1,16,5,"JOL Version A","honey","Study1","S","Study","Study Phase",48,"JOL",5003,NA,"100","Recall1",4578
"401","w10050706","wasp","sting","0.2",0,84,5,"JOL Version A","hornet","Study1","F","Study","Study Phase",61,"JOL",5001,NA,"40","Recall1",2704
"402","w10099624_hjk","sting","sting","1",1,49,5,"JOL Version A","hornet","Study1","F","Study","Study Phase",15,"JOL",5013,NA,"89","Recall1",5938
"403","W10107879-wra","sting","sting","1",1,85,5,"JOL Version A","hornet","Study1","F","Study","Study Phase",61,"JOL",5006,NA,"75","Recall1",4392
"404","w10110599","sting ","sting","0.833333333333333",1,64,5,"JOL Version A","hornet","Study1","F","Study","Study Phase",47,"JOL",5004,NA,"56","Recall1",3311
"405","w10113200_ems","","sting","0",0,90,5,"JOL Version A","hornet","Study1","F","Study","Study Phase",38,"JOL",5011,NA,"0","Recall1",1558
"406","w10117888","sting","sting","1",1,74,5,"JOL Version A","hornet","Study1","F","Study","Study Phase",82,"JOL",5002,NA,"80","Recall1",4405
"407","w10123216","sting","sting","1",1,27,5,"JOL Version A","hornet","Study1","F","Study","Study Phase",58,"JOL",5001,NA,"80","Recall1",3753
"408","w843029_SD","sting","sting","1",1,62,5,"JOL Version A","hornet","Study1","F","Study","Study Phase",84,"JOL",5004,NA,"100","Recall1",5169
"409","w881414_BAC","game","sting","0.2",0,72,5,"JOL Version A","hornet","Study1","F","Study","Study Phase",59,"JOL",5005,NA,"20","Recall1",2820
"410","W8i4325_SMcM","nest","sting","0.6",0,22,5,"JOL Version A","hornet","Study1","F","Study","Study Phase",18,"JOL",5004,NA,"50","Recall1",11046
"411","w10050706","cold","chili","0.4",0,13,5,"JOL Version A","hot","Study1","B","Study","Study Phase",35,"JOL",5002,NA,"45","Recall1",2588
"412","w10099624_hjk","blaze","chili","0.2",0,36,5,"JOL Version A","hot","Study1","B","Study","Study Phase",56,"JOL",5006,NA,"73","Recall1",8616
"413","W10107879-wra","cold","chili","0.4",0,68,5,"JOL Version A","hot","Study1","B","Study","Study Phase",39,"JOL",5007,NA,"65","Recall1",4885
"414","w10110599","cold","chili","0.4",0,66,5,"JOL Version A","hot","Study1","B","Study","Study Phase",62,"JOL",5001,NA,"68","Recall1",1933
"415","w10113200_ems","chili","chili","1",1,68,5,"JOL Version A","hot","Study1","B","Study","Study Phase",29,"JOL",5018,NA,"100","Recall1",4894
"416","w10117888","cold","chili","0.4",0,52,5,"JOL Version A","hot","Study1","B","Study","Study Phase",27,"JOL",5001,NA,"89","Recall1",3278
"417","w10123216","fire","chili","0.2",0,72,5,"JOL Version A","hot","Study1","B","Study","Study Phase",37,"JOL",5002,NA,"50","Recall1",8694
"418","w843029_SD","chili","chili","1",1,46,5,"JOL Version A","hot","Study1","B","Study","Study Phase",69,"JOL",5004,NA,"100","Recall1",4331
"419","w881414_BAC","cold","chili","0.4",0,35,5,"JOL Version A","hot","Study1","B","Study","Study Phase",8,"JOL",5006,NA,"63","Recall1",2406
"420","W8i4325_SMcM","cold","chili","0.4",0,55,5,"JOL Version A","hot","Study1","B","Study","Study Phase",17,"JOL",5004,NA,"100","Recall1",10759
"421","w10050706","food","famine","0.166666666666667",0,50,5,"JOL Version A","hunger","Study1","B","Study","Study Phase",64,"JOL",5001,NA,"0","Recall1",11112
"422","w10099624_hjk","famished","famine","0.5",0,39,5,"JOL Version A","hunger","Study1","B","Study","Study Phase",74,"JOL",5007,NA,"45","Recall1",3486
"423","W10107879-wra","diet","famine","0.333333333333333",0,11,5,"JOL Version A","hunger","Study1","B","Study","Study Phase",79,"JOL",5005,NA,"60","Recall1",28179
"424","w10110599","starvation ","famine","0.181818181818182",0,55,5,"JOL Version A","hunger","Study1","B","Study","Study Phase",7,"JOL",5001,NA,"59","Recall1",4241
"425","w10113200_ems","","famine","0",0,76,5,"JOL Version A","hunger","Study1","B","Study","Study Phase",67,"JOL",5012,NA,"10","Recall1",2366
"426","w10117888","food","famine","0.166666666666667",0,27,5,"JOL Version A","hunger","Study1","B","Study","Study Phase",79,"JOL",5002,NA,"88","Recall1",9230
"427","w10123216","famine","famine","1",1,13,5,"JOL Version A","hunger","Study1","B","Study","Study Phase",25,"JOL",5002,NA,"40","Recall1",2643
"428","w843029_SD","taste","famine","0.333333333333333",0,24,5,"JOL Version A","hunger","Study1","B","Study","Study Phase",27,"JOL",5003,NA,"40","Recall1",17765
"429","w881414_BAC","food","famine","0.166666666666667",0,63,5,"JOL Version A","hunger","Study1","B","Study","Study Phase",84,"JOL",5007,NA,"29","Recall1",2910
"430","W8i4325_SMcM","food","famine","0.166666666666667",0,84,5,"JOL Version A","hunger","Study1","B","Study","Study Phase",25,"JOL",5009,NA,"95","Recall1",26471
"431","w10050706","clean","clean","1",1,81,5,"JOL Version A","hygiene","Study1","F","Study","Study Phase",68,"JOL",5001,NA,"50","Recall1",4161
"432","w10099624_hjk","clean","clean","1",1,85,5,"JOL Version A","hygiene","Study1","F","Study","Study Phase",44,"JOL",5007,NA,"85","Recall1",4379
"433","W10107879-wra","clean","clean","1",1,42,5,"JOL Version A","hygiene","Study1","F","Study","Study Phase",64,"JOL",5005,NA,"70","Recall1",9254
"434","w10110599","clean ","clean","0.833333333333333",1,71,5,"JOL Version A","hygiene","Study1","F","Study","Study Phase",71,"JOL",5005,NA,"75","Recall1",3197
"435","w10113200_ems","clean","clean","1",1,56,5,"JOL Version A","hygiene","Study1","F","Study","Study Phase",39,"JOL",5014,NA,"80","Recall1",3858
"436","w10117888","shower","clean","0.166666666666667",0,81,5,"JOL Version A","hygiene","Study1","F","Study","Study Phase",67,"JOL",5002,NA,"Hey 77","Recall1",6268
"437","w10123216","clean","clean","1",1,71,5,"JOL Version A","hygiene","Study1","F","Study","Study Phase",45,"JOL",5002,NA,"90","Recall1",2438
"438","w843029_SD","clean","clean","1",1,16,5,"JOL Version A","hygiene","Study1","F","Study","Study Phase",57,"JOL",5003,NA,"100","Recall1",10343
"439","w881414_BAC","","clean","0",0,70,5,"JOL Version A","hygiene","Study1","F","Study","Study Phase",35,"JOL",5002,NA,"22","Recall1",8088
"440","W8i4325_SMcM","clean","clean","1",1,46,5,"JOL Version A","hygiene","Study1","F","Study","Study Phase",30,"JOL",5007,NA,"100","Recall1",10039
"441","w10050706","lock","latch","0.4",0,89,5,"JOL Version A","key","Study1","B","Study","Study Phase",24,"JOL",5001,NA,"15","Recall1",3801
"442","w10099624_hjk","door","latch","0",0,73,5,"JOL Version A","key","Study1","B","Study","Study Phase",30,"JOL",5008,NA,"41","Recall1",5297
"443","W10107879-wra","latch","latch","1",1,86,5,"JOL Version A","key","Study1","B","Study","Study Phase",10,"JOL",5005,NA,"50","Recall1",13706
"444","w10110599","latch","latch","1",1,19,5,"JOL Version A","key","Study1","B","Study","Study Phase",12,"JOL",5002,NA,"42","Recall1",2126
"445","w10113200_ems","","latch","0",0,16,5,"JOL Version A","key","Study1","B","Study","Study Phase",57,"JOL",5016,NA,"50","Recall1",1643
"446","w10117888","latch","latch","1",1,20,5,"JOL Version A","key","Study1","B","Study","Study Phase",48,"JOL",5002,NA,"60","Recall1",3326
"447","w10123216","latch","latch","1",1,84,5,"JOL Version A","key","Study1","B","Study","Study Phase",83,"JOL",5002,NA,"50","Recall1",5115
"448","w843029_SD","latch","latch","1",1,86,5,"JOL Version A","key","Study1","B","Study","Study Phase",48,"JOL",5003,NA,"25","Recall1",4894
"449","w881414_BAC","hole","latch","0.4",0,90,5,"JOL Version A","key","Study1","B","Study","Study Phase",13,"JOL",5007,NA,"2","Recall1",2851
"450","W8i4325_SMcM","word","latch","0",0,68,5,"JOL Version A","key","Study1","B","Study","Study Phase",61,"JOL",5008,NA,"100","Recall1",7170
"451","w10050706","liver","liver","1",1,47,5,"JOL Version A","kidney","Study1","S","Study","Study Phase",60,"JOL",5001,NA,"30","Recall1",3451
"452","w10099624_hjk","liver","liver","1",1,51,5,"JOL Version A","kidney","Study1","S","Study","Study Phase",58,"JOL",5005,NA,"60","Recall1",4550
"453","W10107879-wra","liver","liver","1",1,62,5,"JOL Version A","kidney","Study1","S","Study","Study Phase",11,"JOL",5007,NA,"70","Recall1",3936
"454","w10110599","stone","liver","0.2",0,25,5,"JOL Version A","kidney","Study1","S","Study","Study Phase",58,"JOL",5001,NA,"34","Recall1",1906
"455","w10113200_ems","","liver","0",0,20,5,"JOL Version A","kidney","Study1","S","Study","Study Phase",51,"JOL",5010,NA,"40","Recall1",5540
"456","w10117888","liver","liver","1",1,45,5,"JOL Version A","kidney","Study1","S","Study","Study Phase",44,"JOL",5004,NA,"70","Recall1",3602
"457","w10123216","liver","liver","1",1,53,5,"JOL Version A","kidney","Study1","S","Study","Study Phase",63,"JOL",5002,NA,"80","Recall1",2684
"458","w843029_SD","liver","liver","1",1,33,5,"JOL Version A","kidney","Study1","S","Study","Study Phase",79,"JOL",5003,NA,"100","Recall1",3180
"459","w881414_BAC","stone","liver","0.2",0,85,5,"JOL Version A","kidney","Study1","S","Study","Study Phase",85,"JOL",5004,NA,"7","Recall1",2177
"460","W8i4325_SMcM","liver","liver","1",1,79,5,"JOL Version A","kidney","Study1","S","Study","Study Phase",22,"JOL",5006,NA,"95","Recall1",7075
"461","w10050706","","vase","0",0,31,5,"JOL Version A","king","Study1","U","Study","Study Phase",15,"JOL",5001,NA,"0","Recall1",8704
"462","w10099624_hjk","rule","vase","0.25",0,90,5,"JOL Version A","king","Study1","U","Study","Study Phase",37,"JOL",5006,NA,"0","Recall1",5375
"463","W10107879-wra","queen","vase","0.4",0,79,5,"JOL Version A","king","Study1","U","Study","Study Phase",76,"JOL",5007,NA,"30","Recall1",4532
"464","w10110599","queen","vase","0.4",0,68,5,"JOL Version A","king","Study1","U","Study","Study Phase",59,"JOL",5002,NA,"67","Recall1",2805
"465","w10113200_ems","","vase","0",0,75,5,"JOL Version A","king","Study1","U","Study","Study Phase",21,"JOL",5013,NA,NA,"Recall1",1714
"466","w10117888","valley ","vase","0.285714285714286",0,44,5,"JOL Version A","king","Study1","U","Study","Study Phase",30,"JOL",5010,NA,"5","Recall1",7700
"467","w10123216","","vase","0",0,23,5,"JOL Version A","king","Study1","U","Study","Study Phase",78,"JOL",5001,NA,"30","Recall1",9643
"468","w843029_SD","queen","vase","0.4",0,44,5,"JOL Version A","king","Study1","U","Study","Study Phase",66,"JOL",5004,NA,"30","Recall1",9474
"469","w881414_BAC","queen","vase","0.4",0,89,5,"JOL Version A","king","Study1","U","Study","Study Phase",67,"JOL",5006,NA,"3","Recall1",4696
"470","W8i4325_SMcM","dictator","vase","0",0,24,5,"JOL Version A","king","Study1","U","Study","Study Phase",13,"JOL",5003,NA,"10","Recall1",25180
"471","w10050706","officer","attorney","0.375",0,61,5,"JOL Version A","law","Study1","B","Study","Study Phase",84,"JOL",5001,NA,NA,"Recall1",3660
"472","w10099624_hjk","attorney","attorney","1",1,79,5,"JOL Version A","law","Study1","B","Study","Study Phase",18,"JOL",5006,NA,"88","Recall1",3067
"473","W10107879-wra","attorney ","attorney","0.888888888888889",1,24,5,"JOL Version A","law","Study1","B","Study","Study Phase",53,"JOL",5005,NA,"75","Recall1",6931
"474","w10110599","abide","attorney","0.25",0,74,5,"JOL Version A","law","Study1","B","Study","Study Phase",32,"JOL",5003,NA,"75","Recall1",4476
"475","w10113200_ems","attechy","attorney","0.5",0,79,5,"JOL Version A","law","Study1","B","Study","Study Phase",55,"JOL",5012,NA,"10","Recall1",5045
"476","w10117888","attorney ","attorney","0.888888888888889",1,70,5,"JOL Version A","law","Study1","B","Study","Study Phase",71,"JOL",5001,NA,"78","Recall1",5046
"477","w10123216","","attorney","0",0,42,5,"JOL Version A","law","Study1","B","Study","Study Phase",26,"JOL",5001,NA,"80","Recall1",13179
"478","w843029_SD","attorney","attorney","1",1,27,5,"JOL Version A","law","Study1","B","Study","Study Phase",81,"JOL",5008,NA,"100","Recall1",3207
"479","w881414_BAC","lawyer","attorney","0.5",0,38,5,"JOL Version A","law","Study1","B","Study","Study Phase",77,"JOL",5009,NA,"59","Recall1",3916
"480","W8i4325_SMcM","sheriff","attorney","0.25",0,58,5,"JOL Version A","law","Study1","B","Study","Study Phase",20,"JOL",5003,NA,"100","Recall1",11824
"481","w10050706","salad","salad","1",1,40,5,"JOL Version A","lettuce","Study1","S","Study","Study Phase",7,"JOL",5000,NA,"40","Recall1",3126
"482","w10099624_hjk","salad","salad","1",1,80,5,"JOL Version A","lettuce","Study1","S","Study","Study Phase",76,"JOL",5010,NA,"92","Recall1",2443
"483","W10107879-wra","salade","salad","0.833333333333333",1,25,5,"JOL Version A","lettuce","Study1","S","Study","Study Phase",35,"JOL",5008,NA,"80","Recall1",4591
"484","w10110599","salad","salad","1",1,86,5,"JOL Version A","lettuce","Study1","S","Study","Study Phase",77,"JOL",5001,NA,"53","Recall1",2542
"485","w10113200_ems","salad","salad","1",1,35,5,"JOL Version A","lettuce","Study1","S","Study","Study Phase",40,"JOL",5011,NA,"100","Recall1",4688
"486","w10117888","salad","salad","1",1,33,5,"JOL Version A","lettuce","Study1","S","Study","Study Phase",29,"JOL",5012,NA,"90","Recall1",4732
"487","w10123216","salad","salad","1",1,88,5,"JOL Version A","lettuce","Study1","S","Study","Study Phase",85,"JOL",5001,NA,"90","Recall1",2662
"488","w843029_SD","salad","salad","1",1,77,5,"JOL Version A","lettuce","Study1","S","Study","Study Phase",28,"JOL",5010,NA,"100","Recall1",5763
"489","w881414_BAC","salad","salad","1",1,58,5,"JOL Version A","lettuce","Study1","S","Study","Study Phase",16,"JOL",5004,NA,"34","Recall1",3435
"490","W8i4325_SMcM","salad","salad","1",1,43,5,"JOL Version A","lettuce","Study1","S","Study","Study Phase",21,"JOL",5005,NA,"90","Recall1",5063
"491","w10050706","","woman","0",0,34,5,"JOL Version A","lift","Study1","U","Study","Study Phase",63,"JOL",5001,NA,"0","Recall1",2708
"492","w10099624_hjk","woman","woman","1",1,13,5,"JOL Version A","lift","Study1","U","Study","Study Phase",28,"JOL",5009,NA,"20","Recall1",3257
"493","W10107879-wra","up","woman","0",0,60,5,"JOL Version A","lift","Study1","U","Study","Study Phase",51,"JOL",5005,NA,"55","Recall1",9690
"494","w10110599","woman","woman","1",1,83,5,"JOL Version A","lift","Study1","U","Study","Study Phase",34,"JOL",5002,NA,"64","Recall1",2260
"495","w10113200_ems","","woman","0",0,30,5,"JOL Version A","lift","Study1","U","Study","Study Phase",73,"JOL",5008,NA,"40","Recall1",1279
"496","w10117888","carry","woman","0.2",0,35,5,"JOL Version A","lift","Study1","U","Study","Study Phase",63,"JOL",5001,NA,"Hey 40","Recall1",5486
"497","w10123216","woman","woman","1",1,87,5,"JOL Version A","lift","Study1","U","Study","Study Phase",82,"JOL",5002,NA,"30","Recall1",2891
"498","w843029_SD","woman","woman","1",1,52,5,"JOL Version A","lift","Study1","U","Study","Study Phase",67,"JOL",5004,NA,"60","Recall1",6570
"499","w881414_BAC","weight","woman","0.166666666666667",0,78,5,"JOL Version A","lift","Study1","U","Study","Study Phase",52,"JOL",5007,NA,"14","Recall1",5581
"500","W8i4325_SMcM","woman","woman","1",1,27,5,"JOL Version A","lift","Study1","U","Study","Study Phase",60,"JOL",5003,NA,"5","Recall1",17670
"501","w10050706","find","site","0.25",0,69,5,"JOL Version A","location","Study1","S","Study","Study Phase",66,"JOL",5001,NA,"0","Recall1",6497
"502","w10099624_hjk","","site","0",0,56,5,"JOL Version A","location","Study1","S","Study","Study Phase",51,"JOL",5006,NA,"73","Recall1",5855
"503","W10107879-wra","place","site","0",0,39,5,"JOL Version A","location","Study1","S","Study","Study Phase",74,"JOL",5007,NA,"60","Recall1",4462
"504","w10110599","spot","site","0.5",0,32,5,"JOL Version A","location","Study1","S","Study","Study Phase",27,"JOL",5008,NA,"97","Recall1",2464
"505","w10113200_ems","site","site","1",1,12,5,"JOL Version A","location","Study1","S","Study","Study Phase",46,"JOL",5012,NA,"90","Recall1",4666
"506","w10117888","map","site","0",0,61,5,"JOL Version A","location","Study1","S","Study","Study Phase",60,"JOL",5001,NA,"79","Recall1",4433
"507","w10123216","site","site","1",1,60,5,"JOL Version A","location","Study1","S","Study","Study Phase",13,"JOL",5001,NA,"75","Recall1",2643
"508","w843029_SD","site","site","1",1,36,5,"JOL Version A","location","Study1","S","Study","Study Phase",77,"JOL",5002,NA,"100","Recall1",21054
"509","w881414_BAC","state","site","0.6",0,43,5,"JOL Version A","location","Study1","S","Study","Study Phase",76,"JOL",5004,NA,"49","Recall1",4073
"510","W8i4325_SMcM","place","site","0",0,33,5,"JOL Version A","location","Study1","S","Study","Study Phase",62,"JOL",5003,NA,"50","Recall1",28595
"511","w10050706","gun","position","0.125",0,42,5,"JOL Version A","machine","Study1","U","Study","Study Phase",51,"JOL",5001,NA,"0","Recall1",3033
"512","w10099624_hjk","gun","position","0.125",0,23,5,"JOL Version A","machine","Study1","U","Study","Study Phase",45,"JOL",5010,NA,"5","Recall1",5148
"513","W10107879-wra","placement","position","0.222222222222222",0,33,5,"JOL Version A","machine","Study1","U","Study","Study Phase",18,"JOL",5009,NA,"30","Recall1",9029
"514","w10110599","gun","position","0.125",0,40,5,"JOL Version A","machine","Study1","U","Study","Study Phase",80,"JOL",5002,NA,"57","Recall1",2677
"515","w10113200_ems","","position","0",0,78,5,"JOL Version A","machine","Study1","U","Study","Study Phase",34,"JOL",5015,NA,"20","Recall1",2370
"516","w10117888","gun","position","0.125",0,48,5,"JOL Version A","machine","Study1","U","Study","Study Phase",53,"JOL",5002,NA,"","Recall1",4790
"517","w10123216","location","position","0.625",0,62,5,"JOL Version A","machine","Study1","U","Study","Study Phase",43,"JOL",5002,NA,"10","Recall1",4571
"518","w843029_SD","work","position","0.125",0,38,5,"JOL Version A","machine","Study1","U","Study","Study Phase",38,"JOL",5010,NA,"0","Recall1",18125
"519","w881414_BAC","ride","position","0.125",0,73,5,"JOL Version A","machine","Study1","U","Study","Study Phase",33,"JOL",5010,NA,"19","Recall1",4289
"520","W8i4325_SMcM","gun","position","0.125",0,42,5,"JOL Version A","machine","Study1","U","Study","Study Phase",9,"JOL",5005,NA,"10","Recall1",26599
"521","w10050706","division","division","1",1,82,5,"JOL Version A","math","Study1","B","Study","Study Phase",56,"JOL",5001,NA,"45","Recall1",5378
"522","w10099624_hjk","divison","division","0.75",1,31,5,"JOL Version A","math","Study1","B","Study","Study Phase",64,"JOL",5008,NA,"72","Recall1",5918
"523","W10107879-wra","division","division","1",1,54,5,"JOL Version A","math","Study1","B","Study","Study Phase",25,"JOL",5008,NA,"60","Recall1",5889
"524","w10110599","bad","division","0.125",0,58,5,"JOL Version A","math","Study1","B","Study","Study Phase",40,"JOL",5002,NA,"79","Recall1",2015
"525","w10113200_ems","division","division","1",1,31,5,"JOL Version A","math","Study1","B","Study","Study Phase",83,"JOL",5009,NA,"80","Recall1",5255
"526","w10117888","division ","division","0.888888888888889",1,56,5,"JOL Version A","math","Study1","B","Study","Study Phase",33,"JOL",5001,NA,"97","Recall1",6388
"527","w10123216","division","division","1",1,78,5,"JOL Version A","math","Study1","B","Study","Study Phase",36,"JOL",5001,NA,"67","Recall1",6513
"528","w843029_SD","division","division","1",1,69,5,"JOL Version A","math","Study1","B","Study","Study Phase",73,"JOL",5003,NA,"100","Recall1",23372
"529","w881414_BAC","solve","division","0.375",0,86,5,"JOL Version A","math","Study1","B","Study","Study Phase",45,"JOL",5005,NA,"6","Recall1",2539
"530","W8i4325_SMcM","division","division","1",1,47,5,"JOL Version A","math","Study1","B","Study","Study Phase",46,"JOL",5010,NA,"100","Recall1",32895
"531","w10050706","definition","definition","1",1,86,5,"JOL Version A","meaning","Study1","S","Study","Study Phase",36,"JOL",5000,NA,"40","Recall1",6024
"532","w10099624_hjk","definition","definition","1",1,68,5,"JOL Version A","meaning","Study1","S","Study","Study Phase",63,"JOL",5005,NA,"84","Recall1",3187
"533","W10107879-wra","","definition","0",0,43,5,"JOL Version A","meaning","Study1","S","Study","Study Phase",56,"JOL",5011,NA,"70","Recall1",3252
"534","w10110599","sentence ","definition","0.3",0,87,5,"JOL Version A","meaning","Study1","S","Study","Study Phase",14,"JOL",5001,NA,"74","Recall1",4140
"535","w10113200_ems","definition","definition","1",1,11,5,"JOL Version A","meaning","Study1","S","Study","Study Phase",13,"JOL",5009,NA,"100","Recall1",5180
"536","w10117888","definition ","definition","0.909090909090909",1,57,5,"JOL Version A","meaning","Study1","S","Study","Study Phase",7,"JOL",5002,NA,"91","Recall1",9526
"537","w10123216","definition","definition","1",1,12,5,"JOL Version A","meaning","Study1","S","Study","Study Phase",12,"JOL",5002,NA,"70","Recall1",4960
"538","w843029_SD","definition","definition","1",1,89,5,"JOL Version A","meaning","Study1","S","Study","Study Phase",53,"JOL",5002,NA,"35","Recall1",8388
"539","w881414_BAC","word","definition","0.2",0,56,5,"JOL Version A","meaning","Study1","S","Study","Study Phase",70,"JOL",5004,NA,"36","Recall1",3107
"540","W8i4325_SMcM","definition","definition","1",1,90,5,"JOL Version A","meaning","Study1","S","Study","Study Phase",67,"JOL",5006,NA,"50","Recall1",15493
"541","w10050706","","amount","0",0,36,5,"JOL Version A","number","Study1","S","Study","Study Phase",65,"JOL",5001,NA,"65","Recall1",3788
"542","w10099624_hjk","math","amount","0.5",0,61,5,"JOL Version A","number","Study1","S","Study","Study Phase",67,"JOL",5006,NA,"59","Recall1",6381
"543","W10107879-wra","","amount","0",0,87,5,"JOL Version A","number","Study1","S","Study","Study Phase",70,"JOL",5005,NA,"65","Recall1",10874
"544","w10110599","phone ","amount","0.333333333333333",0,70,5,"JOL Version A","number","Study1","S","Study","Study Phase",19,"JOL",5001,NA,"86","Recall1",4022
"545","w10113200_ems","","amount","0",0,23,5,"JOL Version A","number","Study1","S","Study","Study Phase",65,"JOL",5011,NA,"90","Recall1",15717
"546","w10117888","count","amount","0.666666666666667",0,63,5,"JOL Version A","number","Study1","S","Study","Study Phase",52,"JOL",5001,NA,"85","Recall1",4612
"547","w10123216","amount","amount","1",1,44,5,"JOL Version A","number","Study1","S","Study","Study Phase",81,"JOL",5002,NA,"50","Recall1",9472
"548","w843029_SD","amount","amount","1",1,65,5,"JOL Version A","number","Study1","S","Study","Study Phase",9,"JOL",5003,NA,"100","Recall1",6941
"549","w881414_BAC","one","amount","0.333333333333333",0,57,5,"JOL Version A","number","Study1","S","Study","Study Phase",69,"JOL",5005,NA,"35","Recall1",3613
"550","W8i4325_SMcM","amount","amount","1",1,74,5,"JOL Version A","number","Study1","S","Study","Study Phase",16,"JOL",5005,NA,"50","Recall1",8665
"551","w10050706","flower","flower","1",1,64,5,"JOL Version A","orchid","Study1","F","Study","Study Phase",21,"JOL",5002,NA,"0","Recall1",3900
"552","w10099624_hjk","flower","flower","1",1,20,5,"JOL Version A","orchid","Study1","F","Study","Study Phase",14,"JOL",5008,NA,"25","Recall1",11465
"553","W10107879-wra","flower","flower","1",1,55,5,"JOL Version A","orchid","Study1","F","Study","Study Phase",38,"JOL",5004,NA,"70","Recall1",4175
"554","w10110599","flower","flower","1",1,88,5,"JOL Version A","orchid","Study1","F","Study","Study Phase",81,"JOL",5002,NA,"75","Recall1",2333
"555","w10113200_ems","","flower","0",0,15,5,"JOL Version A","orchid","Study1","F","Study","Study Phase",22,"JOL",5011,NA,"90","Recall1",1872
"556","w10117888","flower","flower","1",1,88,5,"JOL Version A","orchid","Study1","F","Study","Study Phase",31,"JOL",5001,NA,"80","Recall1",3967
"557","w10123216","flower","flower","1",1,18,5,"JOL Version A","orchid","Study1","F","Study","Study Phase",68,"JOL",5003,NA,"80","Recall1",2825
"558","w843029_SD","flower","flower","1",1,82,5,"JOL Version A","orchid","Study1","F","Study","Study Phase",65,"JOL",5003,NA,"100","Recall1",2820
"559","w881414_BAC","grapes","flower","0.333333333333333",0,68,5,"JOL Version A","orchid","Study1","F","Study","Study Phase",64,"JOL",5003,NA,"24","Recall1",6247
"560","W8i4325_SMcM","flower","flower","1",1,25,5,"JOL Version A","orchid","Study1","F","Study","Study Phase",7,"JOL",5010,NA,"100","Recall1",5862
"561","w10050706","place","hungry","0",0,33,5,"JOL Version A","park","Study1","U","Study","Study Phase",10,"JOL",5001,NA,"0","Recall1",6525
"562","w10099624_hjk","car","hungry","0.166666666666667",0,25,5,"JOL Version A","park","Study1","U","Study","Study Phase",7,"JOL",5015,NA,"6","Recall1",5456
"563","W10107879-wra","","hungry","0",0,82,5,"JOL Version A","park","Study1","U","Study","Study Phase",68,"JOL",5006,NA,"20","Recall1",4684
"564","w10110599","swing","hungry","0.333333333333333",0,15,5,"JOL Version A","park","Study1","U","Study","Study Phase",67,"JOL",5002,NA,NA,"Recall1",2644
"565","w10113200_ems","","hungry","0",0,69,5,"JOL Version A","park","Study1","U","Study","Study Phase",86,"JOL",5013,NA,"30","Recall1",5288
"566","w10117888","car","hungry","0.166666666666667",0,16,5,"JOL Version A","park","Study1","U","Study","Study Phase",83,"JOL",5002,NA,"20","Recall1",5110
"567","w10123216","","hungry","0",0,64,5,"JOL Version A","park","Study1","U","Study","Study Phase",7,"JOL",5002,NA,"5","Recall1",5725
"568","w843029_SD","hungry","hungry","1",1,43,5,"JOL Version A","park","Study1","U","Study","Study Phase",76,"JOL",5004,NA,"60","Recall1",22468
"569","w881414_BAC","children","hungry","0.25",0,22,5,"JOL Version A","park","Study1","U","Study","Study Phase",75,"JOL",5004,NA,"80","Recall1",3537
"570","W8i4325_SMcM","ball","hungry","0",0,40,5,"JOL Version A","park","Study1","U","Study","Study Phase",73,"JOL",5002,NA,"30","Recall1",12980
"571","w10050706","future","future","1",1,16,5,"JOL Version A","past","Study1","S","Study","Study Phase",27,"JOL",5001,NA,"80","Recall1",4453
"572","w10099624_hjk","future","future","1",1,77,5,"JOL Version A","past","Study1","S","Study","Study Phase",26,"JOL",5007,NA,"77","Recall1",2349
"573","W10107879-wra","future","future","1",1,37,5,"JOL Version A","past","Study1","S","Study","Study Phase",63,"JOL",5008,NA,"95","Recall1",5128
"574","w10110599","future ","future","0.857142857142857",1,77,5,"JOL Version A","past","Study1","S","Study","Study Phase",29,"JOL",5007,NA,"86","Recall1",2512
"575","w10113200_ems","future","future","1",1,66,5,"JOL Version A","past","Study1","S","Study","Study Phase",74,"JOL",5013,NA,"90","Recall1",4383
"576","w10117888","present ","future","0.375",0,15,5,"JOL Version A","past","Study1","S","Study","Study Phase",62,"JOL",5002,NA,"90","Recall1",7083
"577","w10123216","future","future","1",1,54,5,"JOL Version A","past","Study1","S","Study","Study Phase",15,"JOL",5002,NA,"95","Recall1",8118
"578","w843029_SD","future","future","1",1,79,5,"JOL Version A","past","Study1","S","Study","Study Phase",60,"JOL",5004,NA,"100","Recall1",5944
"579","w881414_BAC","due","future","0.333333333333333",0,46,5,"JOL Version A","past","Study1","S","Study","Study Phase",72,"JOL",5004,NA,"46","Recall1",5102
"580","W8i4325_SMcM","present","future","0.428571428571429",0,64,5,"JOL Version A","past","Study1","S","Study","Study Phase",11,"JOL",5003,NA,"75","Recall1",7039
"581","w10050706","dog","dog","1",1,11,5,"JOL Version A","paw","Study1","F","Study","Study Phase",34,"JOL",5000,NA,"65","Recall1",2556
"582","w10099624_hjk","dog","dog","1",1,71,5,"JOL Version A","paw","Study1","F","Study","Study Phase",49,"JOL",5007,NA,"96","Recall1",1994
"583","W10107879-wra","dog","dog","1",1,75,5,"JOL Version A","paw","Study1","F","Study","Study Phase",45,"JOL",5008,NA,"75","Recall1",4825
"584","w10110599","dog","dog","1",1,84,5,"JOL Version A","paw","Study1","F","Study","Study Phase",60,"JOL",5002,NA,"76","Recall1",2445
"585","w10113200_ems","dog","dog","1",1,58,5,"JOL Version A","paw","Study1","F","Study","Study Phase",10,"JOL",5013,NA,"80","Recall1",8773
"586","w10117888","dog","dog","1",1,50,5,"JOL Version A","paw","Study1","F","Study","Study Phase",32,"JOL",5001,NA,"Hey 99","Recall1",3013
"587","w10123216","dog","dog","1",1,36,5,"JOL Version A","paw","Study1","F","Study","Study Phase",59,"JOL",5001,NA,"99","Recall1",2557
"588","w843029_SD","dog","dog","1",1,26,5,"JOL Version A","paw","Study1","F","Study","Study Phase",62,"JOL",5003,NA,"100","Recall1",3048
"589","w881414_BAC","dog","dog","1",1,11,5,"JOL Version A","paw","Study1","F","Study","Study Phase",86,"JOL",5003,NA,"89","Recall1",1935
"590","W8i4325_SMcM","dog","dog","1",1,61,5,"JOL Version A","paw","Study1","F","Study","Study Phase",78,"JOL",5002,NA,"100","Recall1",4293
"591","w10050706","crash","pilot","0",0,25,5,"JOL Version A","plane","Study1","B","Study","Study Phase",81,"JOL",5001,NA,"10","Recall1",7302
"592","w10099624_hjk","pilot","pilot","1",1,67,5,"JOL Version A","plane","Study1","B","Study","Study Phase",40,"JOL",5007,NA,"94","Recall1",7012
"593","W10107879-wra","","pilot","0",0,34,5,"JOL Version A","plane","Study1","B","Study","Study Phase",73,"JOL",5004,NA,"70","Recall1",3998
"594","w10110599","air","pilot","0.2",0,35,5,"JOL Version A","plane","Study1","B","Study","Study Phase",72,"JOL",5002,NA,"53","Recall1",2436
"595","w10113200_ems","pilot","pilot","1",1,19,5,"JOL Version A","plane","Study1","B","Study","Study Phase",52,"JOL",5013,NA,"100","Recall1",4548
"596","w10117888","pilot ","pilot","0.833333333333333",1,47,5,"JOL Version A","plane","Study1","B","Study","Study Phase",55,"JOL",5002,NA,"89","Recall1",9718
"597","w10123216","pilot","pilot","1",1,49,5,"JOL Version A","plane","Study1","B","Study","Study Phase",23,"JOL",5002,NA,"100","Recall1",2277
"598","w843029_SD","pilot","pilot","1",1,19,5,"JOL Version A","plane","Study1","B","Study","Study Phase",39,"JOL",5003,NA,"100","Recall1",3117
"599","w881414_BAC","pilot","pilot","1",1,75,5,"JOL Version A","plane","Study1","B","Study","Study Phase",63,"JOL",5005,NA,"17","Recall1",2650
"600","W8i4325_SMcM","pilot","pilot","1",1,45,5,"JOL Version A","plane","Study1","B","Study","Study Phase",40,"JOL",5007,NA,"100","Recall1",9740
"601","w10050706","soda","soda","1",1,23,5,"JOL Version A","pop","Study1","S","Study","Study Phase",79,"JOL",5001,NA,"85","Recall1",5014
"602","w10099624_hjk","soda","soda","1",1,24,5,"JOL Version A","pop","Study1","S","Study","Study Phase",71,"JOL",5005,NA,"87","Recall1",1941
"603","W10107879-wra","soda","soda","1",1,28,5,"JOL Version A","pop","Study1","S","Study","Study Phase",72,"JOL",5013,NA,"85","Recall1",4239
"604","w10110599","loud","soda","0.5",0,73,5,"JOL Version A","pop","Study1","S","Study","Study Phase",83,"JOL",5002,NA,"67","Recall1",4819
"605","w10113200_ems","","soda","0",0,25,5,"JOL Version A","pop","Study1","S","Study","Study Phase",41,"JOL",5012,NA,"70","Recall1",3442
"606","w10117888","soda","soda","1",1,64,5,"JOL Version A","pop","Study1","S","Study","Study Phase",50,"JOL",5002,NA,"90","Recall1",3089
"607","w10123216","soda","soda","1",1,35,5,"JOL Version A","pop","Study1","S","Study","Study Phase",86,"JOL",5001,NA,"90","Recall1",2049
"608","w843029_SD","soda","soda","1",1,72,5,"JOL Version A","pop","Study1","S","Study","Study Phase",83,"JOL",5004,NA,"100","Recall1",2846
"609","w881414_BAC","quiz","soda","0",0,61,5,"JOL Version A","pop","Study1","S","Study","Study Phase",80,"JOL",5005,NA,"31","Recall1",2213
"610","W8i4325_SMcM","up","soda","0",0,13,5,"JOL Version A","pop","Study1","S","Study","Study Phase",75,"JOL",5006,NA,"95","Recall1",11805
"611","w10050706","","clutter","0",0,37,5,"JOL Version A","pusher","Study1","U","Study","Study Phase",23,"JOL",5002,NA,"0","Recall1",1479
"612","w10099624_hjk","sacking","clutter","0.142857142857143",0,69,5,"JOL Version A","pusher","Study1","U","Study","Study Phase",32,"JOL",5015,NA,"4","Recall1",5462
"613","W10107879-wra","","clutter","0",0,21,5,"JOL Version A","pusher","Study1","U","Study","Study Phase",33,"JOL",5007,NA,"45","Recall1",4145
"614","w10110599","pull","clutter","0.285714285714286",0,38,5,"JOL Version A","pusher","Study1","U","Study","Study Phase",79,"JOL",5002,NA,"54","Recall1",4498
"615","w10113200_ems","","clutter","0",0,70,5,"JOL Version A","pusher","Study1","U","Study","Study Phase",49,"JOL",5014,NA,"10","Recall1",1095
"616","w10117888","shove ","clutter","0.142857142857143",0,68,5,"JOL Version A","pusher","Study1","U","Study","Study Phase",25,"JOL",5003,NA,"3","Recall1",13195
"617","w10123216","clutter","clutter","1",1,68,5,"JOL Version A","pusher","Study1","U","Study","Study Phase",39,"JOL",5002,NA,"3","Recall1",3746
"618","w843029_SD","clutter","clutter","1",1,85,5,"JOL Version A","pusher","Study1","U","Study","Study Phase",22,"JOL",5004,NA,"30","Recall1",26901
"619","w881414_BAC","handler","clutter","0.428571428571429",0,25,5,"JOL Version A","pusher","Study1","U","Study","Study Phase",39,"JOL",5009,NA,"77","Recall1",10261
"620","W8i4325_SMcM","pull","clutter","0.285714285714286",0,57,5,"JOL Version A","pusher","Study1","U","Study","Study Phase",29,"JOL",5009,NA,"10","Recall1",11804
"621","w10050706","war","war","1",1,71,5,"JOL Version A","revolution","Study1","F","Study","Study Phase",86,"JOL",5002,NA,"40","Recall1",3568
"622","w10099624_hjk","war","war","1",1,74,5,"JOL Version A","revolution","Study1","F","Study","Study Phase",86,"JOL",5007,NA,"70","Recall1",2604
"623","W10107879-wra","war","war","1",1,48,5,"JOL Version A","revolution","Study1","F","Study","Study Phase",52,"JOL",5008,NA,"60","Recall1",3557
"624","w10110599","war","war","1",1,49,5,"JOL Version A","revolution","Study1","F","Study","Study Phase",18,"JOL",5001,NA,"75","Recall1",2057
"625","w10113200_ems","war","war","1",1,51,5,"JOL Version A","revolution","Study1","F","Study","Study Phase",54,"JOL",5011,NA,"100","Recall1",3196
"626","w10117888","war","war","1",1,32,5,"JOL Version A","revolution","Study1","F","Study","Study Phase",57,"JOL",5001,NA,"7","Recall1",3029
"627","w10123216","war","war","1",1,81,5,"JOL Version A","revolution","Study1","F","Study","Study Phase",31,"JOL",5002,NA,"90","Recall1",2100
"628","w843029_SD","war","war","1",1,25,5,"JOL Version A","revolution","Study1","F","Study","Study Phase",31,"JOL",5003,NA,"60","Recall1",2920
"629","w881414_BAC","dance","war","0.2",0,28,5,"JOL Version A","revolution","Study1","F","Study","Study Phase",83,"JOL",5003,NA,"74","Recall1",3067
"630","W8i4325_SMcM","war","war","1",1,30,5,"JOL Version A","revolution","Study1","F","Study","Study Phase",42,"JOL",5004,NA,"100","Recall1",5856
"631","w10050706","plant","plant","1",1,88,5,"JOL Version A","root","Study1","F","Study","Study Phase",72,"JOL",5001,NA,"75","Recall1",3300
"632","w10099624_hjk","plant","plant","1",1,17,5,"JOL Version A","root","Study1","F","Study","Study Phase",62,"JOL",5008,NA,"50","Recall1",2582
"633","W10107879-wra","plant","plant","1",1,53,5,"JOL Version A","root","Study1","F","Study","Study Phase",26,"JOL",5005,NA,"55","Recall1",5222
"634","w10110599","tree","plant","0.2",0,85,5,"JOL Version A","root","Study1","F","Study","Study Phase",73,"JOL",5000,NA,"76","Recall1",3279
"635","w10113200_ems","plant","plant","1",1,13,5,"JOL Version A","root","Study1","F","Study","Study Phase",19,"JOL",5011,NA,"90","Recall1",3530
"636","w10117888","beer","plant","0",0,86,5,"JOL Version A","root","Study1","F","Study","Study Phase",38,"JOL",5002,NA,"5","Recall1",4659
"637","w10123216","plant","plant","1",1,14,5,"JOL Version A","root","Study1","F","Study","Study Phase",19,"JOL",5002,NA,"95","Recall1",2463
"638","w843029_SD","plant","plant","1",1,74,5,"JOL Version A","root","Study1","F","Study","Study Phase",12,"JOL",5010,NA,"100","Recall1",3561
"639","w881414_BAC","vegetable","plant","0.111111111111111",0,30,5,"JOL Version A","root","Study1","F","Study","Study Phase",11,"JOL",5007,NA,"71","Recall1",6998
"640","W8i4325_SMcM","plant","plant","1",1,86,5,"JOL Version A","root","Study1","F","Study","Study Phase",83,"JOL",5002,NA,"50","Recall1",6556
"641","w10050706","","word","0",0,58,5,"JOL Version A","sentence","Study1","B","Study","Study Phase",42,"JOL",5001,NA,"60","Recall1",1321
"642","w10099624_hjk","word","word","1",1,63,5,"JOL Version A","sentence","Study1","B","Study","Study Phase",75,"JOL",5008,NA,"97","Recall1",8946
"643","W10107879-wra","word","word","1",1,41,5,"JOL Version A","sentence","Study1","B","Study","Study Phase",24,"JOL",5004,NA,"75","Recall1",3831
"644","w10110599","word","word","1",1,50,5,"JOL Version A","sentence","Study1","B","Study","Study Phase",17,"JOL",5007,NA,"79","Recall1",2503
"645","w10113200_ems","word","word","1",1,36,5,"JOL Version A","sentence","Study1","B","Study","Study Phase",24,"JOL",5012,NA,"100","Recall1",4204
"646","w10117888","word","word","1",1,28,5,"JOL Version A","sentence","Study1","B","Study","Study Phase",16,"JOL",5002,NA,"60","Recall1",3315
"647","w10123216","word","word","1",1,73,5,"JOL Version A","sentence","Study1","B","Study","Study Phase",61,"JOL",5002,NA,"85","Recall1",2745
"648","w843029_SD","word","word","1",1,42,5,"JOL Version A","sentence","Study1","B","Study","Study Phase",18,"JOL",5003,NA,"100","Recall1",5140
"649","w881414_BAC","word","word","1",1,44,5,"JOL Version A","sentence","Study1","B","Study","Study Phase",41,"JOL",5004,NA,"48","Recall1",2338
"650","W8i4325_SMcM","words","word","0.8",1,56,5,"JOL Version A","sentence","Study1","B","Study","Study Phase",33,"JOL",5009,NA,"75","Recall1",17168
"651","w10050706","","foot","0",0,30,5,"JOL Version A","shoe","Study1","S","Study","Study Phase",53,"JOL",5003,NA,"50","Recall1",1465
"652","w10099624_hjk","foot","foot","1",1,19,5,"JOL Version A","shoe","Study1","S","Study","Study Phase",60,"JOL",5006,NA,"78","Recall1",2893
"653","W10107879-wra","","foot","0",0,30,5,"JOL Version A","shoe","Study1","S","Study","Study Phase",57,"JOL",5004,NA,"70","Recall1",2849
"654","w10110599","lace","foot","0",0,28,5,"JOL Version A","shoe","Study1","S","Study","Study Phase",85,"JOL",5002,NA,"87","Recall1",1863
"655","w10113200_ems","foot","foot","1",1,85,5,"JOL Version A","shoe","Study1","S","Study","Study Phase",84,"JOL",5015,NA,"80","Recall1",3494
"656","w10117888","foot","foot","1",1,82,5,"JOL Version A","shoe","Study1","S","Study","Study Phase",10,"JOL",5012,NA,"88","Recall1",3616
"657","w10123216","fit","foot","0.5",0,63,5,"JOL Version A","shoe","Study1","S","Study","Study Phase",28,"JOL",5002,NA,"90","Recall1",5810
"658","w843029_SD","size","foot","0",0,45,5,"JOL Version A","shoe","Study1","S","Study","Study Phase",43,"JOL",5010,NA,"100","Recall1",3970
"659","w881414_BAC","strinf","foot","0.166666666666667",0,21,5,"JOL Version A","shoe","Study1","S","Study","Study Phase",12,"JOL",5004,NA,"81","Recall1",2768
"660","W8i4325_SMcM","foot","foot","1",1,52,5,"JOL Version A","shoe","Study1","S","Study","Study Phase",37,"JOL",5004,NA,"90","Recall1",14994
"661","w10050706","wake","drowsy","0.166666666666667",0,70,5,"JOL Version A","sleep","Study1","B","Study","Study Phase",69,"JOL",5001,NA,"80","Recall1",2831
"662","w10099624_hjk","night","drowsy","0",0,82,5,"JOL Version A","sleep","Study1","B","Study","Study Phase",52,"JOL",5013,NA,"79","Recall1",5346
"663","W10107879-wra","drowsy","drowsy","1",1,17,5,"JOL Version A","sleep","Study1","B","Study","Study Phase",66,"JOL",5005,NA,"60","Recall1",10734
"664","w10110599","over","drowsy","0.333333333333333",0,20,5,"JOL Version A","sleep","Study1","B","Study","Study Phase",20,"JOL",5001,NA,"48","Recall1",8201
"665","w10113200_ems","","drowsy","0",0,27,5,"JOL Version A","sleep","Study1","B","Study","Study Phase",45,"JOL",5014,NA,"40","Recall1",4411
"666","w10117888","drowsy ","drowsy","0.857142857142857",1,58,5,"JOL Version A","sleep","Study1","B","Study","Study Phase",17,"JOL",5002,NA,"80","Recall1",8061
"667","w10123216","","drowsy","0",0,55,5,"JOL Version A","sleep","Study1","B","Study","Study Phase",84,"JOL",5002,NA,"80","Recall1",3225
"668","w843029_SD","drowsy","drowsy","1",1,76,5,"JOL Version A","sleep","Study1","B","Study","Study Phase",70,"JOL",5003,NA,"100","Recall1",13880
"669","w881414_BAC","kit","drowsy","0",0,20,5,"JOL Version A","sleep","Study1","B","Study","Study Phase",60,"JOL",5004,NA,"82","Recall1",8234
"670","W8i4325_SMcM","awake","drowsy","0.166666666666667",0,21,5,"JOL Version A","sleep","Study1","B","Study","Study Phase",28,"JOL",5005,NA,"75","Recall1",8262
"671","w10050706","stench ","stench","0.857142857142857",1,52,5,"JOL Version A","smell","Study1","B","Study","Study Phase",31,"JOL",5001,NA,"60","Recall1",8299
"672","w10099624_hjk","nose","stench","0.5",0,37,5,"JOL Version A","smell","Study1","B","Study","Study Phase",10,"JOL",5010,NA,"78","Recall1",10224
"673","W10107879-wra","stench","stench","1",1,59,5,"JOL Version A","smell","Study1","B","Study","Study Phase",84,"JOL",5005,NA,"60","Recall1",12373
"674","w10110599","noise","stench","0.5",0,89,5,"JOL Version A","smell","Study1","B","Study","Study Phase",66,"JOL",5002,NA,"67","Recall1",2917
"675","w10113200_ems","stech","stench","0.833333333333333",1,44,5,"JOL Version A","smell","Study1","B","Study","Study Phase",47,"JOL",5013,NA,"30","Recall1",6314
"676","w10117888","taste","stench","0.5",0,30,5,"JOL Version A","smell","Study1","B","Study","Study Phase",61,"JOL",5002,NA,"70","Recall1",7081
"677","w10123216","stench","stench","1",1,32,5,"JOL Version A","smell","Study1","B","Study","Study Phase",44,"JOL",5002,NA,"80","Recall1",2603
"678","w843029_SD","stench","stench","1",1,18,5,"JOL Version A","smell","Study1","B","Study","Study Phase",41,"JOL",5004,NA,"100","Recall1",18094
"679","w881414_BAC","bad","stench","0",0,69,5,"JOL Version A","smell","Study1","B","Study","Study Phase",61,"JOL",5011,NA,"23","Recall1",3753
"680","W8i4325_SMcM","stench","stench","1",1,18,5,"JOL Version A","smell","Study1","B","Study","Study Phase",14,"JOL",5005,NA,"50","Recall1",15630
"681","w10050706","later","belt","0.6",0,49,5,"JOL Version A","soon","Study1","U","Study","Study Phase",73,"JOL",5000,NA,NA,"Recall1",3963
"682","w10099624_hjk","never","belt","0.4",0,16,5,"JOL Version A","soon","Study1","U","Study","Study Phase",55,"JOL",5006,NA,"11","Recall1",7525
