"","id","Response","key","percent_match","Scored","Trial","Condition.Number","Condition.Description","Stimuli.Cue","Stimuli.Shuffle","Stimuli.Stimuli.Notes","Procedure.Trial.Type","Procedure.Shuffle","Response.RT","Response.Response","Procedure.Shuffle.1","Response.RT.1"
"1","10079569MO","","tuck","0",0,65,1,"Read Version A","allow","Study1","U","Study","Study Phase",8005,NA,"Recall1",3155
"2","kw781666","let","tuck","0.25",0,59,1,"Read Version A","allow","Study1","U","Study","Study Phase",8012,NA,"Recall1",3322
"3","w10026256_hc","","tuck","0",0,24,1,"Read Version A","allow","Study1","U","Study","Study Phase",8003,NA,"Recall1",1301
"4","w10029079_mjm","no","tuck","0",0,14,1,"Read Version A","allow","Study1","U","Study","Study Phase",8002,NA,"Recall1",11174
"5","w10065796_sjb","","tuck","0",0,67,1,"Read Version A","allow","Study1","U","Study","Study Phase",8001,NA,"Recall1",1464
"6","w10074365_jbk","work","tuck","0.25",0,28,1,"Read Version A","allow","Study1","U","Study","Study Phase",8008,NA,"Recall1",20275
"7","w10079083bdd","deny","tuck","0",0,28,1,"Read Version A","allow","Study1","U","Study","Study Phase",8004,NA,"Recall1",2753
"8","w10096664_jer","","tuck","0",0,31,1,"Read Version A","allow","Study1","U","Study","Study Phase",8011,NA,"Recall1",3626
"9","w10100015_cgs","no","tuck","0",0,24,1,"Read Version A","allow","Study1","U","Study","Study Phase",8002,NA,"Recall1",1950
"10","w10106710BL","","tuck","0",0,38,1,"Read Version A","allow","Study1","U","Study","Study Phase",8003,NA,"Recall1",2971
"11","w10107871LD","enter","tuck","0.2",0,51,1,"Read Version A","allow","Study1","U","Study","Study Phase",8009,NA,"Recall1",4437
"12","w10112492ke","decline","tuck","0.142857142857143",0,36,1,"Read Version A","allow","Study1","U","Study","Study Phase",8012,NA,"Recall1",6637
"13","w10112505","","tuck","0",0,29,1,"Read Version A","allow","Study1","U","Study","Study Phase",8008,NA,"Recall1",3222
"14","w10123816_lac","parent","tuck","0",0,12,1,"Read Version A","allow","Study1","U","Study","Study Phase",8004,NA,"Recall1",26489
"15","W10129411_WB","tuck","tuck","1",1,47,1,"Read Version A","allow","Study1","U","Study","Study Phase",8000,NA,"Recall1",6844
"16","10079569MO","design","design","1",1,9,1,"Read Version A","architecture","Study1","S","Study","Study Phase",8001,NA,"Recall1",3628
"17","kw781666","design","design","1",1,47,1,"Read Version A","architecture","Study1","S","Study","Study Phase",8007,NA,"Recall1",4611
"18","w10026256_hc","building","design","0.375",0,64,1,"Read Version A","architecture","Study1","S","Study","Study Phase",8003,NA,"Recall1",4642
"19","w10029079_mjm","building","design","0.375",0,46,1,"Read Version A","architecture","Study1","S","Study","Study Phase",8003,NA,"Recall1",2994
"20","w10065796_sjb","build","design","0.333333333333333",0,21,1,"Read Version A","architecture","Study1","S","Study","Study Phase",8001,NA,"Recall1",6978
"21","w10074365_jbk","design","design","1",1,29,1,"Read Version A","architecture","Study1","S","Study","Study Phase",8003,NA,"Recall1",3540
"22","w10079083bdd","design","design","1",1,65,1,"Read Version A","architecture","Study1","S","Study","Study Phase",8002,NA,"Recall1",3436
"23","w10096664_jer","house","design","0.333333333333333",0,81,1,"Read Version A","architecture","Study1","S","Study","Study Phase",8007,NA,"Recall1",4469
"24","w10100015_cgs","building","design","0.375",0,53,1,"Read Version A","architecture","Study1","S","Study","Study Phase",8002,NA,"Recall1",2800
"25","w10106710BL","building","design","0.375",0,16,1,"Read Version A","architecture","Study1","S","Study","Study Phase",8004,NA,"Recall1",3137
"26","w10107871LD","men","design","0.333333333333333",0,78,1,"Read Version A","architecture","Study1","S","Study","Study Phase",8006,NA,"Recall1",4044
"27","w10112492ke","design","design","1",1,73,1,"Read Version A","architecture","Study1","S","Study","Study Phase",8005,NA,"Recall1",11905
"28","w10112505","building","design","0.375",0,77,1,"Read Version A","architecture","Study1","S","Study","Study Phase",8011,NA,"Recall1",3309
"29","w10123816_lac","art","design","0",0,38,1,"Read Version A","architecture","Study1","S","Study","Study Phase",8011,NA,"Recall1",3440
"30","W10129411_WB","design","design","1",1,39,1,"Read Version A","architecture","Study1","S","Study","Study Phase",8000,NA,"Recall1",12778
"31","10079569MO","work","lion","0.25",0,72,1,"Read Version A","art","Study1","U","Study","Study Phase",8003,NA,"Recall1",5392
"32","kw781666","craft","lion","0",0,48,1,"Read Version A","art","Study1","U","Study","Study Phase",8009,NA,"Recall1",3704
"33","w10026256_hc","picasso","lion","0.142857142857143",0,45,1,"Read Version A","art","Study1","U","Study","Study Phase",8001,NA,"Recall1",4881
"34","w10029079_mjm","decore","lion","0.166666666666667",0,20,1,"Read Version A","art","Study1","U","Study","Study Phase",8004,NA,"Recall1",2431
"35","w10065796_sjb","picture","lion","0.142857142857143",0,76,1,"Read Version A","art","Study1","U","Study","Study Phase",8002,NA,"Recall1",3913
"36","w10074365_jbk","paint","lion","0.4",0,73,1,"Read Version A","art","Study1","U","Study","Study Phase",8003,NA,"Recall1",5226
"37","w10079083bdd","museum","lion","0",0,59,1,"Read Version A","art","Study1","U","Study","Study Phase",8002,NA,"Recall1",5678
"38","w10096664_jer","picture","lion","0.142857142857143",0,87,1,"Read Version A","art","Study1","U","Study","Study Phase",8008,NA,"Recall1",6305
"39","w10100015_cgs","ifact","lion","0.2",0,43,1,"Read Version A","art","Study1","U","Study","Study Phase",8001,NA,"Recall1",3340
"40","w10106710BL","","lion","0",0,73,1,"Read Version A","art","Study1","U","Study","Study Phase",8005,NA,"Recall1",2400
"41","w10107871LD","lion","lion","1",1,15,1,"Read Version A","art","Study1","U","Study","Study Phase",8007,NA,"Recall1",12494
"42","w10112492ke","","lion","0",0,20,1,"Read Version A","art","Study1","U","Study","Study Phase",8005,NA,"Recall1",2276
"43","w10112505","work","lion","0.25",0,85,1,"Read Version A","art","Study1","U","Study","Study Phase",8003,NA,"Recall1",3321
"44","w10123816_lac","painting","lion","0.25",0,63,1,"Read Version A","art","Study1","U","Study","Study Phase",8005,NA,"Recall1",9770
"45","W10129411_WB","lion","lion","1",1,10,1,"Read Version A","art","Study1","U","Study","Study Phase",8001,NA,"Recall1",9250
"46","10079569MO","","bronze","0",0,12,1,"Read Version A","artery","Study1","U","Study","Study Phase",8005,NA,"Recall1",5131
"47","kw781666","weapon","bronze","0.5",0,39,1,"Read Version A","artery","Study1","U","Study","Study Phase",8006,NA,"Recall1",23606
"48","w10026256_hc","vein","bronze","0.333333333333333",0,51,1,"Read Version A","artery","Study1","U","Study","Study Phase",8001,NA,"Recall1",2717
"49","w10029079_mjm","medical","bronze","0.142857142857143",0,53,1,"Read Version A","artery","Study1","U","Study","Study Phase",8003,NA,"Recall1",4062
"50","w10065796_sjb","heart","bronze","0.333333333333333",0,66,1,"Read Version A","artery","Study1","U","Study","Study Phase",8001,NA,"Recall1",3807
"51","w10074365_jbk","bronze","bronze","1",1,25,1,"Read Version A","artery","Study1","U","Study","Study Phase",8003,NA,"Recall1",4199
"52","w10079083bdd","","bronze","0",0,18,1,"Read Version A","artery","Study1","U","Study","Study Phase",8003,NA,"Recall1",2920
"53","w10096664_jer","doctor ","bronze","0.428571428571429",0,52,1,"Read Version A","artery","Study1","U","Study","Study Phase",8009,NA,"Recall1",9339
"54","w10100015_cgs","organ","bronze","0.5",0,75,1,"Read Version A","artery","Study1","U","Study","Study Phase",8004,NA,"Recall1",2020
"55","w10106710BL","bronze","bronze","1",1,23,1,"Read Version A","artery","Study1","U","Study","Study Phase",8004,NA,"Recall1",10145
"56","w10107871LD","eat","bronze","0.166666666666667",0,10,1,"Read Version A","artery","Study1","U","Study","Study Phase",8027,NA,"Recall1",4443
"57","w10112492ke","blood","bronze","0.333333333333333",0,77,1,"Read Version A","artery","Study1","U","Study","Study Phase",8004,NA,"Recall1",8192
"58","w10112505","throw","bronze","0.333333333333333",0,61,1,"Read Version A","artery","Study1","U","Study","Study Phase",8004,NA,"Recall1",7394
"59","w10123816_lac","bronze","bronze","1",1,65,1,"Read Version A","artery","Study1","U","Study","Study Phase",8012,NA,"Recall1",4113
"60","W10129411_WB","bronze","bronze","1",1,40,1,"Read Version A","artery","Study1","U","Study","Study Phase",8000,NA,"Recall1",3085
"61","10079569MO","small","child","0.4",0,25,1,"Read Version A","baby","Study1","S","Study","Study Phase",8005,NA,"Recall1",4062
"62","kw781666","","child","0",0,60,1,"Read Version A","baby","Study1","S","Study","Study Phase",8005,NA,"Recall1",474
"63","w10026256_hc","child","child","1",1,73,1,"Read Version A","baby","Study1","S","Study","Study Phase",8002,NA,"Recall1",3408
"64","w10029079_mjm","infant","child","0.166666666666667",0,61,1,"Read Version A","baby","Study1","S","Study","Study Phase",8002,NA,"Recall1",4538
"65","w10065796_sjb","doll","child","0.4",0,59,1,"Read Version A","baby","Study1","S","Study","Study Phase",8001,NA,"Recall1",2663
"66","w10074365_jbk","child","child","1",1,57,1,"Read Version A","baby","Study1","S","Study","Study Phase",8005,NA,"Recall1",4646
"67","w10079083bdd","","child","0",0,87,1,"Read Version A","baby","Study1","S","Study","Study Phase",8003,NA,"Recall1",1225
"68","w10096664_jer","","child","0",0,56,1,"Read Version A","baby","Study1","S","Study","Study Phase",8007,NA,"Recall1",8344
"69","w10100015_cgs","child","child","1",1,66,1,"Read Version A","baby","Study1","S","Study","Study Phase",8002,NA,"Recall1",2159
"70","w10106710BL","child","child","1",1,70,1,"Read Version A","baby","Study1","S","Study","Study Phase",8007,NA,"Recall1",2240
"71","w10107871LD","bottle ","child","0.142857142857143",0,11,1,"Read Version A","baby","Study1","S","Study","Study Phase",8011,NA,"Recall1",7242
"72","w10112492ke","","child","0",0,30,1,"Read Version A","baby","Study1","S","Study","Study Phase",8007,NA,"Recall1",954
"73","w10112505","child","child","1",1,36,1,"Read Version A","baby","Study1","S","Study","Study Phase",8005,NA,"Recall1",3040
"74","w10123816_lac","cry","child","0.2",0,41,1,"Read Version A","baby","Study1","S","Study","Study Phase",8003,NA,"Recall1",10710
"75","W10129411_WB","child","child","1",1,50,1,"Read Version A","baby","Study1","S","Study","Study Phase",8000,NA,"Recall1",7255
"76","10079569MO","","racket","0",0,81,1,"Read Version A","ball","Study1","B","Study","Study Phase",8005,NA,"Recall1",1973
"77","kw781666","","racket","0",0,23,1,"Read Version A","ball","Study1","B","Study","Study Phase",8011,NA,"Recall1",256
"78","w10026256_hc","circle","racket","0.666666666666667",0,67,1,"Read Version A","ball","Study1","B","Study","Study Phase",8001,NA,"Recall1",5670
"79","w10029079_mjm","baseball","racket","0.375",0,64,1,"Read Version A","ball","Study1","B","Study","Study Phase",8005,NA,"Recall1",5782
"80","w10065796_sjb","bounc","racket","0.166666666666667",0,57,1,"Read Version A","ball","Study1","B","Study","Study Phase",8001,NA,"Recall1",5207
"81","w10074365_jbk","toss","racket","0.166666666666667",0,26,1,"Read Version A","ball","Study1","B","Study","Study Phase",8003,NA,"Recall1",3633
"82","w10079083bdd","raquet","racket","0.666666666666667",0,12,1,"Read Version A","ball","Study1","B","Study","Study Phase",8003,NA,"Recall1",4669
"83","w10096664_jer","team","racket","0.5",0,83,1,"Read Version A","ball","Study1","B","Study","Study Phase",8008,NA,"Recall1",5017
"84","w10100015_cgs","sack","racket","0.5",0,78,1,"Read Version A","ball","Study1","B","Study","Study Phase",8006,NA,"Recall1",1566
"85","w10106710BL","catcher","racket","0.714285714285714",0,47,1,"Read Version A","ball","Study1","B","Study","Study Phase",8005,NA,"Recall1",4949
"86","w10107871LD","circle","racket","0.666666666666667",0,13,1,"Read Version A","ball","Study1","B","Study","Study Phase",8018,NA,"Recall1",8272
"87","w10112492ke","racket","racket","1",1,48,1,"Read Version A","ball","Study1","B","Study","Study Phase",8008,NA,"Recall1",27090
"88","w10112505","circle","racket","0.666666666666667",0,50,1,"Read Version A","ball","Study1","B","Study","Study Phase",8005,NA,"Recall1",3300
"89","w10123816_lac","catcher","racket","0.714285714285714",0,75,1,"Read Version A","ball","Study1","B","Study","Study Phase",8002,NA,"Recall1",3790
"90","W10129411_WB","racket","racket","1",1,17,1,"Read Version A","ball","Study1","B","Study","Study Phase",8000,NA,"Recall1",27519
"91","10079569MO","toilet","toilet","1",1,22,1,"Read Version A","bathroom","Study1","S","Study","Study Phase",8002,NA,"Recall1",3653
"92","kw781666","tiolet","toilet","1",1,61,1,"Read Version A","bathroom","Study1","S","Study","Study Phase",8006,NA,"Recall1",3887
"93","w10026256_hc","pee","toilet","0.166666666666667",0,82,1,"Read Version A","bathroom","Study1","S","Study","Study Phase",8001,NA,"Recall1",5646
"94","w10029079_mjm","toilet","toilet","1",1,65,1,"Read Version A","bathroom","Study1","S","Study","Study Phase",8002,NA,"Recall1",2354
"95","w10065796_sjb","sink","toilet","0.166666666666667",0,39,1,"Read Version A","bathroom","Study1","S","Study","Study Phase",8003,NA,"Recall1",2384
"96","w10074365_jbk","shower","toilet","0.333333333333333",0,45,1,"Read Version A","bathroom","Study1","S","Study","Study Phase",8007,NA,"Recall1",5184
"97","w10079083bdd","toilet","toilet","1",1,86,1,"Read Version A","bathroom","Study1","S","Study","Study Phase",8003,NA,"Recall1",2843
"98","w10096664_jer","floor ","toilet","0.5",0,23,1,"Read Version A","bathroom","Study1","S","Study","Study Phase",8006,NA,"Recall1",7829
"99","w10100015_cgs","toilet","toilet","1",1,70,1,"Read Version A","bathroom","Study1","S","Study","Study Phase",8002,NA,"Recall1",2317
"100","w10106710BL","toilet","toilet","1",1,34,1,"Read Version A","bathroom","Study1","S","Study","Study Phase",8005,NA,"Recall1",2178
"101","w10107871LD","toliot","toilet","1",1,27,1,"Read Version A","bathroom","Study1","S","Study","Study Phase",8008,NA,"Recall1",4810
"102","w10112492ke","toilet","toilet","1",1,54,1,"Read Version A","bathroom","Study1","S","Study","Study Phase",8005,NA,"Recall1",8563
"103","w10112505","toliet","toilet","1",1,35,1,"Read Version A","bathroom","Study1","S","Study","Study Phase",8012,NA,"Recall1",4142
"104","w10123816_lac","toilet","toilet","1",1,64,1,"Read Version A","bathroom","Study1","S","Study","Study Phase",8002,NA,"Recall1",5169
"105","W10129411_WB","toilet","toilet","1",1,23,1,"Read Version A","bathroom","Study1","S","Study","Study Phase",8001,NA,"Recall1",1917
"106","10079569MO","end","end","1",1,48,1,"Read Version A","begin","Study1","S","Study","Study Phase",8007,NA,"Recall1",2221
"107","kw781666","start","end","0",0,67,1,"Read Version A","begin","Study1","S","Study","Study Phase",8006,NA,"Recall1",2800
"108","w10026256_hc","stop","end","0",0,75,1,"Read Version A","begin","Study1","S","Study","Study Phase",8001,NA,"Recall1",4399
"109","w10029079_mjm","end","end","1",1,78,1,"Read Version A","begin","Study1","S","Study","Study Phase",8002,NA,"Recall1",1863
"110","w10065796_sjb","end","end","1",1,45,1,"Read Version A","begin","Study1","S","Study","Study Phase",8000,NA,"Recall1",1470
"111","w10074365_jbk","start","end","0",0,81,1,"Read Version A","begin","Study1","S","Study","Study Phase",8002,NA,"Recall1",3488
"112","w10079083bdd","end","end","1",1,75,1,"Read Version A","begin","Study1","S","Study","Study Phase",8003,NA,"Recall1",1480
"113","w10096664_jer","start ","end","0",0,33,1,"Read Version A","begin","Study1","S","Study","Study Phase",8009,NA,"Recall1",9544
"114","w10100015_cgs","end","end","1",1,32,1,"Read Version A","begin","Study1","S","Study","Study Phase",8002,NA,"Recall1",1490
"115","w10106710BL","end","end","1",1,14,1,"Read Version A","begin","Study1","S","Study","Study Phase",8002,NA,"Recall1",1644
"116","w10107871LD","new","end","0.666666666666667",0,69,1,"Read Version A","begin","Study1","S","Study","Study Phase",8008,NA,"Recall1",5255
"117","w10112492ke","end","end","1",1,21,1,"Read Version A","begin","Study1","S","Study","Study Phase",8005,NA,"Recall1",13175
"118","w10112505","end","end","1",1,38,1,"Read Version A","begin","Study1","S","Study","Study Phase",8003,NA,"Recall1",2378
"119","w10123816_lac","end","end","1",1,30,1,"Read Version A","begin","Study1","S","Study","Study Phase",8002,NA,"Recall1",3814
"120","W10129411_WB","end","end","1",1,11,1,"Read Version A","begin","Study1","S","Study","Study Phase",8001,NA,"Recall1",22189
"121","10079569MO","cold","cold","1",1,19,1,"Read Version A","bitter","Study1","F","Study","Study Phase",8006,NA,"Recall1",5591
"122","kw781666","cold","cold","1",1,19,1,"Read Version A","bitter","Study1","F","Study","Study Phase",8007,NA,"Recall1",7883
"123","w10026256_hc","sweet","cold","0",0,27,1,"Read Version A","bitter","Study1","F","Study","Study Phase",8001,NA,"Recall1",3407
"124","w10029079_mjm","sweet","cold","0",0,43,1,"Read Version A","bitter","Study1","F","Study","Study Phase",8002,NA,"Recall1",6997
"125","w10065796_sjb","salty","cold","0.2",0,24,1,"Read Version A","bitter","Study1","F","Study","Study Phase",8000,NA,"Recall1",2997
"126","w10074365_jbk","cold","cold","1",1,51,1,"Read Version A","bitter","Study1","F","Study","Study Phase",8003,NA,"Recall1",3666
"127","w10079083bdd","sweet","cold","0",0,85,1,"Read Version A","bitter","Study1","F","Study","Study Phase",8002,NA,"Recall1",3543
"128","w10096664_jer","sweet","cold","0",0,88,1,"Read Version A","bitter","Study1","F","Study","Study Phase",8007,NA,"Recall1",7555
"129","w10100015_cgs","sour","cold","0.25",0,40,1,"Read Version A","bitter","Study1","F","Study","Study Phase",8002,NA,"Recall1",1940
"130","w10106710BL","sweet","cold","0",0,25,1,"Read Version A","bitter","Study1","F","Study","Study Phase",8003,NA,"Recall1",2830
"131","w10107871LD","sweet","cold","0",0,34,1,"Read Version A","bitter","Study1","F","Study","Study Phase",8007,NA,"Recall1",4171
"132","w10112492ke","sweet","cold","0",0,12,1,"Read Version A","bitter","Study1","F","Study","Study Phase",8004,NA,"Recall1",4008
"133","w10112505","sweet","cold","0",0,67,1,"Read Version A","bitter","Study1","F","Study","Study Phase",8005,NA,"Recall1",13152
"134","w10123816_lac","cold","cold","1",1,42,1,"Read Version A","bitter","Study1","F","Study","Study Phase",8002,NA,"Recall1",3569
"135","W10129411_WB","cold","cold","1",1,21,1,"Read Version A","bitter","Study1","F","Study","Study Phase",8000,NA,"Recall1",2372
"136","10079569MO","wind","wind","1",1,61,1,"Read Version A","blow","Study1","S","Study","Study Phase",8004,NA,"Recall1",2053
"137","kw781666","wind","wind","1",1,17,1,"Read Version A","blow","Study1","S","Study","Study Phase",8007,NA,"Recall1",8435
"138","w10026256_hc","up","wind","0",0,48,1,"Read Version A","blow","Study1","S","Study","Study Phase",8001,NA,"Recall1",2178
"139","w10029079_mjm","snow","wind","0.5",0,9,1,"Read Version A","blow","Study1","S","Study","Study Phase",8002,NA,"Recall1",3288
"140","w10065796_sjb","","wind","0",0,15,1,"Read Version A","blow","Study1","S","Study","Study Phase",8002,NA,"Recall1",1886
"141","w10074365_jbk","down","wind","0.75",1,32,1,"Read Version A","blow","Study1","S","Study","Study Phase",8005,NA,"Recall1",4092
"142","w10079083bdd","","wind","0",0,50,1,"Read Version A","blow","Study1","S","Study","Study Phase",8002,NA,"Recall1",2761
"143","w10096664_jer","sneeze ","wind","0.142857142857143",0,49,1,"Read Version A","blow","Study1","S","Study","Study Phase",8011,NA,"Recall1",11492
"144","w10100015_cgs","mind","wind","0.75",1,35,1,"Read Version A","blow","Study1","S","Study","Study Phase",8002,NA,"Recall1",1904
"145","w10106710BL","wind","wind","1",1,58,1,"Read Version A","blow","Study1","S","Study","Study Phase",8005,NA,"Recall1",1608
"146","w10107871LD","bubble","wind","0",0,54,1,"Read Version A","blow","Study1","S","Study","Study Phase",8028,NA,"Recall1",6417
"147","w10112492ke","sneeze","wind","0.166666666666667",0,56,1,"Read Version A","blow","Study1","S","Study","Study Phase",8005,NA,"Recall1",7374
"148","w10112505","stem","wind","0",0,62,1,"Read Version A","blow","Study1","S","Study","Study Phase",8016,NA,"Recall1",4983
"149","w10123816_lac","wind","wind","1",1,66,1,"Read Version A","blow","Study1","S","Study","Study Phase",8012,NA,"Recall1",3102
"150","W10129411_WB","blow","wind","0.25",0,38,1,"Read Version A","blow","Study1","S","Study","Study Phase",8000,NA,"Recall1",9366
"151","10079569MO","","water","0",0,11,1,"Read Version A","bridge","Study1","F","Study","Study Phase",8000,NA,"Recall1",1471
"152","kw781666","gap","water","0.2",0,30,1,"Read Version A","bridge","Study1","F","Study","Study Phase",8007,NA,"Recall1",4655
"153","w10026256_hc","water","water","1",1,41,1,"Read Version A","bridge","Study1","F","Study","Study Phase",8431,NA,"Recall1",3938
"154","w10029079_mjm","road","water","0.4",0,24,1,"Read Version A","bridge","Study1","F","Study","Study Phase",8002,NA,"Recall1",6733
"155","w10065796_sjb","walk","water","0.4",0,81,1,"Read Version A","bridge","Study1","F","Study","Study Phase",8000,NA,"Recall1",2536
"156","w10074365_jbk","water","water","1",1,31,1,"Read Version A","bridge","Study1","F","Study","Study Phase",8003,NA,"Recall1",3470
"157","w10079083bdd","river","water","0.6",0,48,1,"Read Version A","bridge","Study1","F","Study","Study Phase",8002,NA,"Recall1",3047
"158","w10096664_jer","river","water","0.6",0,19,1,"Read Version A","bridge","Study1","F","Study","Study Phase",8024,NA,"Recall1",5041
"159","w10100015_cgs","road","water","0.4",0,63,1,"Read Version A","bridge","Study1","F","Study","Study Phase",8003,NA,"Recall1",4925
"160","w10106710BL","water","water","1",1,15,1,"Read Version A","bridge","Study1","F","Study","Study Phase",8006,NA,"Recall1",1629
"161","w10107871LD","water","water","1",1,56,1,"Read Version A","bridge","Study1","F","Study","Study Phase",8024,NA,"Recall1",4908
"162","w10112492ke","","water","0",0,84,1,"Read Version A","bridge","Study1","F","Study","Study Phase",8004,NA,"Recall1",8853
"163","w10112505","burn","water","0.2",0,82,1,"Read Version A","bridge","Study1","F","Study","Study Phase",8004,NA,"Recall1",4044
"164","w10123816_lac","water","water","1",1,31,1,"Read Version A","bridge","Study1","F","Study","Study Phase",8004,NA,"Recall1",3588
"165","W10129411_WB","water","water","1",1,64,1,"Read Version A","bridge","Study1","F","Study","Study Phase",8001,NA,"Recall1",2324
"166","10079569MO","wasp","wasp","1",1,80,1,"Read Version A","bug","Study1","B","Study","Study Phase",8005,NA,"Recall1",4012
"167","kw781666","bite","wasp","0",0,86,1,"Read Version A","bug","Study1","B","Study","Study Phase",8008,NA,"Recall1",9751
"168","w10026256_hc","fly","wasp","0",0,71,1,"Read Version A","bug","Study1","B","Study","Study Phase",8003,NA,"Recall1",5331
"169","w10029079_mjm","roach","wasp","0.2",0,74,1,"Read Version A","bug","Study1","B","Study","Study Phase",8002,NA,"Recall1",2687
"170","w10065796_sjb","wasp","wasp","1",1,41,1,"Read Version A","bug","Study1","B","Study","Study Phase",8001,NA,"Recall1",4483
"171","w10074365_jbk","insect","wasp","0.166666666666667",0,55,1,"Read Version A","bug","Study1","B","Study","Study Phase",8003,NA,"Recall1",4239
"172","w10079083bdd","wasp","wasp","1",1,14,1,"Read Version A","bug","Study1","B","Study","Study Phase",8005,NA,"Recall1",8176
"173","w10096664_jer","wasp ","wasp","0.8",1,12,1,"Read Version A","bug","Study1","B","Study","Study Phase",8010,NA,"Recall1",6402
"174","w10100015_cgs","bailey","wasp","0.166666666666667",0,28,1,"Read Version A","bug","Study1","B","Study","Study Phase",8001,NA,"Recall1",2956
"175","w10106710BL","insect","wasp","0.166666666666667",0,63,1,"Read Version A","bug","Study1","B","Study","Study Phase",8010,NA,"Recall1",2850
"176","w10107871LD","grasshopper ","wasp","0.166666666666667",0,16,1,"Read Version A","bug","Study1","B","Study","Study Phase",8013,NA,"Recall1",17688
"177","w10112492ke","ant","wasp","0.25",0,70,1,"Read Version A","bug","Study1","B","Study","Study Phase",8004,NA,"Recall1",9121
"178","w10112505","","wasp","0",0,83,1,"Read Version A","bug","Study1","B","Study","Study Phase",8003,NA,"Recall1",71726
"179","w10123816_lac","bite","wasp","0",0,73,1,"Read Version A","bug","Study1","B","Study","Study Phase",8002,NA,"Recall1",6181
"180","W10129411_WB","wasp","wasp","1",1,82,1,"Read Version A","bug","Study1","B","Study","Study Phase",8000,NA,"Recall1",2181
"181","10079569MO","money","would","0.2",0,88,1,"Read Version A","cash","Study1","U","Study","Study Phase",8002,NA,"Recall1",3063
"182","kw781666","","would","0",0,78,1,"Read Version A","cash","Study1","U","Study","Study Phase",8776,NA,"Recall1",269
"183","w10026256_hc","wrench","would","0.166666666666667",0,60,1,"Read Version A","cash","Study1","U","Study","Study Phase",8003,NA,"Recall1",3359
"184","w10029079_mjm","money","would","0.2",0,68,1,"Read Version A","cash","Study1","U","Study","Study Phase",8002,NA,"Recall1",2131
"185","w10065796_sjb","back","would","0",0,75,1,"Read Version A","cash","Study1","U","Study","Study Phase",8004,NA,"Recall1",2376
"186","w10074365_jbk","money","would","0.2",0,9,1,"Read Version A","cash","Study1","U","Study","Study Phase",8009,NA,"Recall1",3574
"187","w10079083bdd","","would","0",0,34,1,"Read Version A","cash","Study1","U","Study","Study Phase",8003,NA,"Recall1",2750
"188","w10096664_jer","dollar ","would","0.571428571428571",0,78,1,"Read Version A","cash","Study1","U","Study","Study Phase",8010,NA,"Recall1",6410
"189","w10100015_cgs","money","would","0.2",0,45,1,"Read Version A","cash","Study1","U","Study","Study Phase",8003,NA,"Recall1",1993
"190","w10106710BL","money","would","0.2",0,68,1,"Read Version A","cash","Study1","U","Study","Study Phase",8009,NA,"Recall1",2197
"191","w10107871LD","job","would","0.2",0,58,1,"Read Version A","cash","Study1","U","Study","Study Phase",8004,NA,"Recall1",7445
"192","w10112492ke","money","would","0.2",0,74,1,"Read Version A","cash","Study1","U","Study","Study Phase",8004,NA,"Recall1",4936
"193","w10112505","money","would","0.2",0,56,1,"Read Version A","cash","Study1","U","Study","Study Phase",8006,NA,"Recall1",2389
"194","w10123816_lac","money","would","0.2",0,53,1,"Read Version A","cash","Study1","U","Study","Study Phase",8002,NA,"Recall1",3415
"195","W10129411_WB","would","would","1",1,58,1,"Read Version A","cash","Study1","U","Study","Study Phase",8001,NA,"Recall1",10577
"196","10079569MO","stone","hammer","0.166666666666667",0,18,1,"Read Version A","chisel","Study1","F","Study","Study Phase",8003,NA,"Recall1",2884
"197","kw781666","make","hammer","0.5",0,88,1,"Read Version A","chisel","Study1","F","Study","Study Phase",8698,NA,"Recall1",11759
"198","w10026256_hc","hammer","hammer","1",1,69,1,"Read Version A","chisel","Study1","F","Study","Study Phase",8001,NA,"Recall1",6361
"199","w10029079_mjm","shovel","hammer","0.333333333333333",0,86,1,"Read Version A","chisel","Study1","F","Study","Study Phase",8002,NA,"Recall1",2063
"200","w10065796_sjb","hammer","hammer","1",1,40,1,"Read Version A","chisel","Study1","F","Study","Study Phase",8000,NA,"Recall1",2733
"201","w10074365_jbk","carve","hammer","0.5",0,67,1,"Read Version A","chisel","Study1","F","Study","Study Phase",8005,NA,"Recall1",3645
"202","w10079083bdd","hammer","hammer","1",1,19,1,"Read Version A","chisel","Study1","F","Study","Study Phase",8002,NA,"Recall1",8902
"203","w10096664_jer","tool","hammer","0",0,36,1,"Read Version A","chisel","Study1","F","Study","Study Phase",8010,NA,"Recall1",41251
"204","w10100015_cgs","brick","hammer","0.166666666666667",0,11,1,"Read Version A","chisel","Study1","F","Study","Study Phase",8002,NA,"Recall1",1873
"205","w10106710BL","hammer","hammer","1",1,36,1,"Read Version A","chisel","Study1","F","Study","Study Phase",8002,NA,"Recall1",2679
"206","w10107871LD","stick","hammer","0",0,86,1,"Read Version A","chisel","Study1","F","Study","Study Phase",8010,NA,"Recall1",5191
"207","w10112492ke","","hammer","0",0,68,1,"Read Version A","chisel","Study1","F","Study","Study Phase",8004,NA,"Recall1",17078
"208","w10112505","","hammer","0",0,45,1,"Read Version A","chisel","Study1","F","Study","Study Phase",8004,NA,"Recall1",1185
"209","w10123816_lac","chest","hammer","0.333333333333333",0,59,1,"Read Version A","chisel","Study1","F","Study","Study Phase",8004,NA,"Recall1",3393
"210","W10129411_WB","hammer","hammer","1",1,44,1,"Read Version A","chisel","Study1","F","Study","Study Phase",8000,NA,"Recall1",2403
"211","10079569MO","line","round","0.2",0,50,1,"Read Version A","circle","Study1","S","Study","Study Phase",8004,NA,"Recall1",3808
"212","kw781666","","round","0",0,84,1,"Read Version A","circle","Study1","S","Study","Study Phase",8011,NA,"Recall1",276
"213","w10026256_hc","round","round","1",1,74,1,"Read Version A","circle","Study1","S","Study","Study Phase",8004,NA,"Recall1",3980
"214","w10029079_mjm","sqaur","round","0.4",0,37,1,"Read Version A","circle","Study1","S","Study","Study Phase",8004,NA,"Recall1",2256
"215","w10065796_sjb","round","round","1",1,27,1,"Read Version A","circle","Study1","S","Study","Study Phase",8001,NA,"Recall1",2350
"216","w10074365_jbk","round","round","1",1,35,1,"Read Version A","circle","Study1","S","Study","Study Phase",8007,NA,"Recall1",4472
"217","w10079083bdd","round","round","1",1,58,1,"Read Version A","circle","Study1","S","Study","Study Phase",8002,NA,"Recall1",2181
"218","w10096664_jer","round","round","1",1,74,1,"Read Version A","circle","Study1","S","Study","Study Phase",8009,NA,"Recall1",5825
"219","w10100015_cgs","round","round","1",1,55,1,"Read Version A","circle","Study1","S","Study","Study Phase",8002,NA,"Recall1",1585
"220","w10106710BL","round","round","1",1,56,1,"Read Version A","circle","Study1","S","Study","Study Phase",8005,NA,"Recall1",1805
"221","w10107871LD","ball","round","0",0,87,1,"Read Version A","circle","Study1","S","Study","Study Phase",8002,NA,"Recall1",6113
"222","w10112492ke","round","round","1",1,57,1,"Read Version A","circle","Study1","S","Study","Study Phase",8009,NA,"Recall1",11627
"223","w10112505","round","round","1",1,9,1,"Read Version A","circle","Study1","S","Study","Study Phase",8013,NA,"Recall1",1802
"224","w10123816_lac","around","round","0.666666666666667",0,61,1,"Read Version A","circle","Study1","S","Study","Study Phase",8004,NA,"Recall1",3976
"225","W10129411_WB","round","round","1",1,32,1,"Read Version A","circle","Study1","S","Study","Study Phase",8001,NA,"Recall1",2002
"226","10079569MO","","attire","0",0,40,1,"Read Version A","clothes","Study1","B","Study","Study Phase",8005,NA,"Recall1",3887
"227","kw781666","shirt","attire","0.5",0,70,1,"Read Version A","clothes","Study1","B","Study","Study Phase",8008,NA,"Recall1",9978
"228","w10026256_hc","","attire","0",0,86,1,"Read Version A","clothes","Study1","B","Study","Study Phase",8003,NA,"Recall1",4080
"229","w10029079_mjm","shoes","attire","0.166666666666667",0,12,1,"Read Version A","clothes","Study1","B","Study","Study Phase",8001,NA,"Recall1",1748
"230","w10065796_sjb","outfit","attire","0.5",0,82,1,"Read Version A","clothes","Study1","B","Study","Study Phase",8001,NA,"Recall1",5413
"231","w10074365_jbk","wash","attire","0.166666666666667",0,14,1,"Read Version A","clothes","Study1","B","Study","Study Phase",8003,NA,"Recall1",4304
"232","w10079083bdd","","attire","0",0,40,1,"Read Version A","clothes","Study1","B","Study","Study Phase",8002,NA,"Recall1",6153
"233","w10096664_jer","","attire","0",0,40,1,"Read Version A","clothes","Study1","B","Study","Study Phase",8009,NA,"Recall1",5476
"234","w10100015_cgs","no","attire","0",0,54,1,"Read Version A","clothes","Study1","B","Study","Study Phase",8004,NA,"Recall1",1617
"235","w10106710BL","fashion","attire","0.285714285714286",0,85,1,"Read Version A","clothes","Study1","B","Study","Study Phase",8007,NA,"Recall1",3645
"236","w10107871LD","money ","attire","0.166666666666667",0,9,1,"Read Version A","clothes","Study1","B","Study","Study Phase",8013,NA,"Recall1",5231
"237","w10112492ke","shoes","attire","0.166666666666667",0,67,1,"Read Version A","clothes","Study1","B","Study","Study Phase",8003,NA,"Recall1",32881
"238","w10112505","shirt","attire","0.5",0,48,1,"Read Version A","clothes","Study1","B","Study","Study Phase",8014,NA,"Recall1",7258
"239","w10123816_lac","shoe","attire","0.166666666666667",0,25,1,"Read Version A","clothes","Study1","B","Study","Study Phase",8002,NA,"Recall1",15215
"240","W10129411_WB","attire","attire","1",1,79,1,"Read Version A","clothes","Study1","B","Study","Study Phase",8001,NA,"Recall1",11399
"241","10079569MO","card","card","1",1,52,1,"Read Version A","credit","Study1","F","Study","Study Phase",8005,NA,"Recall1",4780
"242","kw781666","card","card","1",1,33,1,"Read Version A","credit","Study1","F","Study","Study Phase",8007,NA,"Recall1",2817
"243","w10026256_hc","card","card","1",1,12,1,"Read Version A","credit","Study1","F","Study","Study Phase",8001,NA,"Recall1",2534
"244","w10029079_mjm","extra","card","0.2",0,22,1,"Read Version A","credit","Study1","F","Study","Study Phase",8002,NA,"Recall1",2729
"245","w10065796_sjb","hour","card","0.25",0,84,1,"Read Version A","credit","Study1","F","Study","Study Phase",8001,NA,"Recall1",3806
"246","w10074365_jbk","card","card","1",1,50,1,"Read Version A","credit","Study1","F","Study","Study Phase",8003,NA,"Recall1",3208
"247","w10079083bdd","car","card","0.75",1,88,1,"Read Version A","credit","Study1","F","Study","Study Phase",8003,NA,"Recall1",1748
"248","w10096664_jer","","card","0",0,72,1,"Read Version A","credit","Study1","F","Study","Study Phase",8012,NA,"Recall1",9438
"249","w10100015_cgs","card","card","1",1,44,1,"Read Version A","credit","Study1","F","Study","Study Phase",8001,NA,"Recall1",3328
"250","w10106710BL","card","card","1",1,33,1,"Read Version A","credit","Study1","F","Study","Study Phase",8003,NA,"Recall1",1956
"251","w10107871LD","card","card","1",1,60,1,"Read Version A","credit","Study1","F","Study","Study Phase",8011,NA,"Recall1",3179
"252","w10112492ke","card","card","1",1,66,1,"Read Version A","credit","Study1","F","Study","Study Phase",8012,NA,"Recall1",4095
"253","w10112505","score","card","0.4",0,51,1,"Read Version A","credit","Study1","F","Study","Study Phase",8007,NA,"Recall1",4480
"254","w10123816_lac","card","card","1",1,86,1,"Read Version A","credit","Study1","F","Study","Study Phase",8004,NA,"Recall1",3353
"255","W10129411_WB","card","card","1",1,65,1,"Read Version A","credit","Study1","F","Study","Study Phase",8002,NA,"Recall1",1989
"256","10079569MO","cave","cave","1",1,71,1,"Read Version A","dark","Study1","B","Study","Study Phase",8002,NA,"Recall1",3649
"257","kw781666","","cave","0",0,32,1,"Read Version A","dark","Study1","B","Study","Study Phase",8007,NA,"Recall1",264
"258","w10026256_hc","light","cave","0",0,55,1,"Read Version A","dark","Study1","B","Study","Study Phase",8001,NA,"Recall1",5321
"259","w10029079_mjm","light","cave","0",0,67,1,"Read Version A","dark","Study1","B","Study","Study Phase",8004,NA,"Recall1",3372
"260","w10065796_sjb","day","cave","0.25",0,19,1,"Read Version A","dark","Study1","B","Study","Study Phase",8001,NA,"Recall1",2665
"261","w10074365_jbk","moon","cave","0",0,22,1,"Read Version A","dark","Study1","B","Study","Study Phase",8003,NA,"Recall1",7283
"262","w10079083bdd","","cave","0",0,56,1,"Read Version A","dark","Study1","B","Study","Study Phase",8002,NA,"Recall1",4051
"263","w10096664_jer","moon","cave","0",0,77,1,"Read Version A","dark","Study1","B","Study","Study Phase",8010,NA,"Recall1",4158
"264","w10100015_cgs","light","cave","0",0,56,1,"Read Version A","dark","Study1","B","Study","Study Phase",8005,NA,"Recall1",1938
"265","w10106710BL","cave","cave","1",1,43,1,"Read Version A","dark","Study1","B","Study","Study Phase",8004,NA,"Recall1",2217
"266","w10107871LD","sleep","cave","0.4",0,76,1,"Read Version A","dark","Study1","B","Study","Study Phase",8006,NA,"Recall1",4017
"267","w10112492ke","light","cave","0",0,10,1,"Read Version A","dark","Study1","B","Study","Study Phase",8014,NA,"Recall1",2665
"268","w10112505","light","cave","0",0,42,1,"Read Version A","dark","Study1","B","Study","Study Phase",8004,NA,"Recall1",4273
"269","w10123816_lac","hide","cave","0.25",0,44,1,"Read Version A","dark","Study1","B","Study","Study Phase",8002,NA,"Recall1",6572
"270","W10129411_WB","cave","cave","1",1,63,1,"Read Version A","dark","Study1","B","Study","Study Phase",8000,NA,"Recall1",5712
"271","10079569MO","life","business","0.25",0,30,1,"Read Version A","death","Study1","U","Study","Study Phase",8009,NA,"Recall1",2592
"272","kw781666","die","business","0.25",0,43,1,"Read Version A","death","Study1","U","Study","Study Phase",8006,NA,"Recall1",4777
"273","w10026256_hc","alive","business","0.25",0,65,1,"Read Version A","death","Study1","U","Study","Study Phase",8002,NA,"Recall1",6591
"274","w10029079_mjm","sadness","business","0.375",0,32,1,"Read Version A","death","Study1","U","Study","Study Phase",8003,NA,"Recall1",3089
"275","w10065796_sjb","","business","0",0,70,1,"Read Version A","death","Study1","U","Study","Study Phase",8001,NA,"Recall1",3286
"276","w10074365_jbk","life","business","0.25",0,54,1,"Read Version A","death","Study1","U","Study","Study Phase",8003,NA,"Recall1",4718
"277","w10079083bdd","business","business","1",1,9,1,"Read Version A","death","Study1","U","Study","Study Phase",8003,NA,"Recall1",4205
"278","w10096664_jer","","business","0",0,47,1,"Read Version A","death","Study1","U","Study","Study Phase",8006,NA,"Recall1",7367
"279","w10100015_cgs","death","business","0.125",0,88,1,"Read Version A","death","Study1","U","Study","Study Phase",8003,NA,"Recall1",1860
"280","w10106710BL","end","business","0.25",0,29,1,"Read Version A","death","Study1","U","Study","Study Phase",8002,NA,"Recall1",4967
"281","w10107871LD","casket ","business","0.25",0,85,1,"Read Version A","death","Study1","U","Study","Study Phase",8010,NA,"Recall1",6739
"282","w10112492ke","life","business","0.25",0,45,1,"Read Version A","death","Study1","U","Study","Study Phase",8011,NA,"Recall1",13156
"283","w10112505","dead","business","0.125",0,70,1,"Read Version A","death","Study1","U","Study","Study Phase",8009,NA,"Recall1",2349
"284","w10123816_lac","business","business","1",1,11,1,"Read Version A","death","Study1","U","Study","Study Phase",8014,NA,"Recall1",6919
"285","W10129411_WB","business","business","1",1,81,1,"Read Version A","death","Study1","U","Study","Study Phase",8001,NA,"Recall1",7194
"286","10079569MO","talk","sight","0.2",0,44,1,"Read Version A","debate","Study1","U","Study","Study Phase",8002,NA,"Recall1",5815
"287","kw781666","","sight","0",0,18,1,"Read Version A","debate","Study1","U","Study","Study Phase",8005,NA,"Recall1",180
"288","w10026256_hc","talk","sight","0.2",0,66,1,"Read Version A","debate","Study1","U","Study","Study Phase",8001,NA,"Recall1",2899
"289","w10029079_mjm","talk","sight","0.2",0,42,1,"Read Version A","debate","Study1","U","Study","Study Phase",8003,NA,"Recall1",2052
"290","w10065796_sjb","discussion","sight","0.2",0,74,1,"Read Version A","debate","Study1","U","Study","Study Phase",8000,NA,"Recall1",8515
"291","w10074365_jbk","sight","sight","1",1,42,1,"Read Version A","debate","Study1","U","Study","Study Phase",8006,NA,"Recall1",5861
"292","w10079083bdd","trial","sight","0.4",0,84,1,"Read Version A","debate","Study1","U","Study","Study Phase",8003,NA,"Recall1",2647
"293","w10096664_jer","judge","sight","0.2",0,26,1,"Read Version A","debate","Study1","U","Study","Study Phase",8009,NA,"Recall1",5363
"294","w10100015_cgs","class","sight","0.4",0,69,1,"Read Version A","debate","Study1","U","Study","Study Phase",8002,NA,"Recall1",2904
"295","w10106710BL","","sight","0",0,21,1,"Read Version A","debate","Study1","U","Study","Study Phase",8003,NA,"Recall1",10337
"296","w10107871LD","argue","sight","0.2",0,63,1,"Read Version A","debate","Study1","U","Study","Study Phase",8022,NA,"Recall1",3970
"297","w10112492ke","argue","sight","0.2",0,31,1,"Read Version A","debate","Study1","U","Study","Study Phase",8009,NA,"Recall1",10497
"298","w10112505","aruge","sight","0.2",0,39,1,"Read Version A","debate","Study1","U","Study","Study Phase",8006,NA,"Recall1",2409
"299","w10123816_lac","sight","sight","1",1,13,1,"Read Version A","debate","Study1","U","Study","Study Phase",8002,NA,"Recall1",8693
"300","W10129411_WB","sight'","sight","0.833333333333333",1,18,1,"Read Version A","debate","Study1","U","Study","Study Phase",8001,NA,"Recall1",6982
"301","10079569MO","bad","bad","1",1,63,1,"Read Version A","delinquent","Study1","F","Study","Study Phase",8001,NA,"Recall1",4869
"302","kw781666","bad","bad","1",1,71,1,"Read Version A","delinquent","Study1","F","Study","Study Phase",8152,NA,"Recall1",5195
"303","w10026256_hc","bad","bad","1",1,44,1,"Read Version A","delinquent","Study1","F","Study","Study Phase",8001,NA,"Recall1",4259
"304","w10029079_mjm","juvenile","bad","0",0,52,1,"Read Version A","delinquent","Study1","F","Study","Study Phase",8002,NA,"Recall1",4840
"305","w10065796_sjb","kid","bad","0.333333333333333",0,62,1,"Read Version A","delinquent","Study1","F","Study","Study Phase",8002,NA,"Recall1",3079
"306","w10074365_jbk","bad","bad","1",1,53,1,"Read Version A","delinquent","Study1","F","Study","Study Phase",8003,NA,"Recall1",2918
"307","w10079083bdd","bad","bad","1",1,73,1,"Read Version A","delinquent","Study1","F","Study","Study Phase",8002,NA,"Recall1",4853
"308","w10096664_jer","felon","bad","0",0,69,1,"Read Version A","delinquent","Study1","F","Study","Study Phase",8007,NA,"Recall1",5920
"309","w10100015_cgs","bad","bad","1",1,9,1,"Read Version A","delinquent","Study1","F","Study","Study Phase",8004,NA,"Recall1",1957
"310","w10106710BL","","bad","0",0,62,1,"Read Version A","delinquent","Study1","F","Study","Study Phase",8004,NA,"Recall1",2289
"311","w10107871LD","juvenile ","bad","0",0,29,1,"Read Version A","delinquent","Study1","F","Study","Study Phase",8006,NA,"Recall1",7579
"312","w10112492ke","kid","bad","0.333333333333333",0,39,1,"Read Version A","delinquent","Study1","F","Study","Study Phase",8010,NA,"Recall1",4659
"313","w10112505","","bad","0",0,60,1,"Read Version A","delinquent","Study1","F","Study","Study Phase",8005,NA,"Recall1",1007
"314","w10123816_lac","bad","bad","1",1,80,1,"Read Version A","delinquent","Study1","F","Study","Study Phase",8017,NA,"Recall1",3619
"315","W10129411_WB","juvenile","bad","0",0,73,1,"Read Version A","delinquent","Study1","F","Study","Study Phase",8002,NA,"Recall1",5027
"316","10079569MO","sacks","sacking","0.571428571428571",0,70,1,"Read Version A","dietary","Study1","U","Study","Study Phase",8004,NA,"Recall1",8292
"317","kw781666","","sacking","0",0,82,1,"Read Version A","dietary","Study1","U","Study","Study Phase",8755,NA,"Recall1",244
"318","w10026256_hc","food","sacking","0",0,77,1,"Read Version A","dietary","Study1","U","Study","Study Phase",8001,NA,"Recall1",4147
"319","w10029079_mjm","weight","sacking","0.285714285714286",0,69,1,"Read Version A","dietary","Study1","U","Study","Study Phase",8003,NA,"Recall1",2924
"320","w10065796_sjb","food","sacking","0",0,51,1,"Read Version A","dietary","Study1","U","Study","Study Phase",8001,NA,"Recall1",3551
"321","w10074365_jbk","food","sacking","0",0,70,1,"Read Version A","dietary","Study1","U","Study","Study Phase",8006,NA,"Recall1",4279
"322","w10079083bdd","food","sacking","0",0,43,1,"Read Version A","dietary","Study1","U","Study","Study Phase",8002,NA,"Recall1",2278
"323","w10096664_jer","weight ","sacking","0.285714285714286",0,22,1,"Read Version A","dietary","Study1","U","Study","Study Phase",8008,NA,"Recall1",5784
"324","w10100015_cgs","food","sacking","0",0,20,1,"Read Version A","dietary","Study1","U","Study","Study Phase",8001,NA,"Recall1",2228
"325","w10106710BL","","sacking","0",0,31,1,"Read Version A","dietary","Study1","U","Study","Study Phase",8002,NA,"Recall1",2275
"326","w10107871LD","food","sacking","0",0,72,1,"Read Version A","dietary","Study1","U","Study","Study Phase",8009,NA,"Recall1",20277
"327","w10112492ke","food","sacking","0",0,52,1,"Read Version A","dietary","Study1","U","Study","Study Phase",8006,NA,"Recall1",17127
"328","w10112505","food","sacking","0",0,31,1,"Read Version A","dietary","Study1","U","Study","Study Phase",8004,NA,"Recall1",2047
"329","w10123816_lac","eat","sacking","0.142857142857143",0,36,1,"Read Version A","dietary","Study1","U","Study","Study Phase",8003,NA,"Recall1",18691
"330","W10129411_WB","sacking","sacking","1",1,41,1,"Read Version A","dietary","Study1","U","Study","Study Phase",8000,NA,"Recall1",13994
"331","10079569MO","food","stomach","0.142857142857143",0,87,1,"Read Version A","digestion","Study1","F","Study","Study Phase",8001,NA,"Recall1",2950
"332","kw781666","eat","stomach","0.285714285714286",0,81,1,"Read Version A","digestion","Study1","F","Study","Study Phase",8323,NA,"Recall1",12318
"333","w10026256_hc","stomach","stomach","1",1,22,1,"Read Version A","digestion","Study1","F","Study","Study Phase",8001,NA,"Recall1",4562
"334","w10029079_mjm","kidney","stomach","0",0,10,1,"Read Version A","digestion","Study1","F","Study","Study Phase",8003,NA,"Recall1",3162
"335","w10065796_sjb","food","stomach","0.142857142857143",0,38,1,"Read Version A","digestion","Study1","F","Study","Study Phase",8001,NA,"Recall1",2202
"336","w10074365_jbk","stomach","stomach","1",1,69,1,"Read Version A","digestion","Study1","F","Study","Study Phase",8005,NA,"Recall1",5350
"337","w10079083bdd","release","stomach","0.285714285714286",0,66,1,"Read Version A","digestion","Study1","F","Study","Study Phase",8006,NA,"Recall1",12950
"338","w10096664_jer","heartburn ","stomach","0.3",0,45,1,"Read Version A","digestion","Study1","F","Study","Study Phase",8008,NA,"Recall1",12430
"339","w10100015_cgs","liver","stomach","0",0,74,1,"Read Version A","digestion","Study1","F","Study","Study Phase",8002,NA,"Recall1",2162
"340","w10106710BL","stomach","stomach","1",1,26,1,"Read Version A","digestion","Study1","F","Study","Study Phase",8003,NA,"Recall1",3014
"341","w10107871LD","food","stomach","0.142857142857143",0,48,1,"Read Version A","digestion","Study1","F","Study","Study Phase",8014,NA,"Recall1",5167
"342","w10112492ke","food","stomach","0.142857142857143",0,83,1,"Read Version A","digestion","Study1","F","Study","Study Phase",8006,NA,"Recall1",4074
"343","w10112505","system","stomach","0.428571428571429",0,81,1,"Read Version A","digestion","Study1","F","Study","Study Phase",8010,NA,"Recall1",3017
"344","w10123816_lac","food","stomach","0.142857142857143",0,19,1,"Read Version A","digestion","Study1","F","Study","Study Phase",8002,NA,"Recall1",5335
"345","W10129411_WB","stomach","stomach","1",1,20,1,"Read Version A","digestion","Study1","F","Study","Study Phase",8001,NA,"Recall1",4039
"346","10079569MO","floor","floor","1",1,35,1,"Read Version A","discover","Study1","U","Study","Study Phase",8006,NA,"Recall1",3291
"347","kw781666","find","floor","0.2",0,79,1,"Read Version A","discover","Study1","U","Study","Study Phase",8748,NA,"Recall1",3120
"348","w10026256_hc","around","floor","0.333333333333333",0,13,1,"Read Version A","discover","Study1","U","Study","Study Phase",8002,NA,"Recall1",5482
"349","w10029079_mjm","card","floor","0.2",0,47,1,"Read Version A","discover","Study1","U","Study","Study Phase",8001,NA,"Recall1",2219
"350","w10065796_sjb","find","floor","0.2",0,54,1,"Read Version A","discover","Study1","U","Study","Study Phase",8000,NA,"Recall1",1709
"351","w10074365_jbk","adventure","floor","0",0,63,1,"Read Version A","discover","Study1","U","Study","Study Phase",8003,NA,"Recall1",8299
"352","w10079083bdd","new","floor","0",0,60,1,"Read Version A","discover","Study1","U","Study","Study Phase",8003,NA,"Recall1",2559
"353","w10096664_jer","find","floor","0.2",0,84,1,"Read Version A","discover","Study1","U","Study","Study Phase",8009,NA,"Recall1",3431
"354","w10100015_cgs","card","floor","0.2",0,17,1,"Read Version A","discover","Study1","U","Study","Study Phase",8006,NA,"Recall1",6099
"355","w10106710BL","","floor","0",0,17,1,"Read Version A","discover","Study1","U","Study","Study Phase",8002,NA,"Recall1",1125
"356","w10107871LD","wonder","floor","0.166666666666667",0,42,1,"Read Version A","discover","Study1","U","Study","Study Phase",8002,NA,"Recall1",4781
"357","w10112492ke","","floor","0",0,63,1,"Read Version A","discover","Study1","U","Study","Study Phase",8013,NA,"Recall1",9367
"358","w10112505","","floor","0",0,32,1,"Read Version A","discover","Study1","U","Study","Study Phase",8004,NA,"Recall1",4734
"359","w10123816_lac","card","floor","0.2",0,81,1,"Read Version A","discover","Study1","U","Study","Study Phase",8005,NA,"Recall1",4134
"360","W10129411_WB","floor","floor","1",1,59,1,"Read Version A","discover","Study1","U","Study","Study Phase",8001,NA,"Recall1",11448
"361","10079569MO","talk","talk","1",1,83,1,"Read Version A","discussion","Study1","F","Study","Study Phase",8005,NA,"Recall1",9751
"362","kw781666","","talk","0",0,24,1,"Read Version A","discussion","Study1","F","Study","Study Phase",8005,NA,"Recall1",213
"363","w10026256_hc","talk","talk","1",1,33,1,"Read Version A","discussion","Study1","F","Study","Study Phase",8001,NA,"Recall1",3185
"364","w10029079_mjm","post","talk","0.25",0,30,1,"Read Version A","discussion","Study1","F","Study","Study Phase",8001,NA,"Recall1",2670
"365","w10065796_sjb","talk","talk","1",1,79,1,"Read Version A","discussion","Study1","F","Study","Study Phase",8001,NA,"Recall1",2236
"366","w10074365_jbk","conclusion","talk","0",0,80,1,"Read Version A","discussion","Study1","F","Study","Study Phase",8005,NA,"Recall1",7571
"367","w10079083bdd","","talk","0",0,32,1,"Read Version A","discussion","Study1","F","Study","Study Phase",8002,NA,"Recall1",1431
"368","w10096664_jer","board","talk","0.2",0,55,1,"Read Version A","discussion","Study1","F","Study","Study Phase",8007,NA,"Recall1",3964
"369","w10100015_cgs","answer","talk","0.166666666666667",0,57,1,"Read Version A","discussion","Study1","F","Study","Study Phase",8003,NA,"Recall1",2374
"370","w10106710BL","","talk","0",0,51,1,"Read Version A","discussion","Study1","F","Study","Study Phase",8010,NA,"Recall1",4991
"371","w10107871LD","talk","talk","1",1,38,1,"Read Version A","discussion","Study1","F","Study","Study Phase",8010,NA,"Recall1",4142
"372","w10112492ke","talk","talk","1",1,44,1,"Read Version A","discussion","Study1","F","Study","Study Phase",8005,NA,"Recall1",9889
"373","w10112505","talk","talk","1",1,20,1,"Read Version A","discussion","Study1","F","Study","Study Phase",8004,NA,"Recall1",2965
"374","w10123816_lac","group","talk","0",0,46,1,"Read Version A","discussion","Study1","F","Study","Study Phase",8002,NA,"Recall1",9247
"375","W10129411_WB","talk","talk","1",1,28,1,"Read Version A","discussion","Study1","F","Study","Study Phase",8001,NA,"Recall1",9352
"376","10079569MO","pop","sip","0.666666666666667",0,84,1,"Read Version A","drink","Study1","B","Study","Study Phase",8002,NA,"Recall1",3049
"377","kw781666","water","sip","0",0,37,1,"Read Version A","drink","Study1","B","Study","Study Phase",8008,NA,"Recall1",4341
"378","w10026256_hc","sip","sip","1",1,26,1,"Read Version A","drink","Study1","B","Study","Study Phase",8002,NA,"Recall1",2071
"379","w10029079_mjm","hot","sip","0",0,19,1,"Read Version A","drink","Study1","B","Study","Study Phase",8001,NA,"Recall1",3278
"380","w10065796_sjb","","sip","0",0,73,1,"Read Version A","drink","Study1","B","Study","Study Phase",8004,NA,"Recall1",2911
"381","w10074365_jbk","water","sip","0",0,65,1,"Read Version A","drink","Study1","B","Study","Study Phase",8003,NA,"Recall1",3474
"382","w10079083bdd","eat","sip","0",0,67,1,"Read Version A","drink","Study1","B","Study","Study Phase",8003,NA,"Recall1",4390
"383","w10096664_jer","soda","sip","0.25",0,29,1,"Read Version A","drink","Study1","B","Study","Study Phase",8010,NA,"Recall1",5133
"384","w10100015_cgs","lots","sip","0",0,80,1,"Read Version A","drink","Study1","B","Study","Study Phase",8001,NA,"Recall1",1946
"385","w10106710BL","sip","sip","1",1,66,1,"Read Version A","drink","Study1","B","Study","Study Phase",8006,NA,"Recall1",2015
"386","w10107871LD","sip","sip","1",1,12,1,"Read Version A","drink","Study1","B","Study","Study Phase",8005,NA,"Recall1",3699
"387","w10112492ke","","sip","0",0,88,1,"Read Version A","drink","Study1","B","Study","Study Phase",8012,NA,"Recall1",789
"388","w10112505","","sip","0",0,28,1,"Read Version A","drink","Study1","B","Study","Study Phase",8007,NA,"Recall1",14189
"389","w10123816_lac","wine","sip","0.25",0,52,1,"Read Version A","drink","Study1","B","Study","Study Phase",8002,NA,"Recall1",3440
"390","W10129411_WB","sip","sip","1",1,36,1,"Read Version A","drink","Study1","B","Study","Study Phase",8001,NA,"Recall1",14716
"391","10079569MO","assignment","assignment","1",1,15,1,"Read Version A","due","Study1","S","Study","Study Phase",8001,NA,"Recall1",4250
"392","kw781666","assignment","assignment","1",1,21,1,"Read Version A","due","Study1","S","Study","Study Phase",8006,NA,"Recall1",7409
"393","w10026256_hc","now","assignment","0.1",0,21,1,"Read Version A","due","Study1","S","Study","Study Phase",8001,NA,"Recall1",5551
"394","w10029079_mjm","homework","assignment","0.2",0,45,1,"Read Version A","due","Study1","S","Study","Study Phase",8003,NA,"Recall1",2384
"395","w10065796_sjb","date","assignment","0.3",0,35,1,"Read Version A","due","Study1","S","Study","Study Phase",8000,NA,"Recall1",1786
"396","w10074365_jbk","assignment","assignment","1",1,11,1,"Read Version A","due","Study1","S","Study","Study Phase",8004,NA,"Recall1",5522
"397","w10079083bdd","date","assignment","0.3",0,16,1,"Read Version A","due","Study1","S","Study","Study Phase",8003,NA,"Recall1",1871
"398","w10096664_jer","time","assignment","0.4",0,30,1,"Read Version A","due","Study1","S","Study","Study Phase",8009,NA,"Recall1",6073
"399","w10100015_cgs","tomorrow","assignment","0.2",0,25,1,"Read Version A","due","Study1","S","Study","Study Phase",8003,NA,"Recall1",1906
"400","w10106710BL","assignment","assignment","1",1,61,1,"Read Version A","due","Study1","S","Study","Study Phase",8009,NA,"Recall1",4835
"401","w10107871LD","assignment ","assignment","0.909090909090909",1,57,1,"Read Version A","due","Study1","S","Study","Study Phase",8016,NA,"Recall1",4142
"402","w10112492ke","line","assignment","0.3",0,23,1,"Read Version A","due","Study1","S","Study","Study Phase",8002,NA,"Recall1",12606
"403","w10112505","now","assignment","0.1",0,23,1,"Read Version A","due","Study1","S","Study","Study Phase",8011,NA,"Recall1",5082
"404","w10123816_lac","assignment ","assignment","0.909090909090909",1,76,1,"Read Version A","due","Study1","S","Study","Study Phase",8003,NA,"Recall1",4107
"405","W10129411_WB","assignment","assignment","1",1,51,1,"Read Version A","due","Study1","S","Study","Study Phase",8000,NA,"Recall1",3800
"406","10079569MO","truck","waste","0.2",0,55,1,"Read Version A","dump","Study1","S","Study","Study Phase",8004,NA,"Recall1",3454
"407","kw781666","dumpster","waste","0.125",0,12,1,"Read Version A","dump","Study1","S","Study","Study Phase",8005,NA,"Recall1",4404
"408","w10026256_hc","","waste","0",0,34,1,"Read Version A","dump","Study1","S","Study","Study Phase",8002,NA,"Recall1",9358
"409","w10029079_mjm","trash","waste","0.6",0,15,1,"Read Version A","dump","Study1","S","Study","Study Phase",8002,NA,"Recall1",6708
"410","w10065796_sjb","waste","waste","1",1,77,1,"Read Version A","dump","Study1","S","Study","Study Phase",8001,NA,"Recall1",3080
"411","w10074365_jbk","trash","waste","0.6",0,59,1,"Read Version A","dump","Study1","S","Study","Study Phase",8003,NA,"Recall1",4825
"412","w10079083bdd","","waste","0",0,55,1,"Read Version A","dump","Study1","S","Study","Study Phase",8003,NA,"Recall1",4263
"413","w10096664_jer","","waste","0",0,51,1,"Read Version A","dump","Study1","S","Study","Study Phase",8013,NA,"Recall1",5158
"414","w10100015_cgs","truck","waste","0.2",0,19,1,"Read Version A","dump","Study1","S","Study","Study Phase",8005,NA,"Recall1",1907
"415","w10106710BL","waste","waste","1",1,57,1,"Read Version A","dump","Study1","S","Study","Study Phase",8004,NA,"Recall1",2176
"416","w10107871LD","waste","waste","1",1,23,1,"Read Version A","dump","Study1","S","Study","Study Phase",8007,NA,"Recall1",4566
"417","w10112492ke","pour","waste","0",0,17,1,"Read Version A","dump","Study1","S","Study","Study Phase",8004,NA,"Recall1",3354
"418","w10112505","throw","waste","0.4",0,13,1,"Read Version A","dump","Study1","S","Study","Study Phase",8015,NA,"Recall1",3651
"419","w10123816_lac","garbage ","waste","0.25",0,40,1,"Read Version A","dump","Study1","S","Study","Study Phase",8001,NA,"Recall1",7307
"420","W10129411_WB","waste","waste","1",1,77,1,"Read Version A","dump","Study1","S","Study","Study Phase",8003,NA,"Recall1",6374
"421","10079569MO","paper","news","0.2",0,85,1,"Read Version A","editor","Study1","F","Study","Study Phase",8004,NA,"Recall1",3933
"422","kw781666","","news","0",0,27,1,"Read Version A","editor","Study1","F","Study","Study Phase",8008,NA,"Recall1",372
"423","w10026256_hc","write","news","0.2",0,68,1,"Read Version A","editor","Study1","F","Study","Study Phase",8001,NA,"Recall1",5478
"424","w10029079_mjm","chief","news","0.2",0,17,1,"Read Version A","editor","Study1","F","Study","Study Phase",8002,NA,"Recall1",6221
"425","w10065796_sjb","newspaper","news","0.444444444444444",0,36,1,"Read Version A","editor","Study1","F","Study","Study Phase",8000,NA,"Recall1",3198
"426","w10074365_jbk","write","news","0.2",0,75,1,"Read Version A","editor","Study1","F","Study","Study Phase",8001,NA,"Recall1",4383
"427","w10079083bdd","","news","0",0,74,1,"Read Version A","editor","Study1","F","Study","Study Phase",8003,NA,"Recall1",1645
"428","w10096664_jer","chief","news","0.2",0,42,1,"Read Version A","editor","Study1","F","Study","Study Phase",8008,NA,"Recall1",6891
"429","w10100015_cgs","author","news","0",0,46,1,"Read Version A","editor","Study1","F","Study","Study Phase",8002,NA,"Recall1",2259
"430","w10106710BL","news","news","1",1,49,1,"Read Version A","editor","Study1","F","Study","Study Phase",8003,NA,"Recall1",2306
"431","w10107871LD","writer","news","0.166666666666667",0,73,1,"Read Version A","editor","Study1","F","Study","Study Phase",8002,NA,"Recall1",4295
"432","w10112492ke","","news","0",0,71,1,"Read Version A","editor","Study1","F","Study","Study Phase",8005,NA,"Recall1",3935
"433","w10112505","newspaper","news","0.444444444444444",0,59,1,"Read Version A","editor","Study1","F","Study","Study Phase",8015,NA,"Recall1",5554
"434","w10123816_lac","book","news","0",0,50,1,"Read Version A","editor","Study1","F","Study","Study Phase",8003,NA,"Recall1",3784
"435","W10129411_WB","news","news","1",1,67,1,"Read Version A","editor","Study1","F","Study","Study Phase",8000,NA,"Recall1",7073
"436","10079569MO","out","blaze","0",0,62,1,"Read Version A","fire","Study1","B","Study","Study Phase",8002,NA,"Recall1",3136
"437","kw781666","flame","blaze","0.6",0,14,1,"Read Version A","fire","Study1","B","Study","Study Phase",8005,NA,"Recall1",7141
"438","w10026256_hc","pit","blaze","0",0,52,1,"Read Version A","fire","Study1","B","Study","Study Phase",8003,NA,"Recall1",3252
"439","w10029079_mjm","snow","blaze","0",0,77,1,"Read Version A","fire","Study1","B","Study","Study Phase",8004,NA,"Recall1",1925
"440","w10065796_sjb","blaze","blaze","1",1,88,1,"Read Version A","fire","Study1","B","Study","Study Phase",8000,NA,"Recall1",4425
"441","w10074365_jbk","ladder","blaze","0.5",0,13,1,"Read Version A","fire","Study1","B","Study","Study Phase",8003,NA,"Recall1",7870
"442","w10079083bdd","alarm","blaze","0.6",0,81,1,"Read Version A","fire","Study1","B","Study","Study Phase",8003,NA,"Recall1",2164
"443","w10096664_jer","distinguish ","blaze","0",0,10,1,"Read Version A","fire","Study1","B","Study","Study Phase",8007,NA,"Recall1",16559
"444","w10100015_cgs","hot","blaze","0",0,41,1,"Read Version A","fire","Study1","B","Study","Study Phase",8008,NA,"Recall1",2960
"445","w10106710BL","burn","blaze","0.2",0,12,1,"Read Version A","fire","Study1","B","Study","Study Phase",8004,NA,"Recall1",6406
"446","w10107871LD","hot","blaze","0",0,24,1,"Read Version A","fire","Study1","B","Study","Study Phase",8005,NA,"Recall1",3605
"447","w10112492ke","water","blaze","0.4",0,19,1,"Read Version A","fire","Study1","B","Study","Study Phase",8004,NA,"Recall1",9239
"448","w10112505","alarm","blaze","0.6",0,76,1,"Read Version A","fire","Study1","B","Study","Study Phase",8004,NA,"Recall1",2192
"449","w10123816_lac","ball","blaze","0.6",0,45,1,"Read Version A","fire","Study1","B","Study","Study Phase",8005,NA,"Recall1",9099
"450","W10129411_WB","blaze","blaze","1",1,84,1,"Read Version A","fire","Study1","B","Study","Study Phase",8004,NA,"Recall1",7454
"451","10079569MO","empty","hand","0",0,73,1,"Read Version A","fix","Study1","U","Study","Study Phase",8005,NA,"Recall1",7088
"452","kw781666","mend","hand","0.5",0,10,1,"Read Version A","fix","Study1","U","Study","Study Phase",8006,NA,"Recall1",16793
"453","w10026256_hc","done","hand","0.5",0,38,1,"Read Version A","fix","Study1","U","Study","Study Phase",8003,NA,"Recall1",5608
"454","w10029079_mjm","","hand","0",0,13,1,"Read Version A","fix","Study1","U","Study","Study Phase",8131,NA,"Recall1",2467
"455","w10065796_sjb","tool","hand","0",0,13,1,"Read Version A","fix","Study1","U","Study","Study Phase",8000,NA,"Recall1",3617
"456","w10074365_jbk","hand","hand","1",1,30,1,"Read Version A","fix","Study1","U","Study","Study Phase",8003,NA,"Recall1",3084
"457","w10079083bdd","","hand","0",0,47,1,"Read Version A","fix","Study1","U","Study","Study Phase",8002,NA,"Recall1",3339
"458","w10096664_jer","find","hand","0.5",0,13,1,"Read Version A","fix","Study1","U","Study","Study Phase",8005,NA,"Recall1",3794
"459","w10100015_cgs","fix","hand","0",0,86,1,"Read Version A","fix","Study1","U","Study","Study Phase",8001,NA,"Recall1",3383
"460","w10106710BL","","hand","0",0,35,1,"Read Version A","fix","Study1","U","Study","Study Phase",8003,NA,"Recall1",1755
"461","w10107871LD","hands","hand","0.8",1,21,1,"Read Version A","fix","Study1","U","Study","Study Phase",8003,NA,"Recall1",4323
"462","w10112492ke","break","hand","0.2",0,60,1,"Read Version A","fix","Study1","U","Study","Study Phase",8011,NA,"Recall1",3373
"463","w10112505","","hand","0",0,22,1,"Read Version A","fix","Study1","U","Study","Study Phase",8011,NA,"Recall1",2638
"464","w10123816_lac","hammer ","hand","0.285714285714286",0,15,1,"Read Version A","fix","Study1","U","Study","Study Phase",8008,NA,"Recall1",12236
"465","W10129411_WB","hand","hand","1",1,49,1,"Read Version A","fix","Study1","U","Study","Study Phase",8000,NA,"Recall1",7273
"466","10079569MO","tank","enough","0.166666666666667",0,17,1,"Read Version A","full","Study1","B","Study","Study Phase",8007,NA,"Recall1",6111
"467","kw781666","enough","enough","1",1,20,1,"Read Version A","full","Study1","B","Study","Study Phase",8006,NA,"Recall1",4118
"468","w10026256_hc","skinny","enough","0.333333333333333",0,49,1,"Read Version A","full","Study1","B","Study","Study Phase",8001,NA,"Recall1",5024
"469","w10029079_mjm","empty","enough","0.166666666666667",0,39,1,"Read Version A","full","Study1","B","Study","Study Phase",8002,NA,"Recall1",4311
"470","w10065796_sjb","empty","enough","0.166666666666667",0,10,1,"Read Version A","full","Study1","B","Study","Study Phase",8002,NA,"Recall1",5663
"471","w10074365_jbk","cup","enough","0.166666666666667",0,60,1,"Read Version A","full","Study1","B","Study","Study Phase",8008,NA,"Recall1",4556
"472","w10079083bdd","","enough","0",0,69,1,"Read Version A","full","Study1","B","Study","Study Phase",8002,NA,"Recall1",1416
"473","w10096664_jer","empty ","enough","0.166666666666667",0,85,1,"Read Version A","full","Study1","B","Study","Study Phase",8014,NA,"Recall1",10915
"474","w10100015_cgs","empty","enough","0.166666666666667",0,84,1,"Read Version A","full","Study1","B","Study","Study Phase",8002,NA,"Recall1",2062
"475","w10106710BL","","enough","0",0,67,1,"Read Version A","full","Study1","B","Study","Study Phase",8004,NA,"Recall1",1223
"476","w10107871LD","empty","enough","0.166666666666667",0,47,1,"Read Version A","full","Study1","B","Study","Study Phase",8010,NA,"Recall1",6776
"477","w10112492ke","empty","enough","0.166666666666667",0,58,1,"Read Version A","full","Study1","B","Study","Study Phase",8004,NA,"Recall1",2671
"478","w10112505","","enough","0",0,43,1,"Read Version A","full","Study1","B","Study","Study Phase",8005,NA,"Recall1",1332
"479","w10123816_lac","stomach","enough","0.142857142857143",0,57,1,"Read Version A","full","Study1","B","Study","Study Phase",8004,NA,"Recall1",6378
"480","W10129411_WB","empty","enough","0.166666666666667",0,66,1,"Read Version A","full","Study1","B","Study","Study Phase",8001,NA,"Recall1",8765
"481","10079569MO","rock","rock","1",1,76,1,"Read Version A","geology","Study1","F","Study","Study Phase",8007,NA,"Recall1",2046
"482","kw781666","","rock","0",0,83,1,"Read Version A","geology","Study1","F","Study","Study Phase",8738,NA,"Recall1",229
"483","w10026256_hc","rock","rock","1",1,47,1,"Read Version A","geology","Study1","F","Study","Study Phase",8001,NA,"Recall1",2848
"484","w10029079_mjm","science","rock","0.142857142857143",0,44,1,"Read Version A","geology","Study1","F","Study","Study Phase",8002,NA,"Recall1",2626
"485","w10065796_sjb","rock","rock","1",1,86,1,"Read Version A","geology","Study1","F","Study","Study Phase",8001,NA,"Recall1",3712
"486","w10074365_jbk","rock","rock","1",1,41,1,"Read Version A","geology","Study1","F","Study","Study Phase",8004,NA,"Recall1",3327
"487","w10079083bdd","rocl","rock","0.75",1,21,1,"Read Version A","geology","Study1","F","Study","Study Phase",8002,NA,"Recall1",1802
"488","w10096664_jer","rock","rock","1",1,18,1,"Read Version A","geology","Study1","F","Study","Study Phase",8009,NA,"Recall1",3201
"489","w10100015_cgs","world","rock","0.4",0,76,1,"Read Version A","geology","Study1","F","Study","Study Phase",8001,NA,"Recall1",2099
"490","w10106710BL","rock","rock","1",1,75,1,"Read Version A","geology","Study1","F","Study","Study Phase",8003,NA,"Recall1",3975
"491","w10107871LD","world","rock","0.4",0,35,1,"Read Version A","geology","Study1","F","Study","Study Phase",8011,NA,"Recall1",3941
"492","w10112492ke","world","rock","0.4",0,18,1,"Read Version A","geology","Study1","F","Study","Study Phase",8006,NA,"Recall1",4437
"493","w10112505","","rock","0",0,52,1,"Read Version A","geology","Study1","F","Study","Study Phase",8004,NA,"Recall1",1067
"494","w10123816_lac","rock","rock","1",1,39,1,"Read Version A","geology","Study1","F","Study","Study Phase",8002,NA,"Recall1",3007
"495","W10129411_WB","rocks","rock","0.8",1,56,1,"Read Version A","geology","Study1","F","Study","Study Phase",8000,NA,"Recall1",9245
"496","10079569MO","","fantastic","0",0,36,1,"Read Version A","great","Study1","B","Study","Study Phase",8004,NA,"Recall1",7411
"497","kw781666","","fantastic","0",0,66,1,"Read Version A","great","Study1","B","Study","Study Phase",8011,NA,"Recall1",313
"498","w10026256_hc","value","fantastic","0.111111111111111",0,9,1,"Read Version A","great","Study1","B","Study","Study Phase",8001,NA,"Recall1",4773
"499","w10029079_mjm","bad","fantastic","0.111111111111111",0,66,1,"Read Version A","great","Study1","B","Study","Study Phase",8002,NA,"Recall1",2269
"500","w10065796_sjb","fantastic","fantastic","1",1,29,1,"Read Version A","great","Study1","B","Study","Study Phase",8001,NA,"Recall1",6271
"501","w10074365_jbk","big","fantastic","0.111111111111111",0,78,1,"Read Version A","great","Study1","B","Study","Study Phase",8004,NA,"Recall1",5804
"502","w10079083bdd","good","fantastic","0",0,64,1,"Read Version A","great","Study1","B","Study","Study Phase",8003,NA,"Recall1",2963
"503","w10096664_jer","super","fantastic","0.111111111111111",0,25,1,"Read Version A","great","Study1","B","Study","Study Phase",8009,NA,"Recall1",5389
"504","w10100015_cgs","gatsby","fantastic","0.333333333333333",0,34,1,"Read Version A","great","Study1","B","Study","Study Phase",8004,NA,"Recall1",3445
"505","w10106710BL","fantastic","fantastic","1",1,53,1,"Read Version A","great","Study1","B","Study","Study Phase",8004,NA,"Recall1",4259
"506","w10107871LD","excellent ","fantastic","0.3",0,50,1,"Read Version A","great","Study1","B","Study","Study Phase",8009,NA,"Recall1",6939
"507","w10112492ke","","fantastic","0",0,32,1,"Read Version A","great","Study1","B","Study","Study Phase",8008,NA,"Recall1",1913
"508","w10112505","awesome","fantastic","0.222222222222222",0,14,1,"Read Version A","great","Study1","B","Study","Study Phase",8005,NA,"Recall1",4702
"509","w10123816_lac","good","fantastic","0",0,67,1,"Read Version A","great","Study1","B","Study","Study Phase",8002,NA,"Recall1",10295
"510","W10129411_WB","fantastic","fantastic","1",1,35,1,"Read Version A","great","Study1","B","Study","Study Phase",8001,NA,"Recall1",5733
"511","10079569MO","","bar","0",0,64,1,"Read Version A","grill","Study1","S","Study","Study Phase",8002,NA,"Recall1",7027
"512","kw781666","","bar","0",0,11,1,"Read Version A","grill","Study1","S","Study","Study Phase",8005,NA,"Recall1",257
"513","w10026256_hc","burger","bar","0.333333333333333",0,11,1,"Read Version A","grill","Study1","S","Study","Study Phase",8001,NA,"Recall1",3500
"514","w10029079_mjm","meat","bar","0.25",0,85,1,"Read Version A","grill","Study1","S","Study","Study Phase",8002,NA,"Recall1",2836
"515","w10065796_sjb","food","bar","0",0,56,1,"Read Version A","grill","Study1","S","Study","Study Phase",8001,NA,"Recall1",3107
"516","w10074365_jbk","bar","bar","1",1,71,1,"Read Version A","grill","Study1","S","Study","Study Phase",8002,NA,"Recall1",2894
"517","w10079083bdd","","bar","0",0,26,1,"Read Version A","grill","Study1","S","Study","Study Phase",8001,NA,"Recall1",1688
"518","w10096664_jer","cook","bar","0",0,80,1,"Read Version A","grill","Study1","S","Study","Study Phase",8007,NA,"Recall1",5389
"519","w10100015_cgs","bar","bar","1",1,58,1,"Read Version A","grill","Study1","S","Study","Study Phase",8002,NA,"Recall1",1863
"520","w10106710BL","bar","bar","1",1,32,1,"Read Version A","grill","Study1","S","Study","Study Phase",8002,NA,"Recall1",2710
"521","w10107871LD","barbecue ","bar","0.333333333333333",0,55,1,"Read Version A","grill","Study1","S","Study","Study Phase",8026,NA,"Recall1",4646
"522","w10112492ke","bar","bar","1",1,26,1,"Read Version A","grill","Study1","S","Study","Study Phase",8010,NA,"Recall1",4065
"523","w10112505","teeth","bar","0",0,41,1,"Read Version A","grill","Study1","S","Study","Study Phase",8005,NA,"Recall1",3472
"524","w10123816_lac","bar","bar","1",1,85,1,"Read Version A","grill","Study1","S","Study","Study Phase",8002,NA,"Recall1",2842
"525","W10129411_WB","bar","bar","1",1,87,1,"Read Version A","grill","Study1","S","Study","Study Phase",8001,NA,"Recall1",2114
"526","10079569MO","target","car","0.333333333333333",0,20,1,"Read Version A","happy","Study1","U","Study","Study Phase",8003,NA,"Recall1",3846
"527","kw781666","smile","car","0",0,87,1,"Read Version A","happy","Study1","U","Study","Study Phase",8438,NA,"Recall1",3474
"528","w10026256_hc","sad","car","0.333333333333333",0,70,1,"Read Version A","happy","Study1","U","Study","Study Phase",8002,NA,"Recall1",4444
"529","w10029079_mjm","sad","car","0.333333333333333",0,40,1,"Read Version A","happy","Study1","U","Study","Study Phase",8001,NA,"Recall1",1355
"530","w10065796_sjb","sad","car","0.333333333333333",0,63,1,"Read Version A","happy","Study1","U","Study","Study Phase",8000,NA,"Recall1",1928
"531","w10074365_jbk","smile","car","0",0,48,1,"Read Version A","happy","Study1","U","Study","Study Phase",8005,NA,"Recall1",4782
"532","w10079083bdd","","car","0",0,11,1,"Read Version A","happy","Study1","U","Study","Study Phase",8003,NA,"Recall1",2671
"533","w10096664_jer","sad","car","0.333333333333333",0,27,1,"Read Version A","happy","Study1","U","Study","Study Phase",8012,NA,"Recall1",3647
"534","w10100015_cgs","sad","car","0.333333333333333",0,14,1,"Read Version A","happy","Study1","U","Study","Study Phase",8006,NA,"Recall1",1869
"535","w10106710BL","sad","car","0.333333333333333",0,88,1,"Read Version A","happy","Study1","U","Study","Study Phase",8003,NA,"Recall1",1705
"536","w10107871LD","emotional","car","0",0,65,1,"Read Version A","happy","Study1","U","Study","Study Phase",8007,NA,"Recall1",5182
"537","w10112492ke","sad","car","0.333333333333333",0,79,1,"Read Version A","happy","Study1","U","Study","Study Phase",8004,NA,"Recall1",2934
"538","w10112505","smile","car","0",0,78,1,"Read Version A","happy","Study1","U","Study","Study Phase",8004,NA,"Recall1",1784
"539","w10123816_lac","food","car","0",0,14,1,"Read Version A","happy","Study1","U","Study","Study Phase",8018,NA,"Recall1",10111
"540","W10129411_WB","car","car","1",1,31,1,"Read Version A","happy","Study1","U","Study","Study Phase",8001,NA,"Recall1",6508
"541","10079569MO","small","growth","0",0,21,1,"Read Version A","height","Study1","B","Study","Study Phase",8005,NA,"Recall1",2781
"542","kw781666","tall","growth","0.166666666666667",0,46,1,"Read Version A","height","Study1","B","Study","Study Phase",8009,NA,"Recall1",19162
"543","w10026256_hc","tall","growth","0.166666666666667",0,80,1,"Read Version A","height","Study1","B","Study","Study Phase",8003,NA,"Recall1",6429
"544","w10029079_mjm","size","growth","0",0,31,1,"Read Version A","height","Study1","B","Study","Study Phase",8005,NA,"Recall1",2097
"545","w10065796_sjb","growth","growth","1",1,34,1,"Read Version A","height","Study1","B","Study","Study Phase",8003,NA,"Recall1",2021
"546","w10074365_jbk","tall","growth","0.166666666666667",0,77,1,"Read Version A","height","Study1","B","Study","Study Phase",8003,NA,"Recall1",3782
"547","w10079083bdd","weight","growth","0.666666666666667",0,52,1,"Read Version A","height","Study1","B","Study","Study Phase",8003,NA,"Recall1",4275
"548","w10096664_jer","tall","growth","0.166666666666667",0,79,1,"Read Version A","height","Study1","B","Study","Study Phase",8009,NA,"Recall1",3788
"549","w10100015_cgs","small","growth","0",0,13,1,"Read Version A","height","Study1","B","Study","Study Phase",8002,NA,"Recall1",1836
"550","w10106710BL","","growth","0",0,82,1,"Read Version A","height","Study1","B","Study","Study Phase",8008,NA,"Recall1",1355
"551","w10107871LD","building ","growth","0",0,43,1,"Read Version A","height","Study1","B","Study","Study Phase",8006,NA,"Recall1",4874
"552","w10112492ke","tall","growth","0.166666666666667",0,76,1,"Read Version A","height","Study1","B","Study","Study Phase",8005,NA,"Recall1",13291
"553","w10112505","growth","growth","1",1,17,1,"Read Version A","height","Study1","B","Study","Study Phase",8008,NA,"Recall1",2344
"554","w10123816_lac","growth","growth","1",1,68,1,"Read Version A","height","Study1","B","Study","Study Phase",8003,NA,"Recall1",3502
"555","W10129411_WB","growth","growth","1",1,13,1,"Read Version A","height","Study1","B","Study","Study Phase",8001,NA,"Recall1",17337
"556","10079569MO","sheep","cow","0",0,24,1,"Read Version A","herd","Study1","F","Study","Study Phase",8005,NA,"Recall1",3807
"557","kw781666","","cow","0",0,35,1,"Read Version A","herd","Study1","F","Study","Study Phase",8007,NA,"Recall1",275
"558","w10026256_hc","cow","cow","1",1,54,1,"Read Version A","herd","Study1","F","Study","Study Phase",8001,NA,"Recall1",3366
"559","w10029079_mjm","cow","cow","1",1,49,1,"Read Version A","herd","Study1","F","Study","Study Phase",8865,NA,"Recall1",1693
"560","w10065796_sjb","cow","cow","1",1,25,1,"Read Version A","herd","Study1","F","Study","Study Phase",8003,NA,"Recall1",2131
"561","w10074365_jbk","cows","cow","0.75",1,18,1,"Read Version A","herd","Study1","F","Study","Study Phase",8008,NA,"Recall1",4648
"562","w10079083bdd","sheep","cow","0",0,27,1,"Read Version A","herd","Study1","F","Study","Study Phase",8003,NA,"Recall1",4209
"563","w10096664_jer","sheep","cow","0",0,64,1,"Read Version A","herd","Study1","F","Study","Study Phase",8008,NA,"Recall1",7936
"564","w10100015_cgs","sheep","cow","0",0,33,1,"Read Version A","herd","Study1","F","Study","Study Phase",8003,NA,"Recall1",1665
"565","w10106710BL","cow","cow","1",1,40,1,"Read Version A","herd","Study1","F","Study","Study Phase",8002,NA,"Recall1",2487
"566","w10107871LD","sheep","cow","0",0,75,1,"Read Version A","herd","Study1","F","Study","Study Phase",8003,NA,"Recall1",7422
"567","w10112492ke","cow","cow","1",1,35,1,"Read Version A","herd","Study1","F","Study","Study Phase",8004,NA,"Recall1",6221
"568","w10112505","together","cow","0.125",0,87,1,"Read Version A","herd","Study1","F","Study","Study Phase",8008,NA,"Recall1",2724
"569","w10123816_lac","sheep","cow","0",0,27,1,"Read Version A","herd","Study1","F","Study","Study Phase",8004,NA,"Recall1",5185
"570","W10129411_WB","cow","cow","1",1,71,1,"Read Version A","herd","Study1","F","Study","Study Phase",8001,NA,"Recall1",24740
"571","10079569MO","sick","sick","1",1,57,1,"Read Version A","hide","Study1","U","Study","Study Phase",8001,NA,"Recall1",2887
"572","kw781666","seek","sick","0.5",0,77,1,"Read Version A","hide","Study1","U","Study","Study Phase",8757,NA,"Recall1",3863
"573","w10026256_hc","n'seek","sick","0.166666666666667",0,58,1,"Read Version A","hide","Study1","U","Study","Study Phase",8002,NA,"Recall1",3964
"574","w10029079_mjm","scary","sick","0.4",0,41,1,"Read Version A","hide","Study1","U","Study","Study Phase",8002,NA,"Recall1",4712
"575","w10065796_sjb","","sick","0",0,55,1,"Read Version A","hide","Study1","U","Study","Study Phase",8001,NA,"Recall1",6416
"576","w10074365_jbk","seek","sick","0.5",0,21,1,"Read Version A","hide","Study1","U","Study","Study Phase",8008,NA,"Recall1",8179
"577","w10079083bdd","seek","sick","0.5",0,25,1,"Read Version A","hide","Study1","U","Study","Study Phase",8004,NA,"Recall1",3186
"578","w10096664_jer","seek","sick","0.5",0,44,1,"Read Version A","hide","Study1","U","Study","Study Phase",8007,NA,"Recall1",12160
"579","w10100015_cgs","seek","sick","0.5",0,47,1,"Read Version A","hide","Study1","U","Study","Study Phase",8003,NA,"Recall1",2308
"580","w10106710BL","seek","sick","0.5",0,77,1,"Read Version A","hide","Study1","U","Study","Study Phase",8008,NA,"Recall1",2820
"581","w10107871LD","seek","sick","0.5",0,40,1,"Read Version A","hide","Study1","U","Study","Study Phase",8230,NA,"Recall1",3738
"582","w10112492ke","","sick","0",0,85,1,"Read Version A","hide","Study1","U","Study","Study Phase",8008,NA,"Recall1",4467
"583","w10112505","find","sick","0.25",0,71,1,"Read Version A","hide","Study1","U","Study","Study Phase",8006,NA,"Recall1",3980
"584","w10123816_lac","scare","sick","0.4",0,20,1,"Read Version A","hide","Study1","U","Study","Study Phase",8004,NA,"Recall1",10412
"585","W10129411_WB","sick and scare","sick","0.285714285714286",0,9,1,"Read Version A","hide","Study1","U","Study","Study Phase",8000,NA,"Recall1",15774
"586","10079569MO","sweet","bee","0.2",0,53,1,"Read Version A","honey","Study1","S","Study","Study Phase",8003,NA,"Recall1",5338
"587","kw781666","","bee","0",0,68,1,"Read Version A","honey","Study1","S","Study","Study Phase",8007,NA,"Recall1",193
"588","w10026256_hc","pot","bee","0",0,15,1,"Read Version A","honey","Study1","S","Study","Study Phase",8001,NA,"Recall1",2338
"589","w10029079_mjm","bee","bee","1",1,84,1,"Read Version A","honey","Study1","S","Study","Study Phase",8003,NA,"Recall1",3233
"590","w10065796_sjb","comb","bee","0",0,61,1,"Read Version A","honey","Study1","S","Study","Study Phase",8001,NA,"Recall1",2604
"591","w10074365_jbk","jar","bee","0",0,68,1,"Read Version A","honey","Study1","S","Study","Study Phase",8003,NA,"Recall1",5629
"592","w10079083bdd","bee","bee","1",1,61,1,"Read Version A","honey","Study1","S","Study","Study Phase",8003,NA,"Recall1",1759
"593","w10096664_jer","sweet","bee","0.2",0,63,1,"Read Version A","honey","Study1","S","Study","Study Phase",8016,NA,"Recall1",6920
"594","w10100015_cgs","bee","bee","1",1,42,1,"Read Version A","honey","Study1","S","Study","Study Phase",8002,NA,"Recall1",2199
"595","w10106710BL","bee","bee","1",1,44,1,"Read Version A","honey","Study1","S","Study","Study Phase",8003,NA,"Recall1",1733
"596","w10107871LD","bee","bee","1",1,82,1,"Read Version A","honey","Study1","S","Study","Study Phase",8006,NA,"Recall1",3208
"597","w10112492ke","bee","bee","1",1,75,1,"Read Version A","honey","Study1","S","Study","Study Phase",8008,NA,"Recall1",5430
"598","w10112505","cone","bee","0",0,44,1,"Read Version A","honey","Study1","S","Study","Study Phase",8005,NA,"Recall1",3378
"599","w10123816_lac","bee","bee","1",1,49,1,"Read Version A","honey","Study1","S","Study","Study Phase",8001,NA,"Recall1",3946
"600","W10129411_WB","bee","bee","1",1,15,1,"Read Version A","honey","Study1","S","Study","Study Phase",8000,NA,"Recall1",4701
"601","10079569MO","bug","sting","0.2",0,28,1,"Read Version A","hornet","Study1","F","Study","Study Phase",8007,NA,"Recall1",3281
"602","kw781666","sting","sting","1",1,22,1,"Read Version A","hornet","Study1","F","Study","Study Phase",8009,NA,"Recall1",4526
"603","w10026256_hc","nest","sting","0.6",0,39,1,"Read Version A","hornet","Study1","F","Study","Study Phase",8001,NA,"Recall1",4538
"604","w10029079_mjm","bee","sting","0",0,79,1,"Read Version A","hornet","Study1","F","Study","Study Phase",8002,NA,"Recall1",2649
"605","w10065796_sjb","sting","sting","1",1,22,1,"Read Version A","hornet","Study1","F","Study","Study Phase",8001,NA,"Recall1",1717
"606","w10074365_jbk","wasp","sting","0.2",0,61,1,"Read Version A","hornet","Study1","F","Study","Study Phase",8009,NA,"Recall1",3898
"607","w10079083bdd","sting","sting","1",1,24,1,"Read Version A","hornet","Study1","F","Study","Study Phase",8003,NA,"Recall1",4643
"608","w10096664_jer","bee","sting","0",0,73,1,"Read Version A","hornet","Study1","F","Study","Study Phase",8008,NA,"Recall1",4627
"609","w10100015_cgs","nest","sting","0.6",0,61,1,"Read Version A","hornet","Study1","F","Study","Study Phase",8002,NA,"Recall1",2220
"610","w10106710BL","wasp","sting","0.2",0,64,1,"Read Version A","hornet","Study1","F","Study","Study Phase",8009,NA,"Recall1",3314
"611","w10107871LD","honey","sting","0.2",0,25,1,"Read Version A","hornet","Study1","F","Study","Study Phase",8017,NA,"Recall1",4164
"612","w10112492ke","wasp","sting","0.2",0,22,1,"Read Version A","hornet","Study1","F","Study","Study Phase",8009,NA,"Recall1",4675
"613","w10112505","bee","sting","0",0,75,1,"Read Version A","hornet","Study1","F","Study","Study Phase",8006,NA,"Recall1",3682
"614","w10123816_lac","sting","sting","1",1,62,1,"Read Version A","hornet","Study1","F","Study","Study Phase",8003,NA,"Recall1",4163
"615","W10129411_WB","sting","sting","1",1,75,1,"Read Version A","hornet","Study1","F","Study","Study Phase",8000,NA,"Recall1",12113
"616","10079569MO","steam","chili","0",0,37,1,"Read Version A","hot","Study1","B","Study","Study Phase",8001,NA,"Recall1",5071
"617","kw781666","cold","chili","0.4",0,9,1,"Read Version A","hot","Study1","B","Study","Study Phase",8005,NA,"Recall1",3500
"618","w10026256_hc","cold","chili","0.4",0,28,1,"Read Version A","hot","Study1","B","Study","Study Phase",8007,NA,"Recall1",4732
"619","w10029079_mjm","cold","chili","0.4",0,81,1,"Read Version A","hot","Study1","B","Study","Study Phase",8001,NA,"Recall1",1546
"620","w10065796_sjb","cold","chili","0.4",0,85,1,"Read Version A","hot","Study1","B","Study","Study Phase",8001,NA,"Recall1",2462
"621","w10074365_jbk","cold","chili","0.4",0,46,1,"Read Version A","hot","Study1","B","Study","Study Phase",8008,NA,"Recall1",3265
"622","w10079083bdd","cold","chili","0.4",0,37,1,"Read Version A","hot","Study1","B","Study","Study Phase",8003,NA,"Recall1",1780
"623","w10096664_jer","spicy ","chili","0.333333333333333",0,24,1,"Read Version A","hot","Study1","B","Study","Study Phase",8007,NA,"Recall1",9381
"624","w10100015_cgs","damn","chili","0",0,18,1,"Read Version A","hot","Study1","B","Study","Study Phase",8002,NA,"Recall1",1948
"625","w10106710BL","cold","chili","0.4",0,54,1,"Read Version A","hot","Study1","B","Study","Study Phase",8009,NA,"Recall1",4071
"626","w10107871LD","spicy ","chili","0.333333333333333",0,14,1,"Read Version A","hot","Study1","B","Study","Study Phase",8008,NA,"Recall1",7203
"627","w10112492ke","cold","chili","0.4",0,33,1,"Read Version A","hot","Study1","B","Study","Study Phase",8004,NA,"Recall1",7357
"628","w10112505","cold","chili","0.4",0,19,1,"Read Version A","hot","Study1","B","Study","Study Phase",8005,NA,"Recall1",2597
"629","w10123816_lac","chili","chili","1",1,22,1,"Read Version A","hot","Study1","B","Study","Study Phase",8005,NA,"Recall1",3356
"630","W10129411_WB","chili","chili","1",1,62,1,"Read Version A","hot","Study1","B","Study","Study Phase",8000,NA,"Recall1",7413
"631","10079569MO","famine","famine","1",1,38,1,"Read Version A","hunger","Study1","B","Study","Study Phase",8002,NA,"Recall1",3620
"632","kw781666","famine","famine","1",1,44,1,"Read Version A","hunger","Study1","B","Study","Study Phase",8007,NA,"Recall1",25065
"633","w10026256_hc","games","famine","0.5",0,63,1,"Read Version A","hunger","Study1","B","Study","Study Phase",8001,NA,"Recall1",5390
"634","w10029079_mjm","starving","famine","0.25",0,54,1,"Read Version A","hunger","Study1","B","Study","Study Phase",8002,NA,"Recall1",3026
"635","w10065796_sjb","famine","famine","1",1,32,1,"Read Version A","hunger","Study1","B","Study","Study Phase",8002,NA,"Recall1",2477
"636","w10074365_jbk","food","famine","0.166666666666667",0,23,1,"Read Version A","hunger","Study1","B","Study","Study Phase",8003,NA,"Recall1",6672
"637","w10079083bdd","","famine","0",0,70,1,"Read Version A","hunger","Study1","B","Study","Study Phase",8003,NA,"Recall1",1659
"638","w10096664_jer","poverty ","famine","0.125",0,9,1,"Read Version A","hunger","Study1","B","Study","Study Phase",8009,NA,"Recall1",15536
"639","w10100015_cgs","hippos","famine","0.166666666666667",0,72,1,"Read Version A","hunger","Study1","B","Study","Study Phase",8007,NA,"Recall1",3116
"640","w10106710BL","famine","famine","1",1,84,1,"Read Version A","hunger","Study1","B","Study","Study Phase",8003,NA,"Recall1",2114
"641","w10107871LD","park","famine","0.166666666666667",0,84,1,"Read Version A","hunger","Study1","B","Study","Study Phase",8013,NA,"Recall1",4552
"642","w10112492ke","food","famine","0.166666666666667",0,25,1,"Read Version A","hunger","Study1","B","Study","Study Phase",8009,NA,"Recall1",5558
"643","w10112505","game","famine","0.5",0,16,1,"Read Version A","hunger","Study1","B","Study","Study Phase",8004,NA,"Recall1",4955
"644","w10123816_lac","famine","famine","1",1,29,1,"Read Version A","hunger","Study1","B","Study","Study Phase",8003,NA,"Recall1",4329
"645","W10129411_WB","famine","famine","1",1,46,1,"Read Version A","hunger","Study1","B","Study","Study Phase",8001,NA,"Recall1",7156
"646","10079569MO","clean","clean","1",1,16,1,"Read Version A","hygiene","Study1","F","Study","Study Phase",8008,NA,"Recall1",3772
"647","kw781666","clean","clean","1",1,29,1,"Read Version A","hygiene","Study1","F","Study","Study Phase",8023,NA,"Recall1",11987
"648","w10026256_hc","clean","clean","1",1,72,1,"Read Version A","hygiene","Study1","F","Study","Study Phase",8001,NA,"Recall1",2818
"649","w10029079_mjm","wash","clean","0.2",0,16,1,"Read Version A","hygiene","Study1","F","Study","Study Phase",8004,NA,"Recall1",2689
"650","w10065796_sjb","shower","clean","0.166666666666667",0,37,1,"Read Version A","hygiene","Study1","F","Study","Study Phase",8003,NA,"Recall1",2616
"651","w10074365_jbk","clean","clean","1",1,10,1,"Read Version A","hygiene","Study1","F","Study","Study Phase",8005,NA,"Recall1",3132
"652","w10079083bdd","clean","clean","1",1,35,1,"Read Version A","hygiene","Study1","F","Study","Study Phase",8003,NA,"Recall1",2160
"653","w10096664_jer","toothbrush ","clean","0",0,82,1,"Read Version A","hygiene","Study1","F","Study","Study Phase",8011,NA,"Recall1",6529
"654","w10100015_cgs","bath","clean","0.2",0,67,1,"Read Version A","hygiene","Study1","F","Study","Study Phase",8005,NA,"Recall1",4498
"655","w10106710BL","clean","clean","1",1,20,1,"Read Version A","hygiene","Study1","F","Study","Study Phase",8003,NA,"Recall1",1709
"656","w10107871LD","clean","clean","1",1,83,1,"Read Version A","hygiene","Study1","F","Study","Study Phase",8020,NA,"Recall1",4168
"657","w10112492ke","bath","clean","0.2",0,82,1,"Read Version A","hygiene","Study1","F","Study","Study Phase",8005,NA,"Recall1",33609
"658","w10112505","good","clean","0",0,25,1,"Read Version A","hygiene","Study1","F","Study","Study Phase",8006,NA,"Recall1",3066
"659","w10123816_lac","shower","clean","0.166666666666667",0,48,1,"Read Version A","hygiene","Study1","F","Study","Study Phase",8003,NA,"Recall1",3940
"660","W10129411_WB","clean","clean","1",1,83,1,"Read Version A","hygiene","Study1","F","Study","Study Phase",8001,NA,"Recall1",6427
"661","10079569MO","lock","latch","0.4",0,56,1,"Read Version A","key","Study1","B","Study","Study Phase",8002,NA,"Recall1",3060
"662","kw781666","lock","latch","0.4",0,13,1,"Read Version A","key","Study1","B","Study","Study Phase",8008,NA,"Recall1",4355
"663","w10026256_hc","card","latch","0.4",0,83,1,"Read Version A","key","Study1","B","Study","Study Phase",8005,NA,"Recall1",4785
"664","w10029079_mjm","lock","latch","0.4",0,51,1,"Read Version A","key","Study1","B","Study","Study Phase",8002,NA,"Recall1",1996
"665","w10065796_sjb","lock","latch","0.4",0,68,1,"Read Version A","key","Study1","B","Study","Study Phase",8000,NA,"Recall1",3290
"666","w10074365_jbk","lock","latch","0.4",0,19,1,"Read Version A","key","Study1","B","Study","Study Phase",8007,NA,"Recall1",3395
"667","w10079083bdd","hole","latch","0.4",0,53,1,"Read Version A","key","Study1","B","Study","Study Phase",8002,NA,"Recall1",2278
"668","w10096664_jer","load","latch","0.4",0,71,1,"Read Version A","key","Study1","B","Study","Study Phase",8008,NA,"Recall1",10212
"669","w10100015_cgs","hole","latch","0.4",0,71,1,"Read Version A","key","Study1","B","Study","Study Phase",8002,NA,"Recall1",1733
"670","w10106710BL","","latch","0",0,86,1,"Read Version A","key","Study1","B","Study","Study Phase",8003,NA,"Recall1",1862
"671","w10107871LD","house","latch","0.2",0,71,1,"Read Version A","key","Study1","B","Study","Study Phase",8002,NA,"Recall1",4075
"672","w10112492ke","lock","latch","0.4",0,65,1,"Read Version A","key","Study1","B","Study","Study Phase",8011,NA,"Recall1",3241
"673","w10112505","word","latch","0",0,68,1,"Read Version A","key","Study1","B","Study","Study Phase",8011,NA,"Recall1",2198
"674","w10123816_lac","card","latch","0.4",0,58,1,"Read Version A","key","Study1","B","Study","Study Phase",8006,NA,"Recall1",6646
"675","W10129411_WB","latch","latch","1",1,86,1,"Read Version A","key","Study1","B","Study","Study Phase",8001,NA,"Recall1",21731
"676","10079569MO","organ","liver","0.2",0,67,1,"Read Version A","kidney","Study1","S","Study","Study Phase",8001,NA,"Recall1",3390
"677","kw781666","liver","liver","1",1,64,1,"Read Version A","kidney","Study1","S","Study","Study Phase",8006,NA,"Recall1",3221
"678","w10026256_hc","stones","liver","0.166666666666667",0,61,1,"Read Version A","kidney","Study1","S","Study","Study Phase",8004,NA,"Recall1",3878
"679","w10029079_mjm","liver","liver","1",1,34,1,"Read Version A","kidney","Study1","S","Study","Study Phase",8002,NA,"Recall1",4166
"680","w10065796_sjb","organ","liver","0.2",0,80,1,"Read Version A","kidney","Study1","S","Study","Study Phase",8001,NA,"Recall1",2178
"681","w10074365_jbk","stone","liver","0.2",0,83,1,"Read Version A","kidney","Study1","S","Study","Study Phase",8006,NA,"Recall1",3414
"682","w10079083bdd","liver","liver","1",1,72,1,"Read Version A","kidney","Study1","S","Study","Study Phase",8002,NA,"Recall1",7209
"683","w10096664_jer","liquor ","liver","0.285714285714286",0,38,1,"Read Version A","kidney","Study1","S","Study","Study Phase",8004,NA,"Recall1",8948
"684","w10100015_cgs","liver","liver","1",1,26,1,"Read Version A","kidney","Study1","S","Study","Study Phase",8002,NA,"Recall1",2291
"685","w10106710BL","liver","liver","1",1,55,1,"Read Version A","kidney","Study1","S","Study","Study Phase",8009,NA,"Recall1",2448
"686","w10107871LD","liver","liver","1",1,81,1,"Read Version A","kidney","Study1","S","Study","Study Phase",8021,NA,"Recall1",3940
"687","w10112492ke","liver5","liver","0.833333333333333",1,47,1,"Read Version A","kidney","Study1","S","Study","Study Phase",8011,NA,"Recall1",29655
"688","w10112505","stone","liver","0.2",0,79,1,"Read Version A","kidney","Study1","S","Study","Study Phase",8005,NA,"Recall1",3907
"689","w10123816_lac","liver","liver","1",1,71,1,"Read Version A","kidney","Study1","S","Study","Study Phase",8004,NA,"Recall1",3153
"690","W10129411_WB","liver","liver","1",1,54,1,"Read Version A","kidney","Study1","S","Study","Study Phase",8000,NA,"Recall1",2750
"691","10079569MO","vase","vase","1",1,34,1,"Read Version A","king","Study1","U","Study","Study Phase",8001,NA,"Recall1",4011
"692","kw781666","","vase","0",0,45,1,"Read Version A","king","Study1","U","Study","Study Phase",8007,NA,"Recall1",360
"693","w10026256_hc","queen","vase","0.4",0,85,1,"Read Version A","king","Study1","U","Study","Study Phase",8001,NA,"Recall1",5109
"694","w10029079_mjm","queen","vase","0.4",0,18,1,"Read Version A","king","Study1","U","Study","Study Phase",8003,NA,"Recall1",1870
"695","w10065796_sjb","queen","vase","0.4",0,47,1,"Read Version A","king","Study1","U","Study","Study Phase",8002,NA,"Recall1",2181
"696","w10074365_jbk","rule","vase","0.25",0,16,1,"Read Version A","king","Study1","U","Study","Study Phase",8003,NA,"Recall1",7539
"697","w10079083bdd","","vase","0",0,44,1,"Read Version A","king","Study1","U","Study","Study Phase",8007,NA,"Recall1",2154
"698","w10096664_jer","queen","vase","0.4",0,43,1,"Read Version A","king","Study1","U","Study","Study Phase",8007,NA,"Recall1",14744
"699","w10100015_cgs","queen","vase","0.4",0,59,1,"Read Version A","king","Study1","U","Study","Study Phase",8002,NA,"Recall1",1856
"700","w10106710BL","","vase","0",0,60,1,"Read Version A","king","Study1","U","Study","Study Phase",8005,NA,"Recall1",3312
"701","w10107871LD","powerful ","vase","0.111111111111111",0,59,1,"Read Version A","king","Study1","U","Study","Study Phase",8007,NA,"Recall1",8523
"702","w10112492ke","queen","vase","0.4",0,72,1,"Read Version A","king","Study1","U","Study","Study Phase",8013,NA,"Recall1",3714
"703","w10112505","queen","vase","0.4",0,10,1,"Read Version A","king","Study1","U","Study","Study Phase",8009,NA,"Recall1",2188
"704","w10123816_lac","palace","vase","0.333333333333333",0,72,1,"Read Version A","king","Study1","U","Study","Study Phase",8003,NA,"Recall1",7200
"705","W10129411_WB","pin","vase","0",0,24,1,"Read Version A","king","Study1","U","Study","Study Phase",8001,NA,"Recall1",3583
"706","10079569MO","book","attorney","0.125",0,74,1,"Read Version A","law","Study1","B","Study","Study Phase",8000,NA,"Recall1",3789
"707","kw781666","jury","attorney","0.25",0,34,1,"Read Version A","law","Study1","B","Study","Study Phase",8005,NA,"Recall1",3702
"708","w10026256_hc","attorney","attorney","1",1,57,1,"Read Version A","law","Study1","B","Study","Study Phase",8001,NA,"Recall1",4306
"709","w10029079_mjm","school","attorney","0.125",0,23,1,"Read Version A","law","Study1","B","Study","Study Phase",8002,NA,"Recall1",3182
"710","w10065796_sjb","court","attorney","0.375",0,64,1,"Read Version A","law","Study1","B","Study","Study Phase",8003,NA,"Recall1",2743
"711","w10074365_jbk","attorney","attorney","1",1,52,1,"Read Version A","law","Study1","B","Study","Study Phase",8010,NA,"Recall1",3697
"712","w10079083bdd","trial","attorney","0.375",0,38,1,"Read Version A","law","Study1","B","Study","Study Phase",8002,NA,"Recall1",5865
"713","w10096664_jer","sheriff ","attorney","0.25",0,50,1,"Read Version A","law","Study1","B","Study","Study Phase",8021,NA,"Recall1",7507
"714","w10100015_cgs","full","attorney","0",0,30,1,"Read Version A","law","Study1","B","Study","Study Phase",8002,NA,"Recall1",3577
"715","w10106710BL","attorney","attorney","1",1,22,1,"Read Version A","law","Study1","B","Study","Study Phase",8002,NA,"Recall1",2765
"716","w10107871LD","jury","attorney","0.25",0,70,1,"Read Version A","law","Study1","B","Study","Study Phase",8018,NA,"Recall1",5293
"717","w10112492ke","attorney","attorney","1",1,87,1,"Read Version A","law","Study1","B","Study","Study Phase",8004,NA,"Recall1",5264
"718","w10112505","","attorney","0",0,47,1,"Read Version A","law","Study1","B","Study","Study Phase",8004,NA,"Recall1",21180
"719","w10123816_lac","attorney ","attorney","0.888888888888889",1,33,1,"Read Version A","law","Study1","B","Study","Study Phase",8002,NA,"Recall1",8346
"720","W10129411_WB","attorney","attorney","1",1,72,1,"Read Version A","law","Study1","B","Study","Study Phase",8001,NA,"Recall1",2907
"721","10079569MO","green","salad","0",0,13,1,"Read Version A","lettuce","Study1","S","Study","Study Phase",8005,NA,"Recall1",3322
"722","kw781666","","salad","0",0,38,1,"Read Version A","lettuce","Study1","S","Study","Study Phase",8005,NA,"Recall1",865
"723","w10026256_hc","spinach","salad","0.285714285714286",0,18,1,"Read Version A","lettuce","Study1","S","Study","Study Phase",8004,NA,"Recall1",5348
"724","w10029079_mjm","green","salad","0",0,71,1,"Read Version A","lettuce","Study1","S","Study","Study Phase",8002,NA,"Recall1",2576
"725","w10065796_sjb","salad","salad","1",1,46,1,"Read Version A","lettuce","Study1","S","Study","Study Phase",8002,NA,"Recall1",2004
"726","w10074365_jbk","salad","salad","1",1,66,1,"Read Version A","lettuce","Study1","S","Study","Study Phase",8008,NA,"Recall1",3329
"727","w10079083bdd","salad","salad","1",1,83,1,"Read Version A","lettuce","Study1","S","Study","Study Phase",8002,NA,"Recall1",2945
"728","w10096664_jer","vegetables","salad","0",0,14,1,"Read Version A","lettuce","Study1","S","Study","Study Phase",8012,NA,"Recall1",11276
"729","w10100015_cgs","salad","salad","1",1,87,1,"Read Version A","lettuce","Study1","S","Study","Study Phase",8002,NA,"Recall1",2183
"730","w10106710BL","crunch","salad","0",0,13,1,"Read Version A","lettuce","Study1","S","Study","Study Phase",8001,NA,"Recall1",2926
"731","w10107871LD","salad","salad","1",1,61,1,"Read Version A","lettuce","Study1","S","Study","Study Phase",8024,NA,"Recall1",7844
"732","w10112492ke","cheese","salad","0.166666666666667",0,62,1,"Read Version A","lettuce","Study1","S","Study","Study Phase",8005,NA,"Recall1",4205
"733","w10112505","green","salad","0",0,26,1,"Read Version A","lettuce","Study1","S","Study","Study Phase",8004,NA,"Recall1",10252
"734","w10123816_lac","salad","salad","1",1,70,1,"Read Version A","lettuce","Study1","S","Study","Study Phase",8004,NA,"Recall1",3659
"735","W10129411_WB","salad","salad","1",1,43,1,"Read Version A","lettuce","Study1","S","Study","Study Phase",8001,NA,"Recall1",3917
"736","10079569MO","woman","woman","1",1,77,1,"Read Version A","lift","Study1","U","Study","Study Phase",8006,NA,"Recall1",2291
"737","kw781666","pick","woman","0",0,50,1,"Read Version A","lift","Study1","U","Study","Study Phase",8006,NA,"Recall1",12128
"738","w10026256_hc","up","woman","0",0,88,1,"Read Version A","lift","Study1","U","Study","Study Phase",8001,NA,"Recall1",1608
"739","w10029079_mjm","carry","woman","0.2",0,56,1,"Read Version A","lift","Study1","U","Study","Study Phase",8002,NA,"Recall1",2402
"740","w10065796_sjb","carry","woman","0.2",0,48,1,"Read Version A","lift","Study1","U","Study","Study Phase",8003,NA,"Recall1",3264
"741","w10074365_jbk","women","woman","0.8",1,38,1,"Read Version A","lift","Study1","U","Study","Study Phase",8003,NA,"Recall1",4573
"742","w10079083bdd","heavy","woman","0.2",0,80,1,"Read Version A","lift","Study1","U","Study","Study Phase",8002,NA,"Recall1",2433
"743","w10096664_jer","heavy","woman","0.2",0,60,1,"Read Version A","lift","Study1","U","Study","Study Phase",8010,NA,"Recall1",3451
"744","w10100015_cgs","heavy","woman","0.2",0,22,1,"Read Version A","lift","Study1","U","Study","Study Phase",8003,NA,"Recall1",2121
"745","w10106710BL","woman","woman","1",1,59,1,"Read Version A","lift","Study1","U","Study","Study Phase",8009,NA,"Recall1",3107
